timestamp_ms,ax,ay,az,gx,gy,gz,tempC
138239,0.198616,-0.065392,0.99064,-1.61,1.12,-4.2,20.47
138251,0.199104,-0.067832,0.993568,-1.05,0.42,-4.06,20.47
138264,0.202032,-0.060512,0.996984,-0.14,-0.63,-4.41,20.47
138276,0.21228,-0.052216,1.002352,-0.84,-1.19,-4.48,20.47
138288,0.216672,-0.05856,1.004792,-1.96,-1.12,-4.62,20.48
138299,0.213744,-0.066856,1.00772,-2.24,-1.75,-4.62,20.44
138312,0.208864,-0.074176,1.01992,-2.45,-2.8,-4.76,20.44
138324,0.202032,-0.080032,1.02968,-1.47,-4.48,-5.81,20.5
138335,0.201544,-0.070272,1.037488,-0.07,-6.44,-6.51,20.45
138347,0.206424,-0.061976,1.030168,-0.28,-7.35,-7.0,20.45
138358,0.202032,-0.066856,1.031144,-0.42,-7.98,-6.93,20.47
138371,0.201544,-0.057096,1.039928,-1.26,-8.61,-6.02,20.48
138382,0.201056,-0.063928,1.039928,-1.4,-9.03,-5.74,20.48
138394,0.186904,-0.046848,1.043832,-1.12,-9.52,-5.53,20.48
138406,0.183,-0.050752,1.038464,-2.1,-9.17,-5.25,20.48
138417,0.171776,-0.05856,1.0248,-3.15,-8.82,-4.83,20.46
138428,0.166408,-0.054656,1.016016,-4.34,-8.19,-3.29,20.48
138440,0.159576,-0.045872,1.017968,-7.07,-7.7,-1.61,20.48
138452,0.158112,-0.054656,1.017968,-9.03,-6.44,-0.98,20.46
138463,0.148352,-0.075152,1.005768,-8.47,-5.67,-0.35,20.39
138474,0.143472,-0.077104,0.996496,-7.77,-4.83,-0.07,20.39
138486,0.137128,-0.09516,0.987712,-6.93,-3.71,0.21,20.46
138497,0.138104,-0.114192,0.99064,-4.41,-2.52,0.21,20.46
138509,0.137616,-0.114192,0.989176,-1.96,-1.33,0.28,20.47
138520,0.137128,-0.112728,0.978928,0.14,-0.14,0.49,20.46
138532,0.140544,-0.106872,0.969656,1.19,1.26,0.56,20.46
138544,0.14396,-0.100528,0.967216,1.54,2.94,0.77,20.43
138555,0.143472,-0.101016,0.9638,0.14,5.04,1.33,20.43
138567,0.1464,-0.104432,0.965752,-0.28,6.79,1.47,20.48
138578,0.151768,-0.108824,0.9638,-0.49,8.89,1.26,20.49
138591,0.15616,-0.108336,0.970632,-1.05,11.48,0.77,20.49
138602,0.159576,-0.10248,0.982832,-3.29,14.28,0.56,20.46
138614,0.15128,-0.110776,0.996496,-5.81,16.309999,1.05,20.48
138625,0.151768,-0.123952,1.004792,-7.35,16.799999,1.61,20.48
138637,0.149816,-0.142496,1.003816,-6.02,15.96,1.4,20.43
138649,0.152744,-0.136152,1.003816,-3.64,14.14,0.77,20.43
138661,0.164944,-0.131272,1.009184,-1.33,12.6,-0.14,20.44
138673,0.164456,-0.108824,1.024312,-0.63,10.43,-0.7,20.45
138684,0.167384,-0.095648,1.033096,-2.03,8.54,-0.98,20.45
138696,0.162016,-0.101504,1.026752,-2.73,6.02,-1.47,20.47
138709,0.15128,-0.10248,1.016992,-2.1,2.87,-2.31,20.48
138720,0.148352,-0.104432,1.01992,-0.49,-0.28,-2.94,20.48
138733,0.147376,-0.10492,1.025776,1.05,-3.29,-3.43,20.46
138745,0.148352,-0.09272,1.030656,2.38,-4.97,-3.78,20.42
138757,0.145424,-0.081984,1.02724,2.31,-6.16,-3.64,20.42
138769,0.147376,-0.079056,1.021384,1.61,-6.44,-3.36,20.48
138781,0.144448,-0.084424,1.01748,1.12,-6.44,-3.15,20.43
138793,0.142496,-0.093696,1.016016,0.98,-6.44,-2.66,20.43
138805,0.15128,-0.09272,1.0126,-0.21,-6.37,-2.24,20.44
138817,0.15372,-0.108824,1.004304,-1.05,-5.81,-2.17,20.44
138829,0.159088,-0.120048,0.986736,-0.98,-5.6,-2.45,20.46
138841,0.168848,-0.122,0.98332,-0.98,-5.39,-2.8,20.44
138853,0.176656,-0.125416,0.981368,-0.7,-4.76,-3.08,20.44
138865,0.183976,-0.123464,0.977952,-0.7,-4.13,-3.57,20.45
138876,0.186416,-0.122976,0.978928,-1.12,-3.36,-3.85,20.48
138888,0.191296,-0.127856,0.974048,-0.56,-2.73,-4.48,20.48
138900,0.19276,-0.125416,0.970144,0.7,-2.45,-5.11,20.46
138914,0.195688,-0.115656,0.972584,1.68,-1.96,-5.25,20.41
138925,0.20252,-0.096624,0.970144,2.03,-1.05,-4.97,20.41
138937,0.203008,-0.085888,0.973072,0.63,0.21,-4.27,20.46
138949,0.199592,-0.08296,0.982832,-1.19,1.54,-3.36,20.44
138960,0.191784,-0.095648,0.996496,-2.03,2.1,-3.15,20.44
138972,0.187392,-0.098576,1.003816,-1.33,2.24,-2.73,20.46
138984,0.180072,-0.095648,1.004304,0.0,2.17,-2.45,20.46
138995,0.177144,-0.095648,1.009184,0.77,1.89,-1.96,20.48
139007,0.177144,-0.09272,1.009672,1.26,1.82,-1.54,20.46
139018,0.175192,-0.087352,1.01748,1.61,1.33,-0.84,20.46
139030,0.173728,-0.064904,1.0248,0.28,0.77,0.0,20.46
139042,0.171288,-0.078568,1.025288,-0.98,0.49,0.42,20.44
139054,0.164944,-0.088816,1.02724,-1.05,-0.49,0.7,20.44
139066,0.162016,-0.094672,1.029192,-0.42,-1.47,0.84,20.51
139077,0.16104,-0.095648,1.023824,0.63,-2.31,0.91,20.51
139089,0.16104,-0.09272,1.019432,1.47,-3.29,1.26,20.43
139100,0.161528,-0.092232,1.018944,1.89,-3.85,1.54,20.48
139112,0.160064,-0.083936,1.019432,1.33,-4.13,2.1,20.48
139123,0.157136,-0.096136,1.013088,1.12,-4.27,2.24,20.49
139135,0.159576,-0.098576,1.01016,1.47,-4.69,2.59,20.48
139147,0.15616,-0.100528,1.0126,1.33,-4.76,2.52,20.48
139159,0.155672,-0.103456,1.011624,1.12,-4.69,2.52,20.48
139171,0.157136,-0.103456,1.01016,1.19,-4.62,2.73,20.48
139182,0.160064,-0.110288,1.009672,0.77,-4.27,2.94,20.48
139194,0.156648,-0.120536,1.00528,0.98,-3.92,2.87,20.47
139206,0.15616,-0.118584,0.999912,1.47,-3.64,2.87,20.47
139218,0.157624,-0.118096,1.002352,1.4,-3.5,2.94,20.46
139229,0.156648,-0.116144,1.004792,1.05,-3.29,2.52,20.45
139241,0.157136,-0.115656,1.008696,0.07,-3.08,2.17,20.45
139253,0.152744,-0.123464,1.001864,0.63,-3.15,1.61,20.48
139264,0.14884,-0.115656,1.00284,0.56,-3.57,1.33,20.48
139276,0.154696,-0.118584,1.009184,0.28,-3.71,0.91,20.49
139288,0.154696,-0.11956,1.00772,0.49,-3.64,0.42,20.45
139299,0.155184,-0.11712,1.004304,1.12,-3.99,0.0,20.45
139311,0.154696,-0.115168,0.999912,1.54,-4.48,-0.35,20.45
139322,0.160552,-0.11224,0.998936,1.61,-4.34,-0.49,20.47
139334,0.159576,-0.108824,0.99796,1.82,-4.41,-0.56,20.47
139346,0.16104,-0.0976,1.0004,1.54,-4.27,-0.49,20.46
139358,0.169336,-0.101504,0.99552,0.84,-3.99,-0.56,20.46
139370,0.166408,-0.107848,0.990152,1.4,-3.57,-0.7,20.45
139382,0.16592,-0.106872,0.991616,2.1,-3.78,-0.63,20.46
139394,0.172264,-0.10004,0.993568,2.31,-3.43,-0.42,20.46
139406,0.17568,-0.086376,0.995032,1.33,-2.66,-0.21,20.49
139417,0.17568,-0.096624,0.996496,0.0,-1.96,0.0,20.44
139429,0.173728,-0.102968,0.998936,-0.35,-1.82,0.21,20.44
139440,0.1708,-0.109312,1.003816,0.14,-1.82,0.14,20.48
139452,0.169336,-0.110288,1.001376,1.12,-1.96,-0.14,20.48
139463,0.171776,-0.106872,0.998936,1.89,-1.96,-0.14,20.48
139475,0.169336,-0.099552,1.003816,1.68,-1.89,0.0,20.48
139486,0.16836,-0.09516,1.004304,1.33,-1.68,0.21,20.48
139498,0.171776,-0.096624,1.00528,0.49,-1.4,0.42,20.47
139509,0.16104,-0.100528,1.006256,0.56,-1.68,0.42,20.44
139521,0.162992,-0.105408,1.01016,1.19,-2.1,0.35,20.44
139532,0.162992,-0.096624,1.013088,1.75,-2.52,0.07,20.51
139544,0.163968,-0.090768,1.008208,1.12,-2.73,0.07,20.51
139556,0.160552,-0.101992,1.006744,0.98,-2.52,0.07,20.45
139568,0.15616,-0.096136,1.008208,1.26,-3.15,0.35,20.48
139579,0.16104,-0.098576,1.00528,1.4,-3.36,0.49,20.48
139591,0.164456,-0.098576,1.0004,1.54,-3.36,0.7,20.49
139602,0.162016,-0.10248,0.999912,1.75,-3.22,0.77,20.48
139614,0.160552,-0.100528,1.002352,1.75,-3.15,0.91,20.48
139625,0.159088,-0.101016,0.997472,1.4,-2.87,0.98,20.5
139637,0.16348,-0.106384,0.997472,1.33,-2.59,0.77,20.5
139648,0.1586,-0.111752,0.996496,1.4,-2.45,0.49,20.51
139660,0.157624,-0.113216,0.99796,1.54,-2.31,0.28,20.43
139671,0.161528,-0.110776,1.0004,1.54,-2.03,0.07,20.43
139683,0.161528,-0.11224,1.001864,1.33,-1.89,0.07,20.46
139695,0.160552,-0.11468,1.004304,1.33,-1.61,-0.14,20.46
139707,0.161528,-0.116632,1.00284,1.54,-1.54,-0.49,20.46
139719,0.160064,-0.114192,1.00528,1.96,-1.26,-0.63,20.48
139731,0.157624,-0.100528,1.010648,1.68,-1.33,-0.7,20.48
139742,0.162016,-0.101992,1.011624,0.35,-1.19,-0.77,20.44
139754,0.16104,-0.108336,1.009184,-0.14,-1.05,-0.98,20.5
139766,0.162992,-0.106384,1.012112,0.0,-1.19,-0.84,20.5
139777,0.161528,-0.106872,1.014064,-0.07,-1.12,-0.7,20.47
139789,0.1586,-0.113216,1.019432,0.56,-1.54,-0.77,20.48
139801,0.159576,-0.105408,1.02236,1.47,-2.1,-0.77,20.48
139813,0.164944,-0.101016,1.018944,1.54,-2.59,-0.84,20.5
139825,0.166896,-0.098576,1.011624,1.12,-2.52,-0.77,20.5
139837,0.169336,-0.094184,1.009184,0.49,-2.52,-0.56,20.46
139849,0.169336,-0.098576,1.01016,-0.21,-2.31,-0.42,20.47
139861,0.167872,-0.10736,1.009184,-0.07,-2.31,-0.63,20.47
139873,0.1708,-0.10248,1.005768,0.63,-2.66,-0.7,20.48
139885,0.172264,-0.104432,1.0004,0.98,-2.52,-0.56,20.47
139897,0.174216,-0.101992,1.0004,1.54,-2.24,-0.49,20.47
139909,0.172264,-0.086864,0.996008,0.91,-1.96,0.0,20.48
139921,0.17324,-0.089792,0.99552,-0.14,-1.4,0.21,20.46
139933,0.170312,-0.093696,1.00528,-0.63,-1.26,0.49,20.46
139944,0.169336,-0.101992,1.011624,-0.63,-1.19,0.42,20.46
139956,0.167872,-0.106384,1.012112,0.07,-1.61,0.28,20.43
139967,0.16348,-0.105896,1.007232,1.12,-2.17,0.14,20.43
139980,0.160064,-0.102968,1.001864,1.61,-2.38,0.49,20.48
139991,0.164456,-0.094672,1.004792,1.12,-2.59,0.77,20.48
140002,0.16836,-0.097112,1.006256,0.28,-2.45,0.91,20.48
140014,0.166408,-0.101504,1.010648,-0.63,-2.17,0.84,20.52
140026,0.164944,-0.112728,1.006744,0.21,-2.45,0.28,20.52
140038,0.162504,-0.11224,0.99796,1.05,-2.94,-0.21,20.48
140049,0.161528,-0.113216,1.00284,1.4,-3.22,-0.28,20.46
140061,0.162992,-0.10492,1.006256,0.84,-3.15,-0.21,20.46
140072,0.165432,-0.105408,1.007232,0.7,-3.22,-0.35,20.48
140083,0.162992,-0.101016,1.001864,0.7,-3.15,-0.63,20.48
140094,0.162992,-0.101992,1.001376,0.84,-3.15,-0.91,20.5
140106,0.159088,-0.108336,1.0004,1.68,-3.15,-1.05,20.47
140118,0.16348,-0.096624,1.010648,1.82,-3.5,-0.84,20.47
140130,0.16836,-0.093696,1.00284,2.24,-2.94,-0.7,20.49
140142,0.167384,-0.085888,1.004792,2.17,-2.94,0.07,20.49
140154,0.164944,-0.09028,1.000888,1.4,-2.52,0.56,20.48
140165,0.16348,-0.091744,1.00284,0.84,-2.31,1.4,20.47
140177,0.161528,-0.089304,1.004304,0.0,-2.17,1.82,20.47
140189,0.163968,-0.094184,1.006744,-0.28,-2.1,1.89,20.47
140201,0.164456,-0.105408,1.004304,0.0,-2.03,1.82,20.45
140213,0.16104,-0.108336,0.99796,0.7,-1.68,1.82,20.45
140226,0.160552,-0.103456,0.99796,0.7,-1.68,2.24,20.45
140238,0.161528,-0.103944,1.006256,-0.07,-1.54,2.31,20.53
140249,0.156648,-0.11468,1.005768,0.28,-1.47,1.89,20.53
140261,0.156648,-0.112728,1.00528,0.98,-1.82,1.33,20.47
140273,0.162016,-0.108824,1.00528,0.77,-2.03,1.05,20.47
140285,0.159576,-0.121024,1.003328,-0.42,-1.33,0.77,20.47
140297,0.154208,-0.127368,1.008696,0.63,-1.89,0.77,20.46
140308,0.1586,-0.111264,1.018456,1.47,-2.8,0.63,20.46
140320,0.159088,-0.118584,1.011624,1.54,-2.87,0.07,20.49
140332,0.156648,-0.111752,1.008696,1.47,-3.29,-0.28,20.5
140344,0.155672,-0.105408,1.001376,0.21,-3.64,-0.42,20.5
140355,0.157624,-0.119072,0.997472,0.21,-3.43,-0.77,20.48
140367,0.158112,-0.119072,0.999424,1.05,-3.29,-0.91,20.47
140379,0.156648,-0.110776,1.003328,1.19,-3.29,-1.05,20.47
140390,0.157624,-0.107848,1.004792,1.75,-3.29,-1.19,20.48
140402,0.158112,-0.0976,1.009672,1.4,-3.36,-0.98,20.48
140414,0.159576,-0.098576,1.007232,0.49,-2.94,-0.84,20.5
140425,0.160064,-0.105408,1.011136,0.0,-2.52,-0.77,20.41
140437,0.159088,-0.110288,1.014552,0.07,-2.31,-0.7,20.41
140449,0.159088,-0.1098,1.011624,0.28,-2.52,-0.42,20.48
140460,0.160064,-0.10736,1.011624,0.84,-2.73,-0.56,20.47
140471,0.16104,-0.111264,1.008696,1.05,-2.52,-0.91,20.47
140483,0.158112,-0.105408,1.01016,1.12,-2.52,-0.84,20.43
140494,0.159088,-0.101016,1.011136,0.0,-2.59,-0.63,20.43
140506,0.157624,-0.105896,1.018456,-0.49,-2.73,-0.77,20.47
140519,0.15616,-0.11468,1.01504,-0.56,-3.08,-0.7,20.48
140534,0.159088,-0.116144,1.016016,0.0,-3.64,-0.91,20.48
140546,0.16104,-0.114192,1.016504,0.77,-3.92,-1.19,20.44
140557,0.16348,-0.110776,1.011624,1.61,-4.06,-1.4,20.48
140568,0.160552,-0.106384,1.006256,0.91,-4.06,-1.26,20.48
140581,0.162992,-0.11224,1.00772,-0.07,-4.06,-1.26,20.51
140592,0.162504,-0.115168,1.001376,-0.35,-3.99,-1.4,20.43
140604,0.164456,-0.113216,0.998936,-0.21,-4.2,-1.61,20.43
140615,0.162992,-0.1098,0.998936,-0.35,-4.13,-1.54,20.46
140627,0.164456,-0.118096,0.998936,0.14,-3.78,-1.89,20.46
140638,0.16592,-0.115656,0.99308,1.61,-3.92,-1.75,20.46
140650,0.172752,-0.096624,0.994056,1.75,-3.64,-1.47,20.47
140662,0.174216,-0.090768,0.992592,0.42,-3.22,-1.19,20.47
140673,0.174704,-0.10492,0.991616,-0.7,-2.66,-1.12,20.49
140684,0.174704,-0.113216,0.989664,-0.42,-2.17,-1.19,20.47
140696,0.166896,-0.11468,0.996496,-0.21,-2.17,-0.98,20.47
140708,0.168848,-0.106872,1.003816,-0.28,-2.45,-0.91,20.49
140720,0.167872,-0.105896,1.003328,-0.14,-2.45,-0.98,20.49
140732,0.167872,-0.111752,1.003328,0.21,-2.24,-1.12,20.49
140743,0.169336,-0.109312,1.004304,0.49,-2.52,-1.05,20.46
140755,0.16836,-0.103456,1.003816,1.19,-2.66,-0.91,20.46
140766,0.16836,-0.091744,1.002352,0.77,-2.66,-0.63,20.47
140778,0.166896,-0.096136,1.00528,0.0,-2.73,-0.42,20.52
140789,0.167872,-0.104432,1.003328,-0.77,-2.94,-0.28,20.52
140800,0.168848,-0.11956,1.001376,0.14,-2.94,-0.56,20.47
140812,0.167872,-0.121024,1.004792,1.33,-3.22,-0.63,20.47
140823,0.169336,-0.103456,1.005768,1.05,-3.5,-0.42,20.46
140836,0.171288,-0.106384,1.001864,0.63,-3.5,-0.42,20.45
140847,0.172264,-0.106872,1.002352,-0.07,-3.43,-0.42,20.45
140859,0.167872,-0.120048,0.997472,0.07,-3.29,-0.7,20.46
140871,0.167872,-0.118584,0.997472,0.84,-3.5,-0.77,20.45
140882,0.17568,-0.105896,0.99796,0.91,-3.57,-0.63,20.45
140893,0.174704,-0.110288,1.0004,0.77,-3.22,-0.63,20.48
140904,0.171776,-0.105896,1.003816,0.7,-3.15,-0.56,20.48
140916,0.1708,-0.106872,1.001864,0.14,-3.15,-0.28,20.48
140928,0.169336,-0.114192,1.0004,0.28,-2.87,-0.35,20.51
140939,0.1708,-0.110288,1.000888,1.12,-3.15,-0.28,20.51
140951,0.1708,-0.105896,1.004304,1.26,-3.22,-0.14,20.47
140962,0.173728,-0.101992,1.006744,0.98,-3.01,-0.21,20.47
140974,0.167872,-0.106872,1.001864,0.49,-3.08,-0.07,20.41
140985,0.167872,-0.111752,1.00284,0.28,-3.29,0.0,20.46
140997,0.172264,-0.113704,1.002352,0.28,-3.22,0.0,20.46
141009,0.172264,-0.11468,1.001376,0.28,-3.15,-0.28,20.5
141020,0.169824,-0.122488,1.001376,0.98,-3.29,-0.56,20.5
141032,0.173728,-0.116632,0.998448,1.54,-3.36,-0.49,20.5
141044,0.17568,-0.109312,0.997472,1.05,-3.29,-0.56,20.5
141056,0.175192,-0.111752,0.999424,0.77,-2.87,-0.49,20.5
141067,0.1708,-0.11224,0.998448,0.7,-2.52,-0.49,20.5
141078,0.1708,-0.113216,0.998448,0.84,-2.59,-0.7,20.52
141090,0.169824,-0.108336,0.996496,1.47,-2.66,-0.91,20.52
141101,0.17568,-0.106384,0.996984,1.05,-2.59,-0.91,20.52
141113,0.173728,-0.10736,0.999424,0.63,-2.03,-0.84,20.45
141125,0.172264,-0.105896,1.003816,0.14,-1.75,-0.63,20.45
141136,0.170312,-0.106384,1.005768,0.0,-1.54,-0.42,20.49
141147,0.169824,-0.114192,1.004304,0.91,-1.33,-0.63,20.49
141159,0.16836,-0.111264,1.0004,1.75,-1.54,-0.84,20.5
141171,0.166896,-0.106872,0.994056,1.75,-1.47,-0.7,20.48
141183,0.172264,-0.098088,1.0004,0.77,-1.26,-0.42,20.48
141194,0.1708,-0.10004,1.004792,-0.7,-1.12,-0.14,20.46
141205,0.16836,-0.108336,1.010648,-1.12,-0.98,-0.21,20.46
141217,0.165432,-0.119072,1.00772,-0.21,-1.47,-0.42,20.46
141228,0.164944,-0.122,1.00528,1.05,-2.03,-0.56,20.51
141240,0.16836,-0.112728,1.014552,1.96,-2.52,-0.63,20.51
141251,0.16836,-0.101504,1.006744,1.82,-2.52,-0.42,20.46
141263,0.167384,-0.101992,1.006256,0.49,-2.31,-0.28,20.46
141275,0.16592,-0.11224,1.003816,-0.14,-2.52,-0.28,20.46
141287,0.167384,-0.113704,1.00528,0.0,-2.8,-0.14,20.5
141298,0.170312,-0.116632,1.002352,0.56,-2.8,-0.35,20.5
141310,0.1708,-0.119072,1.003328,1.12,-2.66,-0.49,20.53
141321,0.169336,-0.110776,0.998448,1.4,-2.59,-0.49,20.5
141333,0.169824,-0.110288,0.99308,0.91,-2.31,-0.63,20.5
141344,0.169336,-0.115656,0.991128,0.91,-2.24,-0.77,20.47
141356,0.169824,-0.111752,0.995032,0.35,-2.03,-0.84,20.48
141368,0.172752,-0.11468,0.996984,0.28,-1.96,-0.98,20.48
141379,0.171776,-0.11468,0.998448,0.91,-2.03,-1.4,20.49
141391,0.176168,-0.113704,1.0004,1.05,-1.96,-1.12,20.49
141403,0.171288,-0.1098,1.00528,0.84,-1.96,-0.98,20.54
141414,0.168848,-0.103944,1.00284,0.84,-2.1,-0.84,20.5
141426,0.171288,-0.105408,1.005768,0.77,-2.03,-0.84,20.5
141437,0.167872,-0.106384,1.006256,0.56,-2.17,-0.63,20.46
141449,0.169824,-0.106872,1.006744,0.77,-2.24,-0.49,20.49
141461,0.16348,-0.105896,1.008208,1.47,-2.59,-0.35,20.49
141473,0.169824,-0.10004,1.006256,1.05,-2.66,-0.14,20.49
141484,0.171288,-0.108336,1.006744,0.7,-2.59,0.0,20.49
141495,0.166896,-0.116632,1.006744,1.26,-2.66,-0.14,20.5
141507,0.16836,-0.107848,1.004792,1.26,-2.87,-0.07,20.46
141518,0.170312,-0.109312,1.001864,1.19,-2.94,0.07,20.46
141530,0.171776,-0.11468,1.003328,1.05,-2.8,-0.07,20.51
141541,0.168848,-0.113216,1.001864,1.33,-2.66,0.0,20.51
141553,0.173728,-0.112728,1.000888,1.05,-2.59,-0.14,20.46
141564,0.169336,-0.115656,1.002352,0.91,-2.52,-0.35,20.44
141575,0.169824,-0.120048,1.001376,1.54,-2.59,-0.42,20.44
141587,0.168848,-0.110776,1.001376,0.91,-2.59,-0.28,20.5
141600,0.17324,-0.11468,0.999912,0.42,-2.1,-0.42,20.45
141614,0.168848,-0.116144,1.003328,0.7,-2.03,-0.49,20.45
141628,0.169824,-0.113216,1.003328,1.19,-2.24,-0.63,20.49
141641,0.169824,-0.107848,1.003816,1.26,-2.1,-0.56,20.48
141653,0.168848,-0.105896,1.003328,0.91,-2.03,-0.63,20.48
141664,0.169336,-0.101992,1.003816,0.49,-1.89,-0.28,20.48
141676,0.167384,-0.104432,1.009184,0.0,-1.82,0.0,20.44
141687,0.166896,-0.11224,1.008696,0.49,-1.96,0.07,20.44
141699,0.167384,-0.109312,1.012112,0.98,-2.24,0.14,20.52
141711,0.168848,-0.10736,1.009672,0.91,-2.31,0.21,20.46
141723,0.166408,-0.108336,1.013088,0.63,-2.52,0.28,20.46
141734,0.167872,-0.11224,1.011136,0.63,-2.59,0.0,20.49
141745,0.169824,-0.113704,1.00528,0.7,-2.8,0.0,20.49
141757,0.169336,-0.116144,1.001864,0.7,-2.94,-0.28,20.52
141768,0.167384,-0.11956,1.001864,0.98,-2.8,-0.35,20.46
141780,0.169824,-0.11224,1.005768,0.98,-3.01,-0.21,20.46
141791,0.171776,-0.106872,1.006256,0.28,-2.73,0.0,20.47
141803,0.169336,-0.111752,1.001864,-0.07,-2.59,-0.21,20.46
141815,0.164456,-0.124928,0.999912,0.98,-2.87,-0.77,20.46
141826,0.16592,-0.112728,0.99796,1.75,-3.43,-0.98,20.51
141838,0.170312,-0.103456,0.998448,1.33,-3.08,-0.98,20.51
141849,0.172264,-0.111752,0.996008,1.05,-2.73,-0.91,20.48
141861,0.169824,-0.103944,0.995032,0.7,-2.52,-0.63,20.48
141872,0.171288,-0.107848,0.996984,0.42,-2.52,-0.56,20.48
141884,0.169336,-0.112728,0.996496,0.7,-2.31,-0.63,20.5
141896,0.163968,-0.11224,0.996984,1.4,-2.38,-0.63,20.5
141907,0.164456,-0.101504,0.998448,1.33,-2.31,-0.42,20.44
141918,0.16836,-0.106872,1.002352,0.91,-2.1,-0.42,20.48
141931,0.167384,-0.109312,1.000888,0.91,-2.03,-0.42,20.48
141942,0.165432,-0.111264,1.001864,1.05,-2.1,-0.28,20.5
141954,0.166896,-0.108824,1.001376,1.05,-2.17,-0.35,20.5
141965,0.168848,-0.112728,1.004304,0.63,-1.96,-0.35,20.5
141977,0.16836,-0.11956,1.004792,1.05,-2.31,-0.56,20.46
141989,0.167384,-0.113704,1.008208,1.12,-2.52,-0.49,20.46
142000,0.170312,-0.117608,1.009672,1.12,-2.73,-0.63,20.49
142012,0.1708,-0.115168,1.007232,1.33,-2.8,-0.63,20.5
142023,0.171288,-0.111752,1.003816,1.26,-2.73,-0.77,20.5
142035,0.17324,-0.114192,1.00528,1.19,-2.66,-0.7,20.48
142046,0.1708,-0.105896,1.00528,0.91,-2.8,-0.77,20.43
142058,0.169824,-0.112728,1.003328,0.63,-2.87,-0.91,20.43
142069,0.169336,-0.116144,0.998936,0.63,-2.94,-0.77,20.45
142081,0.1708,-0.11224,0.998448,0.91,-2.87,-0.84,20.45
142092,0.172752,-0.1098,1.001376,1.19,-2.73,-0.84,20.52
142104,0.177144,-0.105896,1.000888,1.12,-2.66,-0.7,20.4
142115,0.173728,-0.105408,1.001864,1.05,-2.66,-0.49,20.4
142126,0.175192,-0.101016,0.998448,0.84,-2.52,-0.21,20.5
142137,0.174216,-0.105408,0.99796,0.77,-2.38,-0.21,20.5
142148,0.172264,-0.103456,1.001864,1.12,-2.31,-0.14,20.52
142159,0.169824,-0.10248,1.004304,1.19,-2.31,-0.07,20.48
142170,0.169824,-0.103456,1.005768,1.12,-2.45,0.0,20.48
142181,0.168848,-0.101992,1.009184,1.05,-2.87,0.07,20.52
142192,0.169824,-0.105408,1.009672,0.77,-3.08,0.07,20.52
142203,0.1708,-0.111264,1.008696,0.91,-3.22,0.14,20.49
142214,0.169336,-0.109312,1.007232,1.54,-3.36,0.28,20.48
142225,0.169336,-0.106872,1.006744,1.68,-3.5,0.35,20.48
142236,0.171776,-0.108824,1.008696,1.4,-3.57,0.56,20.49
142247,0.1708,-0.111264,1.006744,1.12,-3.57,0.56,20.49
142258,0.169336,-0.116144,1.002352,1.4,-3.5,0.63,20.45
142269,0.170312,-0.119072,0.999424,1.68,-3.64,0.42,20.45
142280,0.1708,-0.116632,1.007232,1.54,-3.43,0.35,20.5
142291,0.170312,-0.110776,1.010648,1.12,-3.36,0.28,20.45
142302,0.16836,-0.113216,1.008208,0.49,-3.22,0.28,20.45
142313,0.167384,-0.121024,1.000888,0.49,-3.08,0.07,20.51
142324,0.166408,-0.123952,0.996496,1.05,-3.08,-0.28,20.51
142335,0.16592,-0.122976,0.99796,1.68,-3.15,-0.56,20.53
142346,0.166896,-0.118584,0.993568,2.03,-3.01,-0.56,20.48
142357,0.168848,-0.110288,0.99552,1.61,-3.01,-0.49,20.48
142368,0.172264,-0.110776,0.995032,0.91,-2.73,-0.56,20.47
142379,0.172752,-0.110776,0.991616,0.35,-2.24,-0.84,20.47
142390,0.17324,-0.11956,0.993568,0.77,-2.1,-1.26,20.48
142401,0.17324,-0.117608,0.992104,1.05,-1.89,-1.47,20.51
142413,0.174704,-0.106384,0.992592,1.33,-1.82,-1.33,20.51
142424,0.17324,-0.104432,0.996496,0.77,-1.47,-1.26,20.46
142435,0.173728,-0.109312,0.995032,0.63,-1.26,-1.12,20.46
142446,0.1708,-0.101992,0.996496,0.91,-1.33,-0.84,20.51
142457,0.1708,-0.10004,1.003328,0.98,-1.68,-0.49,20.48
142468,0.171288,-0.095648,1.008208,0.91,-1.82,-0.35,20.48
142479,0.16836,-0.101016,1.013576,0.77,-1.61,-0.49,20.49
142490,0.163968,-0.10248,1.016992,1.26,-2.03,-0.49,20.49
142501,0.170312,-0.104432,1.013088,1.05,-2.31,-0.42,20.46
142512,0.174216,-0.1098,1.013088,1.19,-2.38,-0.56,20.48
142523,0.167872,-0.101504,1.01016,1.61,-2.73,-0.42,20.48
142534,0.1708,-0.101504,1.012112,1.54,-3.15,-0.28,20.51
142545,0.168848,-0.107848,1.009672,1.4,-3.5,-0.14,20.51
142556,0.172264,-0.105896,1.006256,1.47,-3.57,-0.07,20.47
142567,0.17324,-0.110776,1.001376,1.54,-3.57,-0.14,20.47
142578,0.171288,-0.105896,1.005768,1.54,-3.57,-0.14,20.47
142589,0.169824,-0.103456,1.00772,0.84,-3.29,-0.14,20.46
142600,0.171288,-0.11712,1.00284,0.7,-3.22,-0.35,20.46
142611,0.171288,-0.121512,0.998936,1.4,-3.36,-0.49,20.47
142623,0.172264,-0.115656,0.999912,1.68,-3.29,-0.63,20.47
142634,0.176656,-0.110288,1.00284,1.4,-2.73,-0.7,20.46
142644,0.174704,-0.105896,1.009184,0.77,-2.24,-0.42,20.44
142655,0.175192,-0.111264,1.006744,-0.07,-1.96,-0.28,20.44
142666,0.168848,-0.116632,1.008208,-0.14,-2.17,-0.21,20.49
142678,0.169824,-0.118096,1.008696,0.63,-2.38,-0.56,20.49
142688,0.167384,-0.11956,1.008208,1.4,-2.66,-0.77,20.48
142699,0.16836,-0.110776,1.004792,1.82,-2.59,-0.77,20.46
142711,0.171288,-0.10248,1.006744,1.05,-2.45,-0.7,20.46
142722,0.174704,-0.102968,1.003328,0.0,-2.24,-0.63,20.51
142733,0.176168,-0.11224,1.0004,-0.28,-2.1,-0.56,20.51
142745,0.17324,-0.11956,0.998936,0.49,-2.31,-0.77,20.44
142756,0.177632,-0.113704,1.00284,1.12,-2.73,-0.77,20.49
142768,0.181536,-0.10492,1.000888,1.19,-2.59,-0.7,20.49
142780,0.179096,-0.106872,0.996984,0.98,-2.17,-0.56,20.45
142791,0.179096,-0.105408,0.99796,0.49,-2.17,-0.28,20.45
142802,0.179096,-0.109312,0.999424,0.14,-2.03,-0.28,20.5
142812,0.17812,-0.1098,0.999424,0.35,-1.96,-0.56,20.47
142824,0.172752,-0.109312,0.996984,0.91,-2.45,-0.7,20.47
142835,0.176168,-0.105408,0.992592,1.26,-2.73,-1.05,20.52
142846,0.18056,-0.105408,0.992592,1.4,-2.8,-0.84,20.52
142857,0.181536,-0.095648,0.995032,1.12,-2.66,-0.56,20.5
142868,0.184952,-0.094184,1.001376,0.21,-2.31,-0.28,20.51
142880,0.176168,-0.103944,1.001376,0.07,-2.1,0.0,20.51
142890,0.171288,-0.106384,1.0004,0.77,-2.31,0.07,20.54
142901,0.16836,-0.108336,1.000888,1.96,-2.87,0.07,20.54
142912,0.1708,-0.101016,1.003816,2.38,-3.01,0.07,20.49
142923,0.174704,-0.099552,1.003816,2.1,-3.08,0.21,20.46
142934,0.17324,-0.093208,1.006256,1.26,-3.22,0.21,20.46
142945,0.176656,-0.101504,1.001864,0.7,-2.8,0.35,20.46
142956,0.17324,-0.106384,0.999912,0.91,-2.8,0.35,20.46
142967,0.1708,-0.108336,1.00284,1.26,-2.87,0.56,20.5
142979,0.169824,-0.110776,1.006256,1.68,-3.08,0.56,20.48
142992,0.171288,-0.108336,1.00528,2.1,-3.01,0.49,20.48
143003,0.174216,-0.1098,0.997472,2.1,-2.8,0.49,20.5
143014,0.175192,-0.108336,0.998448,1.19,-2.45,0.56,20.5
143025,0.17568,-0.11224,1.001376,0.63,-2.17,0.56,20.46
143036,0.176168,-0.113704,1.005768,0.42,-1.82,0.35,20.46
143047,0.17324,-0.11468,1.004304,0.42,-1.61,0.21,20.46
143058,0.172264,-0.122976,1.00528,1.05,-1.89,0.0,20.52
143069,0.172264,-0.120048,1.006744,1.4,-1.89,0.0,20.52
143080,0.174216,-0.112728,1.008696,1.05,-2.1,-0.07,20.46
143091,0.174704,-0.105896,1.008696,0.21,-1.68,0.0,20.49
143102,0.174704,-0.108336,1.009672,-0.42,-1.19,-0.07,20.49
143114,0.168848,-0.11712,1.01016,0.07,-1.4,-0.07,20.46
143124,0.165432,-0.114192,1.009184,0.84,-1.89,-0.28,20.46
143135,0.169336,-0.110776,1.009184,1.12,-2.17,-0.28,20.5
143146,0.171776,-0.10736,1.013576,1.05,-2.24,-0.21,20.5
143157,0.171776,-0.106872,1.011136,0.7,-2.52,-0.14,20.5
143168,0.172264,-0.103944,1.00772,0.28,-2.52,-0.21,20.49
143179,0.172752,-0.105408,1.007232,-0.07,-2.59,-0.07,20.49
143190,0.166896,-0.109312,1.009672,0.0,-2.73,-0.21,20.54
143202,0.164456,-0.112728,1.006744,0.7,-3.15,-0.07,20.54
143212,0.166896,-0.109312,1.004792,1.33,-3.5,-0.07,20.52
143223,0.169336,-0.107848,1.003328,1.47,-3.43,-0.07,20.5
143234,0.168848,-0.111264,0.999424,1.12,-3.36,-0.21,20.5
143245,0.169824,-0.100528,0.998936,0.7,-3.43,0.07,20.53
143256,0.172264,-0.107848,0.996008,0.21,-2.94,0.07,20.53
143267,0.173728,-0.110776,0.998448,0.28,-2.94,0.14,20.49
143278,0.170312,-0.11468,0.999912,0.56,-2.73,-0.07,20.48
143289,0.1708,-0.112728,0.996008,1.12,-2.8,-0.07,20.48
143300,0.172752,-0.110288,0.991128,0.91,-2.59,-0.14,20.51
143311,0.17324,-0.117608,0.987224,0.7,-2.24,-0.21,20.51
143322,0.170312,-0.115656,0.991616,0.63,-2.03,-0.42,20.5
143333,0.169824,-0.110776,0.990152,0.35,-1.82,-0.42,20.48
143344,0.16592,-0.117608,0.99308,0.14,-1.68,-0.77,20.48
143355,0.170312,-0.11224,0.994544,0.98,-1.82,-0.77,20.52
143367,0.169824,-0.11468,0.992104,1.54,-1.96,-0.91,20.52
143378,0.1708,-0.114192,0.9882,1.96,-2.1,-0.98,20.5
143389,0.175192,-0.108824,0.986736,1.96,-1.96,-1.05,20.5
143400,0.17568,-0.101016,0.991616,1.75,-1.82,-1.05,20.49
143411,0.177144,-0.101016,0.997472,1.19,-1.4,-0.98,20.5
143422,0.17568,-0.108336,0.997472,1.05,-1.26,-1.12,20.5
143433,0.17324,-0.1098,0.996008,1.33,-1.47,-1.19,20.52
143444,0.174216,-0.10736,0.999424,1.68,-1.47,-1.47,20.52
143455,0.176168,-0.103456,1.006256,2.1,-1.61,-1.33,20.54
143466,0.176656,-0.094184,1.007232,1.61,-1.47,-1.12,20.5
143477,0.177144,-0.094672,1.013576,0.98,-1.47,-0.63,20.5
143488,0.174704,-0.097112,1.013576,0.77,-1.19,-0.21,20.47
143500,0.169336,-0.0976,1.016504,1.05,-1.47,0.14,20.47
143513,0.174704,-0.098088,1.022848,0.77,-1.75,0.42,20.5
143524,0.1708,-0.10248,1.026752,0.91,-2.03,0.35,20.51
143535,0.168848,-0.102968,1.022848,0.77,-2.24,0.49,20.51
143546,0.171288,-0.106872,1.020896,0.56,-2.45,0.63,20.5
143557,0.170312,-0.111264,1.01748,0.63,-2.59,0.7,20.52
143568,0.166896,-0.1098,1.016992,0.84,-2.94,0.56,20.52
143579,0.168848,-0.110288,1.014552,0.91,-3.36,0.63,20.5
143590,0.168848,-0.113216,1.00772,0.84,-3.43,0.42,20.5
143601,0.172264,-0.108336,1.006256,0.91,-3.64,0.28,20.48
143612,0.171288,-0.108336,1.004792,0.7,-3.64,0.21,20.48
143623,0.167872,-0.106384,1.006256,0.56,-3.5,0.07,20.48
143634,0.169824,-0.110288,0.998936,1.05,-3.5,-0.07,20.5
143645,0.167384,-0.10492,0.99796,1.12,-3.71,0.14,20.5
143656,0.170312,-0.106872,0.996496,0.91,-3.64,0.28,20.5
143667,0.170312,-0.109312,0.999424,0.77,-3.5,0.28,20.5
143678,0.172264,-0.106384,0.999424,0.7,-3.29,0.42,20.47
143689,0.170312,-0.110776,0.998936,0.63,-3.08,0.42,20.48
143701,0.16836,-0.113704,0.994056,0.91,-2.94,0.49,20.48
143711,0.167872,-0.115168,0.991616,1.4,-2.87,0.35,20.53
143722,0.169336,-0.113704,0.993568,1.54,-2.94,0.56,20.53
143733,0.171776,-0.109312,0.996984,1.12,-2.8,0.42,20.46
143744,0.172752,-0.1098,1.000888,0.28,-2.45,0.49,20.48
143755,0.168848,-0.11468,0.996008,0.14,-1.89,0.35,20.48
143766,0.16592,-0.124928,0.994544,0.63,-1.89,0.0,20.53
143777,0.16836,-0.122976,0.996496,1.12,-1.96,-0.07,20.53
143788,0.169336,-0.120536,0.996984,1.68,-1.89,-0.14,20.48
143799,0.170312,-0.11712,1.002352,2.03,-1.82,-0.42,20.48
143810,0.172752,-0.10736,1.001376,1.05,-1.89,-0.42,20.5
143821,0.172264,-0.11224,1.00284,0.07,-1.61,-0.84,20.5
143833,0.167384,-0.118096,1.003816,0.07,-1.47,-1.12,20.5
143844,0.161528,-0.116144,1.004792,0.42,-1.96,-1.26,20.49
143855,0.167384,-0.111264,1.00772,0.84,-2.17,-1.26,20.49
143866,0.1708,-0.11224,1.00772,1.12,-2.24,-1.33,20.48
143877,0.171288,-0.106872,1.006744,1.12,-2.38,-1.26,20.49
143888,0.173728,-0.104432,0.998936,1.19,-2.1,-1.26,20.49
143899,0.172264,-0.101992,0.99552,1.33,-2.17,-1.19,20.49
143910,0.171776,-0.099552,1.007232,1.54,-2.31,-1.12,20.49
143921,0.171776,-0.09272,1.009672,1.05,-2.73,-1.12,20.53
143932,0.173728,-0.096136,1.006744,0.42,-2.66,-1.05,20.46
143943,0.169336,-0.10736,1.006256,0.42,-2.94,-1.19,20.46
143954,0.170312,-0.106384,1.006256,1.05,-3.22,-1.12,20.51
143965,0.172264,-0.101992,1.003816,1.61,-3.22,-0.98,20.51
143976,0.173728,-0.094672,1.005768,1.4,-3.22,-0.63,20.5
143987,0.174216,-0.096624,1.006744,0.98,-3.08,-0.49,20.48
143998,0.1708,-0.10248,1.002352,0.84,-2.94,-0.28,20.48
144009,0.175192,-0.10492,1.001864,0.91,-2.94,-0.07,20.47
144020,0.17568,-0.10736,1.00284,0.98,-2.87,0.07,20.47
144031,0.173728,-0.11224,1.004792,1.12,-2.87,0.14,20.52
144042,0.177632,-0.110776,0.996008,0.84,-2.45,0.28,20.52
144053,0.176656,-0.11712,0.99796,0.98,-2.1,0.21,20.49
144064,0.174216,-0.114192,1.002352,0.42,-2.03,0.21,20.5
144075,0.17568,-0.112728,1.004792,0.28,-1.96,-0.21,20.5
144086,0.176656,-0.116632,0.998936,0.42,-2.24,-0.49,20.52
144097,0.177632,-0.119072,1.00284,0.84,-2.52,-1.05,20.52
144108,0.172752,-0.115168,1.000888,1.33,-2.73,-1.33,20.48
144119,0.169336,-0.111264,1.0004,1.47,-2.94,-1.26,20.47
144130,0.172752,-0.10736,0.998936,1.47,-2.94,-1.05,20.47
144141,0.169824,-0.101504,1.0004,1.4,-3.01,-0.84,20.49
144152,0.172752,-0.104432,0.994056,1.61,-2.87,-0.63,20.49
144163,0.176656,-0.104432,0.996984,1.89,-2.94,-0.63,20.5
144174,0.178608,-0.098088,0.996984,1.61,-2.94,-0.49,20.46
144185,0.182024,-0.10004,0.99552,1.12,-2.66,-0.42,20.46
144196,0.179096,-0.101992,0.996984,0.7,-2.24,-0.28,20.52
144207,0.175192,-0.107848,0.996496,0.7,-2.31,-0.28,20.52
144218,0.176168,-0.112728,1.004304,1.47,-2.17,-0.35,20.5
144229,0.17324,-0.102968,1.00284,1.75,-2.52,-0.28,20.52
144240,0.173728,-0.10492,1.00284,1.75,-2.52,-0.28,20.52
144251,0.176168,-0.103944,1.00772,1.54,-2.45,-0.14,20.51
144262,0.174704,-0.101504,1.008208,0.84,-2.17,0.14,20.51
144273,0.175192,-0.10736,1.010648,0.49,-1.96,0.28,20.47
144284,0.169336,-0.110776,1.009184,0.63,-2.03,0.28,20.47
144295,0.174704,-0.116632,1.005768,1.12,-2.1,0.07,20.46
144306,0.173728,-0.11468,1.000888,1.19,-2.1,0.07,20.49
144317,0.17812,-0.119072,1.003328,1.26,-1.96,0.0,20.49
144328,0.176656,-0.111264,1.003816,1.19,-1.75,0.14,20.5
144339,0.17568,-0.102968,1.004792,0.56,-1.61,0.21,20.5
144350,0.169824,-0.107848,1.00772,0.49,-1.54,0.21,20.51
144361,0.169336,-0.105896,1.00772,0.91,-1.82,0.14,20.53
144372,0.174704,-0.101504,1.01016,0.77,-2.1,0.42,20.53
144382,0.177632,-0.102968,1.011136,0.14,-1.68,0.63,20.49
144393,0.17568,-0.106872,1.010648,-0.14,-1.4,0.63,20.49
144404,0.174216,-0.107848,1.0126,-0.07,-1.47,0.84,20.5
144415,0.170312,-0.1098,1.01016,0.21,-1.61,0.7,20.5
144426,0.169336,-0.106872,1.011624,0.21,-1.75,0.77,20.46
144437,0.166896,-0.111264,1.00528,0.56,-2.03,0.56,20.53
144448,0.166896,-0.108336,1.005768,0.63,-2.52,0.56,20.53
144459,0.167872,-0.106872,1.003816,0.56,-2.73,0.35,20.53
144470,0.166896,-0.105896,1.004304,0.21,-2.8,0.28,20.53
144481,0.168848,-0.10736,1.003816,0.07,-2.87,0.21,20.51
144492,0.166408,-0.1098,1.003816,0.63,-2.73,0.21,20.5
144503,0.166408,-0.105408,0.999912,1.05,-2.8,0.21,20.5
144513,0.172752,-0.105896,0.996008,1.12,-2.66,0.28,20.53
144524,0.17324,-0.108824,0.989664,1.12,-2.24,0.42,20.53
144535,0.173728,-0.101504,0.995032,0.42,-1.89,0.84,20.48
144546,0.173728,-0.105896,1.001376,-0.63,-1.4,0.77,20.5
144557,0.170312,-0.110288,1.004792,-0.84,-1.12,0.63,20.5
144568,0.167384,-0.11956,1.002352,-0.77,-0.98,0.42,20.47
144579,0.169336,-0.126392,1.006256,0.28,-1.19,-17.92,20.47
144590,0.166896,-0.11956,1.00528,1.19,-1.26,-0.21,20.52
144601,0.166896,-0.107848,1.00528,0.98,-1.26,0.0,20.52
144612,0.168848,-0.10248,1.007232,0.35,-1.26,0.21,20.52
144623,0.169824,-0.100528,1.00772,-0.49,-1.26,0.35,20.52
144634,0.165432,-0.111752,1.00772,-0.49,-1.26,0.35,20.52
144645,0.164456,-0.11224,1.01504,-0.14,-1.82,0.14,20.52
144656,0.166896,-0.113704,1.011136,0.49,-2.31,0.14,20.52
144667,0.166896,-0.109312,1.009672,1.26,-2.73,0.07,20.52
144678,0.16592,-0.102968,1.00528,1.26,-3.08,0.07,20.51
144689,0.167384,-0.102968,1.0004,0.84,-3.29,0.14,20.51
144700,0.16592,-0.103456,0.999912,0.21,-3.43,0.28,20.5
144711,0.169824,-0.108824,1.00284,0.42,-3.57,0.21,20.5
144722,0.168848,-0.111264,0.998448,0.98,-3.64,0.07,20.52
144733,0.170312,-0.112728,0.994544,1.54,-3.64,0.07,20.48
144744,0.173728,-0.111752,0.994544,1.82,-3.71,0.21,20.48
144755,0.173728,-0.104432,0.996496,1.47,-3.64,0.49,20.51
144766,0.172752,-0.10248,0.99552,0.63,-3.22,0.49,20.51
144777,0.164456,-0.109312,0.99552,0.28,-2.94,0.49,20.52
144788,0.166408,-0.116632,0.996008,0.56,-3.01,0.14,20.52
144799,0.16592,-0.118584,0.998448,1.33,-3.36,0.0,20.51
144810,0.174216,-0.11468,0.992592,1.89,-3.22,-0.07,20.51
144821,0.172264,-0.112728,0.995032,2.24,-3.08,0.0,20.51
144832,0.168848,-0.104432,0.996008,1.68,-2.87,0.21,20.49
144843,0.166896,-0.10736,0.999912,1.12,-2.73,0.21,20.49
144854,0.165432,-0.108336,1.001864,0.77,-2.52,0.21,20.52
144865,0.163968,-0.112728,1.001864,0.98,-2.38,0.0,20.5
144876,0.161528,-0.113704,0.999424,1.26,-2.52,0.0,20.5
144887,0.166896,-0.115168,0.996984,1.54,-2.24,-0.14,20.51
144898,0.166408,-0.11224,0.996496,1.54,-2.1,-0.07,20.51
144909,0.16592,-0.110288,0.996984,1.4,-1.75,0.07,20.52
144920,0.170312,-0.11224,0.99796,0.98,-1.47,0.07,20.48
144932,0.166896,-0.118096,0.997472,0.91,-0.98,-0.07,20.48
144944,0.168848,-0.121024,0.997472,0.91,-0.98,-0.21,20.53
144955,0.172264,-0.120048,1.00284,0.84,-0.77,-0.42,20.53
144967,0.171288,-0.120536,1.000888,0.77,-0.56,-0.49,20.48
144978,0.16836,-0.11468,1.002352,0.63,-0.49,-0.63,20.51
144989,0.168848,-0.116632,1.004304,0.21,-0.42,-0.77,20.51
145001,0.166896,-0.11712,1.011136,0.42,-0.7,-0.84,20.49
145013,0.162992,-0.111752,1.014552,0.77,-1.26,-1.12,20.54
145024,0.165432,-0.111264,1.017968,0.98,-1.82,-1.19,20.54
145035,0.165432,-0.110288,1.016016,1.05,-2.03,-1.4,20.52
145047,0.164944,-0.104432,1.01748,1.33,-2.66,-1.4,20.52
145059,0.166896,-0.103456,1.015528,1.26,-3.08,-1.19,20.54
145070,0.167384,-0.103456,1.006744,1.47,-3.5,-1.26,20.52
145082,0.170312,-0.0976,1.007232,1.54,-3.71,-0.98,20.52
145093,0.174704,-0.098088,1.00528,1.12,-3.64,-0.63,20.53
145104,0.173728,-0.101016,1.009184,0.7,-3.22,-0.56,20.53
145115,0.172752,-0.105896,1.002352,0.91,-3.15,-0.35,20.53
145127,0.17324,-0.105896,0.998936,0.84,-2.87,-0.21,20.5
145138,0.170312,-0.109312,1.001864,0.98,-2.73,-0.07,20.5
145149,0.169824,-0.1098,1.005768,0.98,-2.59,0.14,20.53
145161,0.171776,-0.109312,1.004792,0.56,-2.59,0.21,20.53
145172,0.1708,-0.115168,1.0004,0.77,-2.31,0.14,20.5
145183,0.166896,-0.111264,1.008696,0.7,-2.45,0.14,20.46
145195,0.1708,-0.114192,1.010648,0.35,-2.45,0.07,20.46
145206,0.169824,-0.118096,1.011136,0.28,-2.38,-0.14,20.53
145218,0.167384,-0.122,1.006744,0.42,-2.52,-0.21,20.53
145229,0.169336,-0.121024,1.004304,1.05,-2.73,-0.42,20.52
145241,0.169824,-0.11712,1.0004,1.26,-2.94,-0.56,20.48
145252,0.174704,-0.1098,1.000888,0.91,-2.73,-0.49,20.48
145263,0.173728,-0.111264,1.003328,0.35,-2.66,-0.42,20.52
145275,0.1708,-0.113704,1.000888,0.07,-2.52,-0.49,20.48
145286,0.170312,-0.11712,0.99064,0.77,-2.45,-0.77,20.48
145298,0.167384,-0.111264,0.988688,1.4,-2.66,-0.98,20.47
145309,0.16836,-0.107848,0.991616,1.33,-2.52,-0.91,20.47
145321,0.167872,-0.10248,0.994544,1.05,-2.24,-0.56,20.48
145333,0.172264,-0.097112,1.122888,0.35,-1.82,-0.07,20.54
145344,0.171288,-0.10004,1.003328,-0.21,-1.54,0.14,20.54
145356,0.166408,-0.108824,1.003816,0.28,-1.61,0.07,20.52
145367,0.162992,-0.11468,1.001864,1.26,-2.17,-0.07,20.54
145379,0.16836,-0.116632,0.996984,2.17,-2.31,-0.14,20.54
145391,0.171288,-0.103456,1.001376,1.54,-2.03,0.07,20.49
145402,0.172752,-0.10492,1.005768,0.49,-1.54,0.21,20.49
145413,0.16836,-0.113216,1.008696,0.42,-1.82,0.21,20.53
145425,0.170312,-0.114192,1.006256,0.49,-2.31,0.0,20.49
145436,0.170312,-0.120536,1.00284,1.12,-2.52,-0.56,20.49
145447,0.16836,-0.115168,1.003816,1.54,-2.73,-0.63,20.5
145459,0.166896,-0.106384,1.003816,1.05,-2.73,-0.42,20.5
145470,0.171288,-0.10736,1.003328,0.84,-2.59,-0.28,20.52
145482,0.16836,-0.107848,0.996496,1.12,-2.59,-0.42,20.48
145493,0.164944,-0.111264,1.000888,1.4,-2.87,-0.49,20.48
145505,0.167872,-0.11224,1.001376,2.03,-2.94,-0.63,20.47
145516,0.164944,-0.106872,0.998936,2.1,-3.01,-0.63,20.47
145527,0.166896,-0.101992,1.001376,1.4,-2.66,-0.21,20.49
145539,0.167872,-0.110776,1.003816,1.12,-2.38,-0.14,20.48
145550,0.166408,-0.111264,1.004304,1.68,-2.24,-0.28,20.48
145561,0.169824,-0.101992,1.001864,1.12,-2.45,-0.07,20.52
145574,0.169336,-0.116144,1.004304,0.7,-2.17,-0.35,20.46
145585,0.166896,-0.113216,1.009184,0.56,-2.24,-0.42,20.46
145596,0.167384,-0.115168,1.006744,0.98,-2.17,-0.42,20.51
145608,0.166896,-0.115656,1.000888,1.19,-2.24,-0.21,20.51
145619,0.170312,-0.111752,1.01016,1.05,-2.17,-0.28,20.51
145631,0.16348,-0.109312,1.009184,1.19,-2.45,-0.35,20.54
145642,0.167384,-0.109312,1.008696,0.91,-2.66,-0.35,20.54
145653,0.166896,-0.120536,1.007232,0.91,-2.73,-0.49,20.5
145665,0.16592,-0.11468,1.008696,1.26,-2.94,-0.49,20.5
145676,0.174704,-0.113216,1.009672,0.84,-2.66,-0.42,20.55
145687,0.170312,-0.112728,1.006256,0.49,-2.45,-0.42,20.55
145699,0.16836,-0.112728,1.002352,0.91,-2.66,-0.49,20.55
145710,0.166408,-0.112728,0.99796,1.54,-2.8,-0.63,20.5
145722,0.169824,-0.110288,0.994544,1.47,-2.87,-0.7,20.5
145733,0.171776,-0.103944,0.999912,1.19,-2.8,-0.7,20.48
145744,0.175192,-0.103944,0.997472,0.77,-2.8,-0.63,20.5
145756,0.174704,-0.106384,0.998936,0.49,-2.59,-0.56,20.5
145767,0.171776,-0.103944,1.00284,0.63,-2.66,-0.49,20.52
145779,0.170312,-0.109312,0.999912,1.26,-2.52,-0.35,20.48
145791,0.169824,-0.104432,0.99552,1.96,-2.66,-0.28,20.48
145802,0.170312,-0.098088,0.997472,1.47,-2.45,0.07,20.48
145814,0.16836,-0.106872,0.999912,0.77,-2.17,0.14,20.48
145825,0.167384,-0.10736,1.003816,0.56,-2.1,0.14,20.52
145837,0.166896,-0.108824,1.003816,0.56,-2.1,0.07,20.52
145848,0.16592,-0.114192,1.004792,1.19,-2.31,-0.14,20.52
145860,0.162504,-0.115168,1.003328,1.75,-2.73,-0.28,20.51
145871,0.165432,-0.111264,0.874496,1.89,-2.73,-0.28,20.47
145883,0.16836,-0.105896,0.998448,1.4,-2.59,-0.35,20.47
145894,0.16836,-0.1098,1.003328,0.84,-2.17,-0.28,20.46
145906,0.16592,-0.113704,1.001864,0.84,-2.17,-0.49,20.46
145917,0.166408,-0.118096,0.996496,1.05,-2.38,-0.56,20.54
145929,0.166408,-0.117608,0.999424,1.54,-2.52,-0.84,20.49
145940,0.171288,-0.11468,1.002352,1.68,-2.38,-0.91,20.49
145952,0.1708,-0.1098,1.005768,1.19,-2.31,-0.77,20.55
145964,0.169824,-0.11712,1.006256,0.42,-1.82,-0.84,20.55
145975,0.170312,-0.113704,1.00284,0.56,-2.03,-0.98,20.5
145987,0.166896,-0.111752,1.005768,0.42,-2.24,-1.12,20.48
145998,0.167872,-0.117608,1.00528,0.63,-2.17,-1.26,20.48
146009,0.167384,-0.115656,1.013088,-0.35,-2.24,-1.4,20.52
146020,0.163968,-0.094672,1.00284,-2.17,-2.52,-1.05,20.52
146032,0.171288,-0.11224,0.996008,-2.45,-1.89,-1.12,20.52
146043,0.167384,-0.11712,1.002352,-2.38,-1.61,-1.19,20.56
146055,0.167872,-0.116144,1.01016,-1.61,-2.17,-1.05,20.56
146067,0.171288,-0.119072,1.00772,-0.84,-2.1,-1.33,20.49
146078,0.171288,-0.119072,1.008696,0.91,-2.59,-1.54,20.52
146089,0.169336,-0.11224,1.00772,1.61,-2.59,-1.54,20.52
146101,0.1708,-0.103456,1.00284,1.54,-2.52,-1.26,20.54
146112,0.171288,-0.096136,1.002352,0.49,-2.31,-0.77,20.54
146124,0.172752,-0.0976,1.007232,-0.35,-1.89,-0.28,20.54
146136,0.171288,-0.101016,1.00772,-0.49,-1.68,-0.28,20.53
146147,0.169336,-0.10492,1.008208,-0.35,-1.82,-0.28,20.53
146158,0.169824,-0.114192,1.005768,0.7,-2.1,-0.42,20.52
146169,0.163968,-0.111752,1.00284,1.47,-2.59,-0.49,20.52
146181,0.165432,-0.106872,1.006744,1.96,-2.8,-0.35,20.48
146192,0.16592,-0.104432,1.003328,1.54,-2.8,-0.07,20.52
146203,0.170312,-0.105408,1.004792,1.26,-2.52,0.07,20.52
146215,0.166896,-0.104432,1.004792,1.54,-2.52,0.28,20.54
146226,0.169824,-0.101992,1.00772,1.19,-2.52,0.35,20.45
146238,0.16836,-0.107848,1.00772,0.98,-2.52,0.28,20.45
146249,0.167384,-0.111264,1.00772,0.84,-2.52,0.35,20.5
146260,0.162992,-0.115168,1.007232,1.12,-2.87,0.21,20.5
146272,0.167384,-0.11468,1.002352,1.4,-2.94,0.14,20.52
146283,0.167384,-0.116632,1.00528,1.47,-2.87,0.14,20.52
146294,0.166408,-0.110776,1.005768,1.33,-2.87,0.14,20.52
146305,0.167872,-0.11224,1.008696,0.63,-2.87,0.0,20.51
146317,0.167872,-0.120048,1.00528,0.77,-2.94,-0.07,20.51
146328,0.164456,-0.120048,1.003328,1.33,-3.08,-0.14,20.54
146340,0.167384,-0.116632,1.003328,1.47,-3.01,-0.42,20.48
146351,0.165432,-0.11468,1.003328,1.47,-2.87,-0.42,20.48
146363,0.170312,-0.115656,0.996496,1.19,-2.59,-0.42,20.54
146374,0.170312,-0.113216,0.991128,1.05,-2.38,-0.56,20.54
146385,0.165432,-0.113704,0.994544,1.19,-2.45,-0.56,20.53
146397,0.171288,-0.11224,0.998936,1.4,-2.31,-0.7,20.5
146408,0.16592,-0.108824,0.999424,1.12,-2.45,-0.84,20.5
146419,0.171776,-0.105408,0.996496,0.56,-2.38,-1.05,20.54
146431,0.171288,-0.111752,0.991128,0.98,-2.1,-1.05,20.54
146442,0.168848,-0.1098,0.992592,1.4,-2.03,-0.91,20.53
146454,0.166408,-0.106384,0.994056,1.75,-2.24,-0.77,20.49
146465,0.169336,-0.0976,1.0004,1.75,-2.24,-0.49,20.49
146476,0.167384,-0.099064,1.001376,1.4,-2.1,-0.49,20.54
146488,0.165432,-0.099064,1.003328,1.26,-2.24,-0.28,20.52
146499,0.166896,-0.106384,0.998448,1.68,-2.24,-0.28,20.52
146510,0.166896,-0.102968,1.00284,1.82,-2.45,-0.21,20.52
146522,0.169824,-0.106872,1.004304,1.33,-2.52,-0.14,20.52
146533,0.167872,-0.112728,1.007232,1.68,-2.38,-0.28,20.51
146545,0.167872,-0.1098,1.006744,1.82,-2.59,-0.21,20.55
146556,0.167384,-0.111752,1.003816,1.89,-2.66,-0.35,20.55
146567,0.169824,-0.118584,1.001376,1.89,-2.59,-0.42,20.49
146579,0.168848,-0.11224,1.000888,2.1,-2.73,-0.56,20.49
146591,0.170312,-0.114192,1.001864,2.1,-2.73,-0.63,20.52
146603,0.170312,-0.113704,1.003816,2.24,-2.8,-0.7,20.56
146614,0.174704,-0.1098,1.007232,1.33,-2.45,-0.63,20.56
146626,0.17324,-0.120536,1.00772,0.77,-2.03,-0.84,20.52
146638,0.172264,-0.113704,1.008696,1.12,-2.03,-0.98,20.48
146650,0.171288,-0.114192,1.008208,1.33,-2.03,-1.12,20.48
146661,0.169336,-0.113704,1.009672,1.75,-2.1,-0.91,20.52
146673,0.172264,-0.103456,1.01504,1.47,-1.82,-0.63,20.52
146685,0.171776,-0.10248,1.013576,0.91,-1.61,-0.56,20.55
146697,0.172752,-0.10248,1.016016,0.28,-1.68,-0.42,20.54
146708,0.168848,-0.106384,1.01748,0.21,-1.75,-0.35,20.54
146720,0.16836,-0.106384,1.024312,0.63,-1.96,-0.28,20.52
146731,0.168848,-0.10492,1.020408,0.42,-2.03,-0.21,20.56
146743,0.167384,-0.111264,1.016504,0.42,-2.24,-0.14,20.56
146755,0.16592,-0.109312,1.013576,0.84,-2.73,-0.21,20.51
146767,0.167872,-0.104432,1.015528,1.12,-3.08,-0.14,20.48
146779,0.167384,-0.0976,1.015528,0.7,-3.08,-0.14,20.48
146791,0.167872,-0.10004,1.009184,0.21,-3.29,0.14,20.5
146802,0.167872,-0.103456,1.004304,0.42,-3.36,0.07,20.5
146814,0.16592,-0.105896,1.00528,0.35,-3.57,0.28,20.55
146825,0.16592,-0.108824,1.004304,0.49,-3.57,0.35,20.51
146837,0.166896,-0.10736,1.00284,0.7,-3.71,0.56,20.51
146849,0.165432,-0.110288,0.998936,0.77,-3.71,0.56,20.48
146861,0.16592,-0.108336,0.996008,0.91,-3.64,0.49,20.47
146872,0.166408,-0.113216,0.996496,1.05,-3.64,0.42,20.47
146884,0.166896,-0.11468,0.99308,1.4,-3.78,0.21,20.54
146896,0.17324,-0.111752,0.993568,1.19,-3.5,0.14,20.54
146907,0.171288,-0.109312,0.992104,0.42,-3.22,0.07,20.46
146918,0.169336,-0.116144,0.990152,0.28,-3.08,-0.07,20.49
146930,0.167384,-0.11712,0.9882,0.49,-2.87,-0.21,20.49
146942,0.16836,-0.11712,0.989664,0.91,-2.8,-0.35,20.51
146953,0.166896,-0.11224,0.99064,1.47,-2.8,-0.56,20.53
146965,0.1708,-0.109312,0.986248,1.54,-2.52,-0.63,20.53
146976,0.1708,-0.111752,0.98332,2.03,-2.1,-0.91,20.53
146988,0.171288,-0.104432,0.985272,1.89,-2.03,-0.84,20.53
146999,0.172264,-0.101504,0.9882,1.54,-1.75,-0.7,20.56
147011,0.166408,-0.101992,0.992592,1.19,-1.4,-0.49,20.48
147023,0.169336,-0.102968,0.996496,0.77,-1.19,-0.35,20.48
147034,0.170312,-0.108824,0.994056,0.91,-1.05,-0.35,20.54
147046,0.171288,-0.108824,0.996008,1.26,-0.84,-0.42,20.54
147058,0.16836,-0.104432,0.998936,1.68,-0.98,-0.35,20.52
147070,0.166896,-0.10248,1.002352,1.89,-1.12,-0.35,20.55
147082,0.16836,-0.101992,1.003816,1.75,-1.47,-0.35,20.55
147093,0.169824,-0.103944,1.009184,1.61,-1.68,-0.28,20.54
147105,0.169824,-0.10492,1.011136,1.75,-1.75,-0.35,20.47
147117,0.169336,-0.100528,1.0126,1.68,-1.96,-0.42,20.47
147128,0.16836,-0.103944,1.0126,1.47,-1.96,-0.42,20.52
147140,0.16836,-0.104432,1.0126,1.4,-2.03,-0.42,20.52
147152,0.167872,-0.108336,1.013576,1.61,-2.31,-0.28,20.52
147163,0.164944,-0.106384,1.0126,2.03,-2.66,-0.35,20.54
147175,0.16836,-0.105408,1.008696,2.31,-2.8,-0.21,20.54
147187,0.166896,-0.103944,1.00772,2.1,-2.8,-0.21,20.53
147199,0.166896,-0.098576,1.009672,1.82,-2.8,-0.07,20.48
147210,0.16836,-0.100528,1.008208,0.91,-2.38,0.07,20.48
147222,0.169336,-0.111264,1.005768,1.12,-2.31,-0.14,20.52
147234,0.165432,-0.109312,1.006744,1.68,-2.52,-0.21,20.51
147245,0.171288,-0.108824,1.00528,1.75,-2.59,-0.35,20.51
147257,0.169824,-0.109312,1.003816,2.03,-2.45,-0.49,20.55
147268,0.172752,-0.101016,1.001376,1.54,-2.31,-0.35,20.55
147280,0.17324,-0.099552,1.008208,0.42,-1.89,0.0,20.53
147291,0.170312,-0.11468,1.007232,0.07,-1.33,0.0,20.54
147303,0.167872,-0.108824,1.014064,0.21,-1.54,0.14,20.54
147315,0.164456,-0.11224,1.013088,0.7,-1.82,-0.14,20.54
147326,0.164456,-0.113704,1.013088,1.33,-1.96,-0.28,20.54
147337,0.16836,-0.108336,1.010648,1.47,-2.1,-0.42,20.53
147349,0.16836,-0.102968,1.009184,1.12,-2.24,-0.35,20.54
147360,0.16836,-0.103944,1.00772,0.49,-2.03,-0.21,20.54
147372,0.167384,-0.104432,1.011136,-0.07,-2.03,-0.07,20.54
147384,0.167384,-0.1098,1.012112,0.07,-2.1,0.0,20.53
147396,0.167872,-0.11224,1.013088,0.63,-2.31,-0.21,20.53
147408,0.16592,-0.110288,1.011624,1.12,-2.59,-0.35,20.52
147419,0.167384,-0.103456,1.006744,1.05,-2.66,-0.42,20.52
147430,0.167872,-0.10736,1.000888,1.05,-2.66,-0.49,20.53
147442,0.170312,-0.099552,0.999912,0.63,-2.66,-0.42,20.56
147454,0.169336,-0.101016,1.002352,-0.07,-2.45,-0.21,20.56
147466,0.171776,-0.106384,1.002352,0.0,-2.24,-0.21,20.54
147478,0.16836,-0.10492,1.001376,0.49,-2.17,-0.14,20.52
147489,0.169336,-0.10248,1.000888,0.56,-2.1,0.0,20.52
147501,0.170312,-0.103944,0.999912,0.7,-2.03,0.21,20.53
147513,0.166408,-0.104432,1.0004,0.84,-2.17,0.21,20.53
147524,0.170312,-0.102968,1.000888,1.12,-2.17,0.14,20.56
147536,0.168848,-0.104432,1.0004,0.35,-2.03,0.28,20.5
147547,0.169336,-0.105896,1.00284,0.21,-2.03,0.21,20.5
147559,0.169824,-0.110288,1.001376,0.14,-1.96,0.21,20.54
147570,0.167872,-0.113216,1.00284,0.49,-2.03,0.07,20.51
147582,0.16836,-0.1098,1.004304,1.05,-2.31,0.07,20.51
147594,0.16836,-0.106384,1.003328,1.26,-2.45,0.0,20.53
147605,0.169824,-0.105896,1.002352,1.33,-2.73,0.0,20.53
147617,0.167872,-0.103456,1.006256,1.33,-2.8,0.0,20.51
147628,0.167384,-0.098576,1.006744,1.4,-2.94,0.28,20.46
147640,0.16836,-0.097112,1.00528,0.84,-3.15,0.28,20.46
147652,0.166896,-0.10248,1.004304,0.7,-3.15,0.35,20.54
147663,0.167872,-0.107848,1.004792,0.77,-3.29,0.21,20.53
147675,0.170312,-0.111264,1.00284,1.4,-3.43,0.21,20.53
147686,0.166896,-0.108336,1.001864,2.17,-3.64,0.07,20.55
147698,0.16836,-0.101992,0.99308,2.03,-3.64,0.42,20.55
147709,0.174216,-0.099552,0.996984,1.12,-3.08,0.7,20.52
147721,0.172752,-0.100528,1.002352,0.42,-2.52,1.05,20.5
147732,0.169336,-0.106872,0.996496,0.28,-2.45,1.12,20.5
147743,0.16348,-0.115168,0.996984,1.12,-2.66,0.84,20.54
147755,0.16348,-0.11468,0.99796,1.96,-2.8,0.42,20.54
147766,0.164456,-0.111752,0.999424,2.31,-2.8,0.28,20.51
147778,0.165432,-0.101016,1.0004,1.47,-2.59,0.35,20.55
147789,0.166408,-0.106384,0.998448,0.63,-2.24,0.28,20.55
147801,0.162992,-0.108824,1.001864,0.42,-2.24,0.07,20.53
147813,0.161528,-0.118096,1.00772,0.84,-2.38,-0.14,20.49
147824,0.163968,-0.116144,1.008696,1.68,-2.59,-0.42,20.49
147836,0.162992,-0.108336,1.006744,2.03,-2.73,-0.56,20.52
147847,0.162992,-0.105408,1.001864,2.03,-2.59,-0.63,20.52
147859,0.162992,-0.10248,1.00528,1.68,-2.38,-0.49,20.55
147870,0.164456,-0.0976,1.007232,0.63,-2.31,-0.14,20.54
147881,0.163968,-0.102968,1.01016,0.42,-2.31,-0.21,20.54
147893,0.164944,-0.10492,1.010648,0.84,-2.59,-0.21,20.51
147905,0.166896,-0.104432,1.009672,1.26,-2.66,-0.21,20.5
147917,0.167384,-0.106872,1.01016,1.12,-2.66,0.0,20.5
147929,0.166896,-0.105408,1.00528,1.12,-2.59,0.07,20.57
147942,0.167872,-0.099552,1.003816,0.63,-2.1,0.28,20.57
147953,0.16592,-0.105896,1.00772,0.07,-2.1,0.28,20.54
147966,0.16104,-0.109312,1.008696,0.35,-2.31,0.14,20.54
147978,0.164456,-0.112728,1.005768,0.77,-2.94,-0.14,20.54
147989,0.166408,-0.115656,1.001864,1.33,-2.94,-0.63,20.55
148001,0.16836,-0.108336,1.001376,1.61,-3.15,-0.98,20.5
148012,0.171776,-0.101504,0.997472,1.47,-3.15,-0.77,20.5
148024,0.170312,-0.094672,0.996496,0.49,-2.73,-0.42,20.5
148036,0.169336,-0.096624,1.001376,-0.07,-2.52,-0.35,20.5
148047,0.16348,-0.103944,1.003816,0.14,-2.59,-0.42,20.48
148058,0.165432,-0.109312,1.001376,0.98,-2.94,-0.56,20.5
148070,0.166408,-0.103456,0.996984,1.82,-3.01,-0.56,20.5
148082,0.166896,-0.101504,0.998936,1.75,-2.94,-0.49,20.5
148093,0.170312,-0.094184,0.99796,1.12,-2.45,-0.07,20.5
148105,0.16836,-0.093208,1.000888,0.0,-2.17,0.28,20.5
148117,0.164944,-0.10736,1.001376,-0.28,-1.89,0.28,20.53
148128,0.164456,-0.113704,0.998936,0.7,-2.24,-0.14,20.53
148140,0.165432,-0.112728,1.0004,1.61,-2.45,-0.42,20.5
148152,0.167384,-0.108824,1.003328,1.61,-2.38,-0.35,20.5
148163,0.169824,-0.102968,1.00528,1.05,-2.17,-0.35,20.5
148175,0.169824,-0.103456,0.999424,0.07,-1.82,-0.21,20.56
148187,0.164456,-0.112728,1.0004,-0.35,-1.47,-0.21,20.52
148199,0.16836,-0.10736,1.00528,-0.49,-1.61,-0.35,20.52
148210,0.167384,-0.1098,1.005768,-0.56,-1.82,-0.49,20.54
148223,0.170312,-0.10492,1.004304,-0.56,-1.75,-0.56,20.5
148234,0.169824,-0.106384,1.011136,-0.77,-1.82,-0.49,20.5
148246,0.16836,-0.110288,1.014064,-0.49,-1.89,-0.28,20.52
148258,0.167872,-0.107848,1.01748,-0.28,-2.17,-0.14,20.52
148269,0.169336,-0.1098,1.020896,0.42,-2.38,-0.28,20.54
148281,0.170312,-0.109312,1.01748,1.19,-2.66,-0.42,20.53
148292,0.167384,-0.104432,1.00772,1.47,-3.01,-0.35,20.53
148304,0.171776,-0.099064,1.005768,1.33,-3.08,-0.07,20.57
148316,0.172752,-0.094672,1.003328,0.35,-2.94,0.28,20.55
148327,0.174704,-0.101992,1.003328,-0.07,-2.87,0.42,20.55
148339,0.167384,-0.105408,1.003328,0.28,-2.94,0.35,20.56
148350,0.165432,-0.108336,1.005768,0.77,-3.29,0.35,20.56
148362,0.168848,-0.108336,1.005768,1.26,-3.57,0.14,20.54
148373,0.166408,-0.10736,1.0004,1.68,-3.64,0.0,20.51
148385,0.16836,-0.103944,0.99552,1.61,-3.64,0.14,20.51
148396,0.170312,-0.10248,0.999912,0.98,-3.43,0.28,20.5
148408,0.171288,-0.107848,0.99552,0.77,-3.15,0.49,20.5
148420,0.17568,-0.112728,0.99796,0.42,-3.01,0.49,20.55
148431,0.174216,-0.120048,0.996984,0.98,-2.66,0.14,20.54
148443,0.16836,-0.11224,0.998448,1.61,-2.87,0.21,20.54
148455,0.171288,-0.10736,0.993568,1.26,-2.66,0.28,20.52
148466,0.172752,-0.107848,0.994544,0.77,-2.24,0.35,20.54
148478,0.166896,-0.112728,0.998936,0.35,-1.96,0.21,20.54
148489,0.166408,-0.111264,1.001864,0.49,-2.1,0.0,20.5
148501,0.167872,-0.112728,0.996008,0.42,-2.1,-0.07,20.5
148512,0.164456,-0.118584,1.001864,0.84,-2.03,-0.42,20.55
148524,0.164456,-0.110288,1.00528,1.33,-2.17,-0.56,20.54
148536,0.16348,-0.104432,1.004304,1.33,-2.17,-0.42,20.54
148547,0.162504,-0.109312,1.000888,1.54,-2.17,-0.56,20.54
148559,0.166408,-0.107848,0.999424,1.47,-2.17,-0.35,20.54
148571,0.166896,-0.105408,1.003328,1.12,-2.17,-0.21,20.54
148582,0.16836,-0.10248,1.008208,0.7,-1.75,-0.28,20.53
148594,0.166408,-0.10736,1.006744,0.56,-1.61,-0.28,20.53
148605,0.163968,-0.107848,1.004304,0.77,-1.75,-0.35,20.55
148616,0.162016,-0.111752,1.005768,1.26,-2.03,-0.42,20.55
148628,0.16592,-0.10736,1.005768,1.75,-2.24,-0.28,20.55
148639,0.16592,-0.099064,1.00772,1.05,-2.1,-0.14,20.52
148650,0.168848,-0.106384,1.006744,0.28,-1.96,-0.07,20.52
148662,0.166896,-0.112728,1.0126,0.35,-1.96,0.0,20.53
148673,0.164456,-0.11468,1.009672,1.12,-2.24,0.0,20.51
148684,0.168848,-0.1098,1.006256,1.33,-2.1,-0.07,20.51
148696,0.167872,-0.108824,1.011624,1.12,-2.03,-0.07,20.52
148707,0.170312,-0.112728,1.011136,0.84,-2.03,0.14,20.52
148718,0.167384,-0.111752,1.004792,0.35,-1.96,0.21,20.52
148729,0.167384,-0.115656,1.004304,0.42,-2.17,0.07,20.5
148741,0.171288,-0.113216,1.00772,0.28,-2.03,-0.14,20.5
148753,0.168848,-0.116632,1.003328,0.28,-2.03,-0.28,20.55
148764,0.171288,-0.111264,1.004792,0.21,-1.89,-0.35,20.52
148776,0.172264,-0.113216,1.00772,0.07,-1.96,-0.42,20.52
148787,0.171288,-0.116144,1.00528,0.42,-2.17,-0.77,20.6
148798,0.169824,-0.114192,1.004792,0.98,-2.52,-0.91,20.6
148810,0.167384,-0.10492,1.003816,1.12,-2.87,-0.91,20.54
148821,0.166896,-0.097112,1.00284,0.98,-2.8,-0.63,20.5
148833,0.16836,-0.097112,0.999912,0.49,-2.73,-0.35,20.5
148844,0.167384,-0.099552,0.998936,0.28,-2.73,-0.07,20.55
148856,0.16836,-0.103456,0.99796,0.63,-2.87,0.07,20.55
148867,0.169824,-0.105896,0.998448,0.91,-3.29,0.21,20.54
148878,0.169824,-0.110288,0.998936,1.54,-3.43,0.14,20.52
148890,0.171776,-0.107848,0.995032,1.96,-3.71,0.07,20.52
148901,0.167384,-0.105408,0.991128,1.68,-3.57,0.28,20.55
148913,0.174704,-0.107848,0.989176,1.47,-3.22,0.21,20.55
148924,0.17568,-0.113216,0.9882,1.47,-2.87,0.14,20.54
148935,0.175192,-0.113704,0.98576,1.89,-2.66,-0.14,20.53
148947,0.174704,-0.10736,0.992104,1.96,-2.45,-0.35,20.53
148958,0.175192,-0.105408,0.998936,1.75,-2.31,-0.56,20.55
148970,0.175192,-0.099064,0.998936,1.12,-1.82,-0.42,20.54
148981,0.172752,-0.103456,1.004304,0.63,-1.26,-0.14,20.54
148993,0.16836,-0.098088,1.01016,0.84,-1.19,0.07,20.53
149004,0.165432,-0.0976,1.014064,1.05,-1.26,0.35,20.53
149015,0.165432,-0.101016,1.015528,1.12,-1.33,0.56,20.52
149027,0.162016,-0.101016,1.016992,1.47,-1.75,0.7,20.52
149038,0.167872,-0.0976,1.015528,1.33,-1.96,0.84,20.52
149050,0.168848,-0.097112,1.008696,0.98,-1.82,0.91,20.53
149061,0.167384,-0.097112,1.008208,0.49,-1.68,1.12,20.53
149073,0.166408,-0.101504,1.007232,0.28,-1.75,1.19,20.55
149084,0.168848,-0.105896,1.00284,0.42,-1.68,0.98,20.53
149096,0.165432,-0.1098,0.99796,1.26,-1.82,0.7,20.53
149107,0.162504,-0.108336,0.998448,1.96,-1.82,0.77,20.53
149118,0.162504,-0.10248,1.001864,2.03,-1.75,0.77,20.56
149130,0.163968,-0.099552,1.000888,0.91,-1.47,1.33,20.56
149142,0.165432,-0.104432,0.999424,0.35,-1.12,1.54,20.52
149153,0.163968,-0.110288,1.004792,0.28,-1.12,1.54,20.52
149165,0.16348,-0.111752,1.001864,0.49,-1.05,1.33,20.56
149177,0.163968,-0.118096,1.00284,1.05,-1.12,1.33,20.55
149188,0.16592,-0.118584,1.004304,1.19,-1.12,1.33,20.55
149199,0.162992,-0.118584,1.005768,0.63,-0.91,1.4,20.55
149211,0.163968,-0.118096,1.00528,0.63,-1.05,1.54,20.55
149222,0.16348,-0.122488,1.004792,0.42,-1.05,1.33,20.57
149234,0.159576,-0.124928,1.006256,0.63,-1.26,0.84,20.52
149245,0.156648,-0.122488,1.009672,0.77,-1.68,0.7,20.52
149257,0.158112,-0.11712,1.014552,0.35,-2.03,0.35,20.53
149268,0.154696,-0.123464,1.011136,-0.07,-2.31,0.07,20.52
149280,0.155184,-0.140544,1.010648,0.77,-2.66,-0.14,20.52
149291,0.155672,-0.138104,1.007232,2.59,-3.08,-0.7,20.52
149302,0.155184,-0.121024,1.004792,2.8,-3.57,-0.98,20.52
149314,0.161528,-0.110288,0.998936,2.24,-3.43,-1.19,20.55
149325,0.1586,-0.109312,1.0004,1.26,-3.08,-1.12,20.55
149337,0.1586,-0.113216,0.998448,0.77,-2.8,-1.12,20.55
149349,0.1586,-0.108824,0.999424,0.35,-2.87,-0.98,20.56
149360,0.162504,-0.11224,1.001864,0.77,-2.45,-1.12,20.56
149372,0.160064,-0.108336,1.001864,0.84,-2.24,-1.05,20.54
149383,0.162016,-0.112728,1.00528,0.91,-2.17,-1.19,20.6
149394,0.160552,-0.110776,1.005768,1.33,-2.17,-1.19,20.6
149405,0.160064,-0.101992,1.006256,1.26,-2.24,-1.05,20.55
149417,0.160064,-0.098576,1.00528,0.98,-2.24,-0.98,20.55
149428,0.16348,-0.102968,1.003328,0.77,-2.17,-0.84,20.56
149440,0.16104,-0.103456,1.006744,0.63,-2.17,-0.49,20.56
149452,0.164456,-0.103944,1.01016,0.77,-2.38,-0.35,20.56
149463,0.166408,-0.104432,1.0126,0.91,-2.24,-0.21,20.56
149475,0.162504,-0.106872,1.006256,1.05,-2.31,-0.35,20.53
149486,0.161528,-0.105896,1.00528,1.19,-2.52,-0.21,20.53
149498,0.162992,-0.104432,1.00528,1.12,-2.66,-0.07,20.53
149510,0.16592,-0.105408,1.003328,0.98,-2.59,-0.14,20.53
149521,0.166408,-0.10492,1.004304,0.7,-2.52,-0.35,20.57
149533,0.16836,-0.107848,1.000888,0.63,-2.59,-0.35,20.52
149544,0.164456,-0.1098,0.996496,0.98,-2.66,-0.35,20.52
149556,0.164456,-0.10492,0.995032,1.61,-2.87,-0.35,20.54
149568,0.164944,-0.10004,0.996008,1.33,-2.73,-0.28,20.5
149579,0.16348,-0.102968,0.996008,0.84,-2.38,-0.21,20.5
149591,0.162504,-0.105896,1.00284,0.77,-2.52,-0.21,20.51
149602,0.16348,-0.101504,1.001376,0.84,-2.52,-0.14,20.51
149614,0.163968,-0.10736,0.998448,0.91,-2.66,-0.21,20.52
149625,0.160552,-0.112728,0.996984,1.68,-2.73,-0.35,20.48
149637,0.162016,-0.106384,0.997472,2.31,-2.87,-0.49,20.48
149648,0.160064,-0.102968,0.998448,2.31,-2.8,-0.35,20.54
149660,0.163968,-0.098088,0.996984,1.96,-2.45,-0.35,20.53
149672,0.164456,-0.099552,0.997472,1.4,-2.38,-0.28,20.53
149683,0.163968,-0.105896,0.997472,1.26,-2.03,-0.21,20.56
149694,0.162992,-0.10492,0.99796,1.47,-1.96,0.0,20.56
149706,0.16348,-0.103456,1.003328,1.12,-1.61,0.28,20.59
149717,0.16104,-0.112728,1.006256,1.19,-1.61,0.14,20.54
149728,0.162016,-0.111752,1.0126,1.19,-1.54,0.42,20.54
149740,0.163968,-0.113216,1.014552,1.33,-1.47,0.21,20.56
149751,0.161528,-0.113216,1.0126,1.33,-1.68,0.07,20.56
149762,0.16348,-0.11468,1.008208,1.19,-1.68,-0.14,20.59
149774,0.161528,-0.11224,1.01992,0.84,-1.75,-0.07,20.54
149785,0.163968,-0.109312,1.018456,0.56,-1.82,0.0,20.54
149797,0.16104,-0.113704,1.018944,0.63,-2.24,-0.21,20.54
149809,0.160552,-0.117608,1.017968,1.19,-2.66,-0.49,20.54
149820,0.16348,-0.111264,1.014064,1.19,-2.94,-0.84,20.5
149832,0.165432,-0.106872,1.01504,0.77,-2.94,-0.77,20.56
149843,0.16592,-0.103944,1.016504,0.0,-2.94,-0.7,20.56
149855,0.163968,-0.105408,1.012112,0.07,-2.87,-0.56,20.54
149867,0.162504,-0.103944,1.013576,0.35,-3.01,-0.35,20.56
149878,0.162504,-0.104432,1.016992,0.42,-3.22,-0.28,20.56
149889,0.162016,-0.10492,1.016016,0.7,-3.36,-0.28,20.59
149901,0.160552,-0.103456,1.008208,1.12,-3.64,0.0,20.59
149912,0.162016,-0.098576,1.004792,1.19,-3.57,0.14,20.55
149924,0.164456,-0.093696,1.004304,0.35,-3.22,0.42,20.51
149936,0.162016,-0.10248,1.0004,-0.14,-3.22,0.42,20.51
149947,0.16592,-0.110288,1.000888,-0.21,-3.08,0.42,20.56
149959,0.160552,-0.112728,0.99796,0.56,-3.22,0.14,20.52
149970,0.162992,-0.113704,0.996008,1.05,-3.36,0.07,20.52
149981,0.167872,-0.111752,0.992592,1.26,-3.15,0.07,20.55
149993,0.167384,-0.101504,0.991128,0.77,-2.73,0.14,20.55
150004,0.162992,-0.105896,0.988688,0.21,-2.1,0.0,20.55
150016,0.16104,-0.105896,0.988688,0.21,-1.96,0.14,20.49
150027,0.160552,-0.107848,0.991128,0.21,-1.89,0.07,20.49
150038,0.162016,-0.112728,0.994544,0.56,-1.75,-0.07,20.56
150050,0.16104,-0.110776,0.992104,1.05,-1.54,-0.21,20.56
150061,0.1586,-0.1098,0.997472,1.12,-1.61,-0.28,20.53
150073,0.159088,-0.113216,0.999912,1.33,-1.61,-0.35,20.55
150084,0.155672,-0.105896,1.00528,1.12,-1.82,-0.14,20.55
150096,0.162016,-0.106872,1.006744,0.63,-1.61,-0.21,20.52
150108,0.159576,-0.11224,1.00528,0.84,-1.68,-0.56,20.54
150119,0.160552,-0.110288,1.004304,0.84,-2.03,-0.56,20.54
150131,0.16104,-0.115168,1.004304,0.98,-2.24,-0.77,20.54
150142,0.160552,-0.113704,1.0004,1.4,-2.52,-0.91,20.54
150153,0.165432,-0.110776,1.004304,1.47,-2.38,-0.91,20.57
150165,0.164456,-0.106384,1.008208,1.12,-2.24,-0.98,20.51
150177,0.162504,-0.106384,1.008208,0.7,-2.17,-0.91,20.51
150188,0.164456,-0.11712,1.006744,0.77,-2.24,-0.77,20.57
150200,0.164456,-0.109312,1.007232,1.61,-2.59,-0.77,20.57
150211,0.164944,-0.106384,1.010648,1.82,-2.66,-0.7,20.55
150223,0.165432,-0.10248,1.014064,1.19,-2.66,-0.63,20.5
150234,0.167384,-0.10736,1.009184,1.05,-2.52,-0.49,20.5
150245,0.161528,-0.107848,1.005768,0.98,-2.8,-0.49,20.55
150257,0.164456,-0.110288,1.00528,1.19,-2.87,-0.49,20.55
150268,0.166408,-0.108336,1.005768,1.33,-3.01,-0.56,20.55
150280,0.169824,-0.102968,1.003816,1.26,-2.94,-0.63,20.56
150291,0.164944,-0.11224,1.001864,1.47,-2.8,-0.77,20.56
150303,0.16104,-0.1098,1.001376,1.75,-3.08,-0.77,20.55
150314,0.163968,-0.10736,1.003328,1.96,-3.01,-0.77,20.5
150326,0.160552,-0.103456,0.999424,2.38,-2.94,-0.84,20.5
150337,0.164944,-0.101504,1.0004,1.96,-2.73,-0.63,20.53
150349,0.163968,-0.101016,1.001864,1.4,-2.38,-0.35,20.53
150360,0.164456,-0.099064,1.001864,0.91,-2.1,0.0,20.51
150372,0.164944,-0.107848,1.004304,0.84,-1.82,0.14,20.54
150383,0.165432,-0.109312,1.00528,1.26,-1.54,0.28,20.54
150395,0.163968,-0.1098,1.006256,1.47,-1.4,0.35,20.54
150406,0.160064,-0.106872,1.011136,1.47,-1.4,0.35,20.52
150418,0.16104,-0.10492,1.010648,0.77,-1.26,0.21,20.52
150429,0.16104,-0.109312,1.009184,0.28,-1.26,0.07,20.56
150441,0.160552,-0.111264,1.010648,0.28,-1.4,0.07,20.56
150452,0.161528,-0.112728,1.011136,0.49,-1.54,0.0,20.59
150464,0.162992,-0.112728,1.01504,0.56,-1.54,-0.14,20.54
150476,0.160552,-0.11224,1.016016,0.63,-1.47,-0.07,20.54
150487,0.160064,-0.1098,1.014064,0.35,-1.61,0.0,20.48
150499,0.159088,-0.114192,1.012112,0.35,-1.75,-0.28,20.51
150511,0.159088,-0.111752,1.014552,0.63,-2.1,-0.21,20.51
150523,0.162016,-0.1098,1.006744,0.84,-2.17,-0.56,20.57
150535,0.161528,-0.10248,1.01016,0.42,-2.45,-0.56,20.57
150547,0.164456,-0.105896,1.010648,-0.35,-2.38,-0.42,20.56
150559,0.163968,-0.107848,1.009672,-0.35,-2.52,-0.56,20.5
150570,0.158112,-0.11224,1.007232,0.35,-2.8,-0.77,20.5
150582,0.161528,-0.109312,1.004304,0.91,-3.15,-0.56,20.52
150593,0.16592,-0.103456,1.002352,1.05,-3.01,-0.56,20.51
150605,0.167872,-0.0976,1.001376,0.56,-2.8,-0.14,20.51
150617,0.163968,-0.10004,1.000888,0.07,-2.59,-0.07,20.54
150628,0.165432,-0.102968,1.002352,0.0,-2.59,-0.07,20.54
150640,0.164944,-0.105896,1.003816,0.21,-2.66,0.14,20.57
150651,0.160552,-0.10736,0.999912,0.98,-2.94,0.07,20.57
150663,0.162992,-0.10248,1.0004,0.91,-2.87,0.14,20.57
150675,0.162504,-0.103944,1.00284,0.42,-2.66,0.0,20.55
150686,0.158112,-0.104432,1.000888,0.21,-2.73,0.14,20.52
150698,0.157136,-0.111752,1.001376,0.56,-2.94,17.85,20.52
150710,0.159576,-0.11224,0.996008,1.19,-3.29,-0.21,20.56
150722,0.166408,-0.111752,0.99552,1.75,-3.15,-0.28,20.56
150734,0.164944,-0.102968,0.998448,1.4,-2.8,-0.14,20.55
150746,0.166408,-0.104432,0.995032,0.63,-2.52,0.07,20.53
150757,0.167384,-0.110288,0.994544,0.0,-2.1,0.14,20.53
150769,0.162016,-0.11468,0.996496,0.35,-1.96,0.0,20.54
150780,0.16104,-0.113704,1.001376,0.49,-2.1,0.0,20.58
150791,0.159088,-0.115656,1.0004,0.98,-2.31,-0.28,20.58
150803,0.158112,-0.109312,1.0004,1.33,-2.38,-0.63,20.54
150815,0.1586,-0.10736,0.996984,1.82,-2.38,-0.77,20.54
150827,0.16104,-0.10004,1.003328,1.12,-2.31,-0.35,20.56
150839,0.158112,-0.101992,1.010648,0.49,-1.96,-0.21,20.57
150850,0.157136,-0.102968,1.009184,0.28,-2.1,-0.07,20.57
150862,0.1586,-0.109312,1.00772,0.56,-2.24,0.0,20.54
150874,0.160064,-0.116632,1.008208,1.19,-2.38,-0.21,20.53
150885,0.1586,-0.110288,1.007232,1.82,-2.66,-0.28,20.53
150897,0.162504,-0.101016,1.005768,1.47,-2.52,-0.14,20.55
150909,0.16348,-0.105896,1.006256,0.42,-2.03,-0.14,20.55
150922,0.161528,-0.1098,1.0126,0.0,-1.96,0.0,20.53
150933,0.160064,-0.116144,1.013576,-0.07,-2.24,-0.07,20.53
150945,0.16348,-0.118096,1.016992,0.49,-2.52,-0.07,20.53
150957,0.160552,-0.11468,1.011136,1.26,-2.94,-0.56,20.57
150969,0.162992,-0.110288,1.008208,1.12,-3.08,-0.35,20.55
150981,0.16348,-0.104432,1.00772,0.56,-2.73,-0.35,20.55
150993,0.16104,-0.10736,1.006256,0.07,-2.59,0.0,20.59
151004,0.16592,-0.11224,1.005768,-0.35,-2.66,0.0,20.52
151016,0.16104,-0.117608,1.005768,0.07,-2.8,-0.35,20.52
151028,0.16104,-0.11468,1.001376,1.12,-3.29,-0.56,20.56
151040,0.166408,-0.107848,0.996008,1.26,-3.08,-0.63,20.56
151051,0.16592,-0.104432,0.996984,0.77,-2.73,-0.35,20.48
151063,0.166408,-0.10004,0.99552,-0.14,-2.24,-0.14,20.56
151074,0.163968,-0.107848,0.997472,-0.35,-2.17,-0.21,20.56
151087,0.162504,-0.108336,0.998936,0.35,-2.1,-0.28,20.6
151099,0.159088,-0.108824,1.003816,1.05,-2.52,-0.35,20.52
151111,0.160552,-0.103944,1.002352,1.12,-2.73,-0.21,20.52
151123,0.165432,-0.099064,1.003816,0.56,-2.66,0.07,20.52
151135,0.16348,-0.105896,1.002352,0.21,-2.38,0.07,20.53
151147,0.158112,-0.110288,1.003328,0.7,-2.73,0.0,20.53
151159,0.160064,-0.108336,1.00284,1.19,-3.22,-0.14,20.55
151171,0.164944,-0.105408,1.00528,1.12,-3.29,0.0,20.52
151183,0.163968,-0.11224,1.004304,1.05,-3.15,-0.28,20.52
151195,0.164944,-0.106384,0.999424,0.91,-3.08,-0.07,20.57
151207,0.16592,-0.10736,1.001864,0.63,-3.08,0.07,20.57
151219,0.164944,-0.111264,1.002352,0.49,-2.73,0.07,20.51
151231,0.160064,-0.11468,1.00284,0.91,-2.73,0.07,20.52
151242,0.161528,-0.114192,1.004792,1.12,-2.73,0.0,20.52
151254,0.162504,-0.112728,1.003816,1.19,-2.87,-0.07,20.53
151266,0.165432,-0.11468,1.006744,0.91,-2.8,-0.21,20.58
151278,0.166408,-0.112728,1.005768,0.28,-2.66,-0.07,20.58
151290,0.164944,-0.114192,1.008208,0.07,-2.45,0.0,20.57
151302,0.162016,-0.11712,1.006744,0.35,-2.45,-0.14,20.51
151314,0.162504,-0.115168,1.00772,0.84,-2.66,-0.28,20.51
151326,0.166896,-0.11468,1.00772,0.91,-2.8,-0.21,20.54
151338,0.169336,-0.111752,0.997472,1.19,-2.31,-0.35,20.54
151349,0.164944,-0.105408,0.99552,0.98,-2.1,-0.21,20.55
151361,0.164456,-0.105408,0.996496,0.63,-2.1,0.0,20.54
151373,0.161528,-0.10492,1.001864,0.28,-2.17,0.14,20.54
151385,0.164944,-0.109312,1.008208,0.14,-2.31,0.07,20.57
151398,0.161528,-0.108824,1.003816,0.63,-2.59,-0.14,20.56
151410,0.161528,-0.114192,1.004304,1.12,-2.59,-0.14,20.56
151421,0.158112,-0.106872,1.008208,1.54,-2.87,-0.07,20.56
151433,0.1586,-0.101016,1.009184,1.12,-3.15,0.07,20.52
151445,0.160552,-0.108336,0.999912,0.7,-3.01,0.0,20.52
151457,0.162504,-0.113704,0.99552,0.91,-3.08,0.07,20.52
151468,0.166408,-0.118096,0.996984,1.61,-3.08,0.0,20.52
151480,0.167872,-0.111264,0.99552,1.61,-2.87,-0.07,20.59
151492,0.170312,-0.11224,0.99552,1.26,-2.52,0.0,20.55
151504,0.166408,-0.11224,0.993568,0.91,-2.03,0.0,20.55
151516,0.166408,-0.11224,0.992592,0.77,-1.68,0.0,20.57
151527,0.16104,-0.113704,0.994544,0.91,-1.54,-0.28,20.55
151539,0.162016,-0.112728,0.990152,1.12,-1.54,-0.28,20.55
151551,0.162016,-0.113216,0.996984,1.12,-1.47,-0.49,20.59
151562,0.162016,-0.113216,1.001376,1.12,-1.54,-0.7,20.59
151574,0.160552,-0.110288,1.00528,1.05,-1.47,-0.56,20.53
151586,0.158112,-0.108336,1.012112,1.47,-1.61,-0.42,20.57
151598,0.16104,-0.10736,1.009672,1.4,-1.61,-0.35,20.57
151609,0.1586,-0.112728,1.00772,1.75,-1.54,-0.35,20.58
151621,0.159088,-0.106872,1.007232,2.03,-1.82,-0.28,20.53
151633,0.162992,-0.10492,1.007232,1.75,-1.89,-0.21,20.53
151645,0.162504,-0.102968,1.01016,1.05,-1.68,-0.07,20.55
151656,0.16348,-0.1098,1.013088,0.49,-1.75,-0.07,20.57
151668,0.162016,-0.116144,1.0126,0.63,-1.89,0.0,20.57
151680,0.16104,-0.11712,1.0126,1.05,-2.17,-0.21,20.57
151692,0.162016,-0.113704,1.017968,1.26,-2.59,-0.28,20.57
151703,0.160552,-0.114192,1.013576,1.4,-2.59,-0.21,20.55
151715,0.160552,-0.111752,1.010648,1.47,-2.66,-0.14,20.54
151727,0.162016,-0.106872,1.00528,0.91,-2.66,0.0,20.54
151739,0.16348,-0.114192,1.004792,0.49,-2.52,0.0,20.58
151751,0.167384,-0.116632,1.003328,0.7,-2.52,-0.14,20.55
151763,0.16104,-0.113216,1.00528,0.7,-2.52,-0.14,20.55
151775,0.164456,-0.113216,1.004304,0.77,-2.73,-0.35,20.53
151786,0.162504,-0.113216,1.00284,0.91,-2.8,-0.49,20.53
151798,0.162504,-0.11224,1.003816,0.98,-2.87,-0.56,20.52
151810,0.162016,-0.11224,1.004792,0.84,-2.87,-0.63,20.54
151822,0.162016,-0.110288,1.003328,0.63,-2.87,-0.63,20.54
151834,0.160552,-0.113704,1.003328,1.33,-3.22,-0.77,20.55
151846,0.162016,-0.10492,0.997472,1.75,-3.29,-0.63,20.51
151858,0.167872,-0.098088,1.000888,1.54,-3.01,-0.28,20.51
151870,0.167872,-0.090768,0.996008,0.42,-2.59,0.07,20.55
151882,0.166408,-0.113216,0.998448,0.28,-2.31,-0.07,20.55
151893,0.16348,-0.109312,1.003816,1.12,-2.66,0.0,20.55
151906,0.163968,-0.099064,1.003816,0.63,-2.59,0.28,20.57
151918,0.165432,-0.116632,0.996984,1.19,-2.1,0.07,20.57
151930,0.159088,-0.105896,0.998448,1.89,-2.52,0.07,20.57
151941,0.162992,-0.10004,1.003816,1.26,-2.52,0.14,20.56
151953,0.162504,-0.106872,1.003328,0.84,-2.1,0.14,20.56
151965,0.159088,-0.105896,1.003816,0.7,-2.31,0.14,20.54
151977,0.1586,-0.114192,1.006744,0.98,-2.52,0.0,20.54
151988,0.160552,-0.111752,1.008208,1.33,-2.59,-0.14,20.54
152000,0.162016,-0.108824,1.009184,1.05,-2.52,0.0,20.52
152012,0.162504,-0.116144,1.006256,1.12,-2.45,-0.14,20.57
152023,0.162016,-0.116632,1.003816,1.33,-2.38,-0.21,20.57
152035,0.162992,-0.11468,1.0004,1.54,-2.31,-0.21,20.59
152047,0.162504,-0.110288,1.00284,1.4,-2.38,-0.35,20.59
152058,0.164944,-0.108336,1.00772,0.84,-2.31,-0.49,20.54
152070,0.162992,-0.113704,1.00528,0.42,-2.17,-0.42,20.59
152082,0.16592,-0.115168,1.003816,0.56,-2.24,-0.49,20.59
152094,0.16348,-0.114192,1.002352,0.98,-2.17,-0.56,20.53
152106,0.164456,-0.108824,1.006256,1.19,-2.17,-0.42,20.54
152119,0.164944,-0.100528,1.009672,0.56,-2.17,-0.35,20.54
152131,0.164456,-0.106384,1.00772,0.07,-2.03,-0.28,20.56
152142,0.160552,-0.111264,1.00772,0.49,-2.24,-0.28,20.56
152154,0.16104,-0.106384,1.011136,1.12,-2.59,-0.28,20.56
152166,0.165432,-0.10248,1.01504,0.91,-2.87,-0.07,20.54
152178,0.165432,-0.102968,1.0126,0.63,-2.87,0.07,20.54
152189,0.160552,-0.103944,1.014064,0.56,-2.94,0.28,20.52
152201,0.16104,-0.106384,1.014552,0.14,-3.22,0.28,20.55
152213,0.1586,-0.116144,1.011136,0.28,-3.5,0.14,20.55
152224,0.160552,-0.11468,1.003816,1.12,-3.71,0.0,20.54
152236,0.164944,-0.110288,1.00284,1.26,-3.78,-0.07,20.53
152248,0.165432,-0.109312,0.996496,1.26,-3.43,-0.14,20.53
152259,0.165432,-0.105896,0.994544,0.91,-3.36,0.14,20.6
152270,0.166896,-0.106384,0.996984,0.42,-3.08,0.21,20.6
152282,0.16348,-0.11468,0.991616,0.63,-2.66,0.0,20.59
152293,0.159576,-0.114192,0.989664,1.33,-2.66,0.0,20.54
152304,0.159088,-0.106384,0.995032,0.91,-2.59,-0.14,20.54
152316,0.160552,-0.110288,0.992592,0.91,-2.24,-0.35,20.56
152328,0.162504,-0.111264,0.991128,0.91,-2.03,-0.42,20.58
152340,0.160552,-0.1098,0.991616,0.91,-1.82,-0.42,20.58
152351,0.161528,-0.1098,0.994544,0.98,-1.61,-0.49,20.59
152363,0.159576,-0.113704,1.0004,1.19,-1.47,-0.42,20.59
152375,0.158112,-0.116632,0.998936,1.75,-1.54,-0.56,20.56
152386,0.162016,-0.114192,0.998448,1.96,-1.4,-0.49,20.52
152398,0.162016,-0.10736,0.998936,1.61,-1.4,-0.56,20.52
152410,0.166896,-0.10736,1.00528,0.84,-1.12,-0.49,20.54
152422,0.162504,-0.11224,1.012112,0.7,-1.19,-0.42,20.53
152433,0.162016,-0.113704,1.016992,1.12,-1.75,-0.7,20.53
152445,0.16104,-0.113704,1.013088,1.89,-2.03,-0.98,20.6
152456,0.159576,-0.1098,1.014064,1.96,-2.52,-0.91,20.6
152469,0.162504,-0.105408,1.016016,1.47,-3.01,-0.84,20.52
152480,0.16348,-0.106872,1.006744,1.82,-3.08,-0.7,20.59
152492,0.166896,-0.098576,1.011624,0.98,-3.43,-0.42,20.59
152504,0.1708,-0.110776,1.011136,0.98,-3.15,-0.49,20.59
152516,0.164456,-0.107848,1.00772,1.4,-3.08,-0.35,20.56
152528,0.166896,-0.106872,1.006256,1.4,-3.22,-0.14,20.56
152540,0.166896,-0.106384,1.00284,1.19,-2.87,0.0,20.55
152551,0.166408,-0.10736,0.998936,0.98,-2.8,0.0,20.55
152563,0.16836,-0.112728,0.996496,1.12,-2.52,0.0,20.54
152575,0.163968,-0.10736,1.004304,1.54,-2.66,-0.07,20.58
152586,0.166896,-0.101992,1.006256,0.91,-2.45,-0.07,20.58
152598,0.164944,-0.111264,1.000888,0.77,-2.17,-0.21,20.54
152611,0.160552,-0.107848,0.999424,1.26,-2.31,-0.35,20.58
152623,0.162504,-0.108336,0.999912,1.54,-2.31,-0.21,20.58
152634,0.162992,-0.10004,1.00528,1.19,-2.31,-0.07,20.56
152646,0.162504,-0.103944,1.007232,0.49,-2.1,0.07,20.56
152657,0.159088,-0.11224,1.009672,0.56,-2.1,0.07,20.56
152669,0.158112,-0.111752,1.00772,1.26,-2.52,-17.92,20.56
152681,0.157624,-0.114192,1.00772,1.61,-2.66,-0.21,20.56
152692,0.155672,-0.110776,1.013088,1.54,-3.01,-0.28,20.52
152703,0.16104,-0.110288,1.011624,1.19,-3.01,-0.49,20.55
152715,0.158112,-0.112728,1.00528,0.98,-3.15,-0.63,20.55
152727,0.158112,-0.118584,1.006256,1.33,-3.43,-0.84,20.53
152738,0.1586,-0.11224,1.010648,1.33,-3.57,-0.77,20.54
152750,0.159576,-0.112728,1.007232,1.89,-3.71,-1.12,20.54
152762,0.16104,-0.109312,1.009672,1.82,-3.99,-1.12,20.56
152773,0.162992,-0.10736,1.008696,1.33,-3.85,-1.26,20.56
152785,0.163968,-0.110288,1.003328,1.05,-3.71,-1.33,20.54
152796,0.162992,-0.111264,0.998448,1.26,-3.71,-1.26,20.57
152808,0.16592,-0.10736,0.996984,1.33,-3.78,-1.26,20.57
152819,0.168848,-0.10736,0.99796,1.54,-3.5,-1.26,20.55
152831,0.172264,-0.104432,0.99796,1.26,-3.15,-0.98,20.55
152843,0.171776,-0.102968,1.003328,1.05,-2.66,-0.84,20.57
152855,0.172264,-0.101016,1.0004,0.42,-2.38,-0.7,20.55
152866,0.169824,-0.108336,1.0004,0.7,-2.1,-0.7,20.55
152877,0.166896,-0.10248,0.998448,1.26,-2.17,-0.49,20.53
152889,0.171776,-0.10004,0.998936,1.26,-1.96,-0.42,20.57
152901,0.170312,-0.099552,0.999912,1.19,-1.96,-0.21,20.57
152912,0.171288,-0.09516,1.00528,0.77,-1.82,0.07,20.56
152923,0.17324,-0.099552,1.00528,0.49,-1.82,0.28,20.56
152935,0.169336,-0.10736,1.004792,0.77,-1.75,0.35,20.54
152947,0.167872,-0.108336,1.008696,1.26,-1.89,0.35,20.54
152958,0.169824,-0.10492,1.008696,1.4,-2.03,0.42,20.54
152970,0.169336,-0.105408,1.009184,1.54,-1.96,0.42,20.54
152981,0.168848,-0.10004,1.006256,1.26,-2.03,0.56,20.55
152992,0.167384,-0.10248,1.005768,1.19,-2.31,0.7,20.55
153003,0.167384,-0.10492,1.004304,1.05,-2.24,0.77,20.57
153015,0.171776,-0.103944,1.0126,0.77,-2.38,0.98,20.57
153026,0.171288,-0.106872,1.014064,0.49,-2.24,0.91,20.56
153037,0.163968,-0.110288,1.009672,0.7,-2.24,0.84,20.52
153049,0.164456,-0.111264,1.004792,1.4,-2.66,0.84,20.52
153060,0.16592,-0.110288,0.999912,1.61,-2.73,0.91,20.58
153071,0.166408,-0.10736,1.003816,1.54,-2.66,0.84,20.58
153083,0.166896,-0.105408,1.001376,1.26,-2.52,0.84,20.55
153094,0.162992,-0.102968,0.996008,0.77,-2.59,0.84,20.56
153106,0.159576,-0.111752,0.995032,0.84,-2.38,0.35,20.56
153117,0.160064,-0.110288,0.99552,1.33,-2.38,0.14,20.55
153128,0.160552,-0.107848,0.99796,1.54,-2.31,0.28,20.55
153139,0.160064,-0.106384,0.998936,1.4,-2.1,0.42,20.55
153150,0.16348,-0.104432,0.998936,1.19,-1.75,0.49,20.56
153161,0.160552,-0.106872,1.001376,0.98,-1.54,0.49,20.56
153172,0.162016,-0.107848,1.001864,1.12,-1.33,0.42,20.57
153183,0.160552,-0.10736,1.004792,1.26,-1.54,0.42,20.57
153194,0.162992,-0.105408,1.002352,1.19,-1.61,0.35,20.56
153205,0.163968,-0.107848,1.00528,1.26,-1.54,0.28,20.56
153216,0.164456,-0.10248,1.008208,1.19,-1.68,0.21,20.52
153227,0.166408,-0.104432,1.011624,0.84,-1.75,0.14,20.55
153238,0.165432,-0.105408,1.008208,0.84,-1.82,0.14,20.55
153249,0.162016,-0.106872,1.010648,1.05,-1.96,0.07,20.56
153260,0.162016,-0.103944,1.009672,1.68,-2.31,0.14,20.56
153271,0.16592,-0.10248,1.013088,1.47,-2.38,0.0,20.54
153282,0.16592,-0.099552,1.0126,1.05,-2.31,0.14,20.51
153293,0.162992,-0.101016,1.013576,0.63,-2.1,0.21,20.51
153304,0.160064,-0.105896,1.00772,0.56,-2.31,0.56,20.58
153315,0.159088,-0.105408,1.006256,0.84,-2.31,0.63,20.58
153326,0.158112,-0.103944,1.006256,0.84,-2.52,0.63,20.58
153336,0.157624,-0.105896,1.00528,0.84,-2.38,0.56,20.56
153348,0.160064,-0.10736,1.006256,0.98,-2.66,0.42,20.56
153358,0.161528,-0.10248,1.004304,0.84,-2.73,0.42,20.58
153370,0.162016,-0.107848,1.00284,0.28,-2.59,0.28,20.58
153382,0.162016,-0.11224,1.004792,0.56,-2.66,0.28,20.56
153393,0.159088,-0.111752,0.999912,0.77,-2.73,0.14,20.56
153404,0.160064,-0.113216,0.997472,1.26,-3.01,0.0,20.56
153415,0.159088,-0.105408,0.999912,1.4,-2.87,0.07,20.58
153426,0.158112,-0.10248,0.999912,1.47,-3.08,-0.07,20.58
153437,0.16104,-0.101016,1.004304,1.12,-3.01,0.07,20.56
153448,0.160064,-0.101992,1.00772,0.56,-2.94,-0.07,20.58
153465,0.160064,-0.111752,1.002352,0.91,-3.08,-0.07,20.58
153476,0.159088,-0.109312,1.004304,1.61,-3.36,-0.21,20.61
153487,0.162016,-0.101016,1.001864,1.54,-3.43,-0.21,20.6
153498,0.160064,-0.105408,0.998936,1.33,-3.15,-0.28,20.6
153509,0.163968,-0.108824,1.000888,1.33,-3.01,-0.21,20.55
153520,0.164456,-0.10248,1.002352,1.4,-2.87,-0.14,20.55
153531,0.16348,-0.099064,1.003816,1.19,-2.66,0.07,20.6
153542,0.165432,-0.099552,1.006744,0.91,-2.38,0.0,20.56
153553,0.161528,-0.101504,1.004792,0.63,-2.17,0.14,20.56
153563,0.163968,-0.108336,1.01016,0.63,-1.96,0.28,20.59
153574,0.162992,-0.10736,1.00772,0.49,-1.89,0.42,20.59
153585,0.163968,-0.107848,1.009672,0.35,-1.75,0.35,20.56
153596,0.162504,-0.112728,1.00772,0.63,-1.82,0.42,20.56
153607,0.16348,-0.108336,1.009672,0.42,-1.82,0.35,20.55
153618,0.16348,-0.110288,1.011136,0.14,-1.89,0.35,20.55
153629,0.165432,-0.111264,1.013088,0.0,-1.96,0.28,20.55
153640,0.162992,-0.112728,1.014064,0.07,-2.17,0.07,20.55
153651,0.163968,-0.11712,1.006744,0.77,-2.31,-0.14,20.55
153662,0.162016,-0.108336,1.00528,0.77,-2.59,-0.21,20.57
153673,0.161528,-0.10492,1.009184,0.21,-2.66,-0.14,20.58
153684,0.160064,-0.105896,1.012112,-0.14,-2.94,-0.14,20.58
153695,0.162504,-0.105896,1.006744,-0.07,-3.15,-0.14,20.57
153706,0.160064,-0.110288,1.006744,0.35,-3.57,-0.28,20.57
153717,0.16104,-0.105896,1.00772,1.33,-3.92,-0.42,20.59
153728,0.162992,-0.10004,1.00772,1.54,-4.34,-0.42,20.57
153742,0.16104,-0.096136,0.998448,1.26,-4.41,-0.42,20.57
153754,0.162504,-0.0976,0.992592,0.84,-4.34,-0.21,20.56
153765,0.163968,-0.099064,0.996008,0.63,-4.13,-0.14,20.61
153776,0.171776,-0.103456,0.995032,0.98,-3.92,0.0,20.61
153787,0.172264,-0.101992,0.991616,1.05,-3.43,0.21,20.58
153798,0.16836,-0.106384,0.988688,1.12,-3.22,0.42,20.58
153809,0.171288,-0.103944,0.986248,1.19,-2.87,0.49,20.63
153820,0.1708,-0.10248,0.988688,0.7,-2.31,0.84,20.63
153831,0.169824,-0.105408,0.992592,0.0,-1.68,0.98,20.57
153842,0.167384,-0.111752,0.998448,0.07,-1.19,1.12,20.54
153853,0.164944,-0.117608,0.998448,0.49,-1.19,0.7,20.54
153864,0.161528,-0.118096,0.998448,1.05,-1.26,0.35,20.57
153875,0.162992,-0.113216,1.00284,1.61,-1.47,0.21,20.57
153886,0.160552,-0.107848,1.009672,1.33,-1.75,0.0,20.59
153897,0.162992,-0.104432,1.009672,0.56,-1.68,0.07,20.57
153908,0.159088,-0.106384,1.0126,0.28,-1.68,0.14,20.57
153919,0.160552,-0.110288,1.011136,0.42,-1.75,-0.07,20.57
153930,0.160064,-0.116144,1.00772,1.05,-2.1,-0.21,20.57
153941,0.161528,-0.105896,1.010648,1.33,-2.31,-0.35,20.53
153952,0.160064,-0.104432,1.009672,1.26,-2.31,-0.35,20.55
153963,0.158112,-0.10492,1.006744,0.98,-2.17,-0.42,20.55
153974,0.152744,-0.107848,1.001376,1.19,-2.52,-0.42,20.55
153987,0.158112,-0.103456,1.006256,1.05,-2.73,-0.35,20.55
153998,0.161528,-0.106872,1.011624,0.49,-2.59,-0.35,20.59
154009,0.162992,-0.107848,1.016992,0.35,-2.73,-0.35,20.56
154020,0.16348,-0.114192,1.0126,0.56,-2.87,-0.35,20.56
154032,0.162016,-0.119072,1.011624,1.61,-3.08,-0.49,20.62
154043,0.160064,-0.111752,1.006744,2.17,-3.36,-0.42,20.62
154054,0.167384,-0.103456,1.00772,1.47,-3.08,-0.07,20.58
154065,0.168848,-0.102968,1.009672,0.63,-2.66,0.07,20.58
154075,0.166408,-0.103944,1.005768,-0.14,-2.31,0.14,20.58
154087,0.16592,-0.11224,1.002352,0.0,-2.1,-0.21,20.58
154098,0.165432,-0.115168,1.002352,0.42,-2.38,-0.28,20.58
154109,0.166896,-0.113216,1.003816,0.7,-2.38,-0.42,20.59
154120,0.16836,-0.108824,1.004304,0.42,-2.38,-0.35,20.57
154131,0.169336,-0.110776,1.003816,0.14,-2.17,-0.35,20.57
154142,0.16836,-0.112728,1.00284,0.49,-2.17,-0.35,20.54
154153,0.16348,-0.108824,1.00772,0.63,-2.45,-0.49,20.54
154165,0.166896,-0.104432,1.009184,0.84,-2.66,-0.35,20.57
154176,0.164944,-0.100528,1.007232,0.35,-2.73,-0.28,20.57
154187,0.16592,-0.11224,1.008696,0.42,-2.73,-0.35,20.57
154198,0.164456,-0.10736,1.006744,0.63,-2.94,-0.14,20.59
154209,0.166408,-0.106872,1.006744,0.49,-3.15,-0.07,20.59
154220,0.170312,-0.110288,1.006256,0.63,-3.22,-0.14,20.61
154231,0.169336,-0.107848,1.004304,0.63,-3.36,-0.21,20.61
154242,0.166896,-0.109312,1.003328,0.49,-3.5,-0.28,20.57
154253,0.167872,-0.110288,1.003328,0.63,-3.5,-0.28,20.57
154264,0.166896,-0.111752,1.002352,0.91,-3.43,-0.28,20.57
154275,0.16348,-0.110776,0.997472,1.19,-3.36,-0.28,20.59
154286,0.166896,-0.106872,0.997472,1.47,-3.57,-0.28,20.59
154297,0.167872,-0.105408,1.000888,1.26,-3.43,-0.07,20.6
154308,0.167872,-0.106872,1.004304,0.84,-3.29,-0.07,20.58
154319,0.1708,-0.1098,1.0004,0.35,-3.15,-0.14,20.58
154330,0.170312,-0.11712,0.99552,0.7,-3.01,-0.35,20.57
154341,0.169336,-0.116144,0.99796,1.33,-3.08,-0.35,20.57
154352,0.172264,-0.111264,0.994056,1.4,-2.66,-0.35,20.58
154363,0.16836,-0.106872,0.99552,1.26,-2.38,-0.28,20.57
154374,0.169824,-0.10736,0.992592,0.98,-2.24,-0.07,20.57
154385,0.167872,-0.106384,0.994544,0.77,-2.03,0.0,20.59
154396,0.16836,-0.105408,1.001864,0.63,-1.89,-0.07,20.59
154407,0.16836,-0.10736,1.00528,0.63,-1.82,-0.21,20.62
154418,0.164944,-0.108824,1.004304,0.77,-1.96,-0.21,20.57
154429,0.163968,-0.105896,1.005768,0.98,-2.03,-0.28,20.57
154440,0.168848,-0.103944,1.01016,0.91,-2.31,-0.35,20.55
154451,0.162992,-0.108824,1.007232,1.05,-2.31,-0.35,20.55
154462,0.16348,-0.103944,1.007232,1.54,-2.73,-0.28,20.6
154473,0.16348,-0.103456,1.008208,1.33,-2.94,-0.35,20.6
154485,0.166408,-0.10492,1.006256,1.47,-2.94,-0.35,20.59
154496,0.166896,-0.103456,1.005768,1.26,-3.08,-0.21,20.61
154507,0.16592,-0.101504,1.004304,0.84,-3.22,-0.07,20.61
154518,0.166896,-0.10736,1.0004,0.91,-2.94,-0.07,20.55
154529,0.16592,-0.113216,0.996496,1.33,-2.94,-0.07,20.55
154540,0.171288,-0.111264,0.99552,1.75,-2.8,0.0,20.58
154551,0.172264,-0.107848,0.99796,1.47,-2.31,0.14,20.59
154561,0.172264,-0.110776,1.006256,0.77,-2.17,0.21,20.59
154573,0.170312,-0.110776,1.001376,0.56,-1.96,0.07,20.54
154583,0.16836,-0.115168,0.99796,0.7,-1.75,0.0,20.54
154594,0.164944,-0.116632,0.994056,0.91,-1.75,-0.14,20.56
154605,0.16104,-0.118584,1.000888,1.26,-1.82,-0.21,20.59
154616,0.16348,-0.108824,1.000888,1.47,-1.96,-0.42,20.59
154627,0.165432,-0.103944,0.998936,1.26,-2.1,-0.63,20.61
154638,0.162992,-0.112728,0.990152,1.33,-1.89,-0.91,20.61
154649,0.163968,-0.113216,0.991616,1.68,-2.03,-0.84,20.55
154660,0.166896,-0.106384,0.991616,1.96,-1.68,-0.84,20.55
154672,0.167872,-0.098576,0.99796,1.61,-1.12,-0.56,20.59
154683,0.170312,-0.096624,1.0004,0.91,-0.7,-0.35,20.58
154694,0.16348,-0.10248,1.00284,0.49,-0.56,-0.07,20.58
154705,0.16348,-0.109312,1.0004,1.05,-0.63,-0.07,20.62
154716,0.164456,-0.103944,1.008696,1.33,-0.91,0.21,20.62
154727,0.16348,-0.103456,1.014064,1.47,-0.84,0.07,20.6
154738,0.165432,-0.105408,1.008696,1.26,-0.91,0.14,20.55
154749,0.16592,-0.103456,1.012112,1.12,-0.98,0.28,20.55
154759,0.16348,-0.107848,1.012112,1.33,-1.19,0.21,20.6
154770,0.163968,-0.101504,1.011624,1.05,-1.4,0.14,20.6
154781,0.163968,-0.108824,1.009672,0.77,-1.54,0.21,20.61
154792,0.164456,-0.114192,1.011136,1.12,-1.61,0.35,20.58
154803,0.162016,-0.110288,1.013576,1.12,-1.82,0.42,20.58
154814,0.166408,-0.113216,1.0126,0.77,-1.82,0.28,20.6
154825,0.161528,-0.113704,1.012112,0.63,-1.96,0.14,20.6
154836,0.159088,-0.112728,1.014064,0.7,-2.03,0.07,20.61
154847,0.156648,-0.11224,1.014064,0.77,-2.45,-0.14,20.61
154858,0.157624,-0.115656,1.010648,0.98,-2.66,-0.28,20.58
154869,0.16104,-0.110776,1.006744,1.26,-3.01,-0.49,20.59
154880,0.16104,-0.112728,1.006744,1.61,-3.01,-0.56,20.59
154891,0.163968,-0.10492,1.002352,1.47,-3.22,-0.63,20.6
154903,0.163968,-0.103944,1.005768,0.91,-3.08,-0.49,20.6
154914,0.162992,-0.104432,1.006256,0.84,-3.15,-0.56,20.55
154925,0.16104,-0.104432,1.004792,1.26,-3.15,-0.42,20.59
154936,0.163968,-0.106384,1.000888,1.54,-3.15,-0.56,20.59
154947,0.162016,-0.10248,1.0004,1.4,-3.01,-0.28,20.57
154958,0.16348,-0.101016,1.004304,0.91,-2.73,-0.07,20.57
154969,0.165432,-0.103456,1.00284,0.77,-2.66,0.0,20.58
154980,0.162504,-0.104432,0.998936,0.98,-2.45,-0.07,20.57
154991,0.159088,-0.107848,1.002352,1.33,-2.66,-0.14,20.57
155002,0.159576,-0.106872,1.001864,1.47,-2.73,-0.28,20.57
155013,0.157136,-0.102968,1.001864,1.33,-2.73,-0.21,20.57
155024,0.162016,-0.107848,1.001376,0.98,-2.38,-0.21,20.58
155035,0.162016,-0.108336,1.001376,1.12,-2.31,-0.14,20.54
155046,0.161528,-0.108824,1.001864,1.33,-2.31,-0.21,20.54
155057,0.163968,-0.115656,1.001864,1.75,-2.24,-0.21,20.63
155068,0.162016,-0.109312,1.006256,2.03,-2.52,-0.42,20.63
155079,0.164944,-0.102968,1.002352,1.89,-2.52,-0.56,20.59
155090,0.164944,-0.104432,1.006744,0.84,-2.38,-0.56,20.59
155101,0.16592,-0.109312,1.006256,0.21,-2.24,-0.63,20.59
155112,0.165432,-0.11224,1.008208,0.56,-2.38,-0.7,20.58
155123,0.167384,-0.112728,1.007232,1.19,-2.45,-0.84,20.58
155134,0.161528,-0.106872,1.005768,1.75,-2.38,-0.91,20.61
155145,0.165432,-0.10248,1.000888,1.89,-2.31,-0.77,20.61
155156,0.16592,-0.099552,1.004304,1.61,-2.38,-0.49,20.57
155167,0.16592,-0.095648,1.007232,0.98,-2.1,-0.35,20.58
155178,0.16348,-0.099552,1.005768,0.56,-2.17,-0.35,20.58
155189,0.164456,-0.103944,1.004792,0.63,-2.17,-0.35,20.58
155200,0.16348,-0.102968,1.006256,1.05,-2.38,-0.21,20.58
155211,0.162992,-0.106384,1.006256,1.4,-2.45,-0.21,20.58
155222,0.164944,-0.103456,1.01504,1.4,-2.73,0.07,20.55
155233,0.166896,-0.105896,1.013088,1.33,-2.8,0.07,20.55
155244,0.16348,-0.105408,1.012112,1.26,-2.87,0.14,20.58
155255,0.16348,-0.105896,1.008696,1.4,-3.01,-0.14,20.58
155266,0.16348,-0.104432,1.004792,1.47,-3.08,-0.14,20.61
155277,0.16104,-0.10248,1.001864,1.26,-3.01,-0.21,20.54
155288,0.162992,-0.108336,1.000888,1.47,-3.01,-0.14,20.54
155299,0.164456,-0.099552,1.0004,1.4,-3.01,-0.07,20.61
155310,0.167384,-0.103944,1.0004,0.63,-2.66,0.0,20.61
155321,0.165432,-0.115656,1.00284,0.7,-2.52,-0.07,20.6
155332,0.16348,-0.110288,1.00528,1.33,-2.94,-0.21,20.6
155343,0.164944,-0.111752,1.00284,1.75,-2.94,-0.35,20.58
155354,0.164944,-0.10736,1.000888,1.89,-2.59,-0.42,20.6
155365,0.159576,-0.10248,1.001376,1.82,-2.45,-0.42,20.6
155376,0.16104,-0.097112,0.996496,1.19,-2.24,-0.07,20.59
155387,0.163968,-0.098088,1.0004,0.35,-2.03,-0.07,20.59
155398,0.163968,-0.10492,1.006744,0.07,-1.75,-0.07,20.57
155409,0.162016,-0.114192,1.006744,0.77,-1.82,-0.21,20.55
155420,0.16104,-0.108824,1.004304,1.19,-1.89,-0.21,20.55
155431,0.1586,-0.1098,1.005768,1.54,-1.82,-0.21,20.58
155442,0.159088,-0.106384,1.004304,1.61,-1.82,-0.35,20.58
155453,0.16104,-0.104432,1.006256,1.33,-1.68,-0.21,20.57
155464,0.161528,-0.10248,1.001376,1.12,-1.61,-0.35,20.56
155475,0.16592,-0.101504,1.0004,0.49,-1.54,-0.14,20.56
155486,0.159576,-0.110776,1.006744,0.56,-1.61,-0.49,20.55
155497,0.162504,-0.111752,1.008696,1.05,-1.89,-0.7,20.55
155508,0.166408,-0.106872,1.01016,1.05,-2.1,-0.7,20.63
155520,0.16592,-0.105408,1.013576,0.77,-2.1,-0.84,20.61
155531,0.163968,-0.10736,1.015528,0.77,-2.24,-0.7,20.61
155542,0.166408,-0.102968,1.009672,0.77,-2.24,-0.42,20.55
155553,0.165432,-0.102968,1.004304,0.98,-2.31,-0.42,20.55
155564,0.16592,-0.10248,1.008208,1.26,-2.59,-0.35,20.61
155575,0.164944,-0.10004,1.005768,1.12,-2.66,-0.42,20.59
155586,0.16348,-0.098088,1.00772,0.98,-2.8,-0.28,20.59
155597,0.169824,-0.10248,1.002352,0.98,-2.87,-0.28,20.61
155608,0.166896,-0.102968,0.999424,1.12,-2.73,-0.21,20.61
155619,0.163968,-0.099552,1.003816,0.98,-2.8,-0.14,20.6
155630,0.167384,-0.099064,1.001376,0.77,-2.59,-0.07,20.6
155641,0.164944,-0.10004,1.0004,0.63,-2.59,-0.07,20.57
155652,0.16592,-0.105896,0.997472,0.84,-2.66,-0.07,20.55
155663,0.166896,-0.105408,0.997472,1.4,-2.8,-0.21,20.55
155675,0.166896,-0.101504,1.0004,1.75,-2.8,-0.21,20.58
155685,0.166896,-0.098088,0.999424,1.33,-2.59,-0.14,20.58
155697,0.167384,-0.0976,1.00284,0.84,-2.31,0.07,20.61
155708,0.16104,-0.096624,1.003816,0.63,-2.17,0.28,20.63
155718,0.164456,-0.103944,0.998936,0.91,-2.03,0.28,20.63
155729,0.161528,-0.10492,1.00528,1.33,-2.45,0.42,20.59
155740,0.162992,-0.104432,1.006744,1.33,-2.52,0.28,20.59
155751,0.163968,-0.105408,1.011624,1.12,-2.59,0.21,20.56
155762,0.162504,-0.105896,1.009672,0.91,-2.8,0.07,20.55
155773,0.16348,-0.106384,1.006256,0.7,-2.73,-0.07,20.55
155784,0.162016,-0.111264,1.007232,0.84,-2.66,-0.07,20.6
155795,0.163968,-0.1098,1.00528,1.26,-2.87,-0.14,20.6
155806,0.16348,-0.10492,1.009184,1.19,-2.94,-0.14,20.63
155817,0.162504,-0.106872,1.01016,1.4,-2.87,-0.28,20.63
155828,0.162992,-0.101016,1.011136,1.33,-2.87,-0.35,20.6
155839,0.163968,-0.101992,1.005768,1.05,-2.8,-0.14,20.6
155850,0.164944,-0.098088,1.008208,0.56,-2.59,0.07,20.6
155861,0.163968,-0.10248,1.011136,-0.07,-2.31,0.28,20.59
155872,0.164944,-0.108336,1.009184,0.14,-2.38,0.14,20.59
155883,0.162016,-0.105896,1.011136,0.63,-2.59,0.07,20.58
155894,0.16348,-0.1098,1.00528,0.91,-2.52,-0.07,20.57
155906,0.163968,-0.106384,1.007232,1.19,-2.73,-0.07,20.57
155917,0.166896,-0.098576,1.0004,0.84,-2.52,0.14,20.59
155929,0.172264,-0.10004,1.00284,0.07,-2.17,0.21,20.59
155940,0.167872,-0.101504,1.004792,-0.07,-2.03,0.42,20.61
155952,0.162504,-0.104432,1.006744,0.07,-2.03,0.28,20.55
155963,0.160552,-0.105408,1.008208,0.49,-2.38,0.21,20.55
155975,0.164456,-0.105408,1.004792,0.91,-2.59,0.14,20.61
155986,0.16104,-0.103456,1.007232,0.91,-2.87,0.07,20.58
155998,0.167872,-0.098576,1.012112,0.28,-2.87,0.14,20.58
156009,0.166408,-0.10248,1.007232,0.0,-2.66,0.21,20.6
156020,0.161528,-0.106872,1.007232,0.21,-2.8,0.21,20.6
156032,0.16104,-0.103456,1.006256,0.63,-3.15,0.21,20.64
156044,0.167384,-0.107848,1.006256,0.98,-3.22,0.21,20.58
156055,0.167384,-0.101016,1.009184,0.63,-3.22,0.35,20.58
156067,0.166408,-0.099552,1.003816,0.42,-3.08,0.42,20.57
156078,0.169336,-0.103944,0.998448,0.28,-2.73,0.56,20.57
156089,0.16836,-0.10736,0.996496,0.42,-2.66,0.7,20.57
156100,0.166408,-0.10492,1.000888,0.21,-2.52,0.84,20.61
156112,0.169336,-0.102968,1.001864,0.14,-2.31,0.77,20.61
156123,0.16104,-0.10492,0.998448,0.07,-2.24,0.56,20.6
156134,0.164456,-0.110288,1.00284,0.07,-2.24,0.42,20.6
156144,0.162016,-0.112728,1.004304,0.28,-2.38,0.07,20.59
156155,0.159088,-0.106872,1.006256,0.63,-2.73,0.0,20.56
156166,0.15616,-0.10492,1.005768,0.63,-2.94,0.0,20.56
156177,0.16104,-0.103944,1.001864,0.77,-2.8,0.07,20.64
156188,0.160552,-0.10248,1.002352,0.91,-2.94,0.07,20.64
156199,0.160552,-0.101992,0.99796,1.05,-2.87,0.14,20.65
156210,0.162504,-0.103456,0.997472,1.12,-2.8,0.14,20.58
156221,0.162504,-0.10248,0.997472,0.98,-2.8,0.28,20.58
156232,0.162992,-0.103456,0.998448,0.84,-2.66,0.21,20.57
156243,0.160064,-0.105896,0.999424,0.84,-2.52,0.28,20.57
156254,0.162504,-0.106872,1.002352,0.77,-2.52,0.28,20.56
156265,0.164456,-0.109312,1.004792,0.56,-2.31,0.42,20.56
156276,0.167872,-0.109312,1.006256,0.7,-2.31,0.28,20.55
156287,0.166896,-0.110776,1.005768,0.7,-2.24,0.28,20.57
156298,0.16348,-0.11224,1.003328,0.98,-2.38,0.0,20.57
156308,0.162504,-0.11224,1.00528,1.12,-2.59,0.07,20.6
156319,0.162504,-0.113216,1.004304,0.98,-2.38,0.21,20.6
156330,0.16836,-0.111264,1.00772,0.77,-2.52,0.28,20.57
156341,0.16836,-0.111264,1.008208,0.7,-2.45,0.28,20.55
156352,0.166896,-0.111752,1.010648,0.77,-2.45,-0.07,20.55
156363,0.165432,-0.111752,1.009184,0.98,-2.87,-0.35,20.61
156374,0.166896,-0.110288,1.00772,0.84,-3.01,-0.56,20.61
156385,0.16836,-0.10736,1.004304,0.7,-3.01,-0.42,20.56
156396,0.168848,-0.104432,1.004792,0.49,-2.94,-0.28,20.62
156407,0.171288,-0.106384,1.001864,0.56,-2.8,-0.21,20.62
156418,0.168848,-0.10492,1.001864,0.84,-2.87,-0.14,20.56
156429,0.16836,-0.104432,1.001864,1.26,-2.87,0.0,20.56
156440,0.167872,-0.096624,1.007232,1.19,-2.87,0.14,20.62
156451,0.166408,-0.093696,1.006256,0.56,-2.66,0.63,20.62
156462,0.16836,-0.101992,1.004792,0.28,-2.59,0.77,20.61
156473,0.166896,-0.105408,1.00528,0.42,-2.31,0.98,20.59
156484,0.164944,-0.10736,1.00528,0.84,-2.52,0.91,20.59
156495,0.166408,-0.105408,1.011136,0.91,-2.66,0.84,20.57
156506,0.166896,-0.1098,1.00772,0.7,-2.66,0.84,20.57
156517,0.166896,-0.114192,1.002352,0.63,-2.45,0.84,20.58
156528,0.162504,-0.110776,1.003816,0.49,-2.52,0.91,20.57
156539,0.16348,-0.116144,1.003328,0.49,-2.45,0.77,20.57
156550,0.162992,-0.11712,1.00772,0.77,-2.66,0.7,20.59
156562,0.160552,-0.117608,1.000888,1.19,-2.94,0.21,20.59
156573,0.16104,-0.111752,1.006744,1.05,-2.94,0.0,20.6
156584,0.163968,-0.115168,1.001864,0.63,-2.94,-0.21,20.62
156595,0.16104,-0.11224,0.999424,0.35,-2.8,-0.28,20.62
156606,0.162992,-0.113704,0.998448,0.49,-2.8,-0.28,20.56
156617,0.162992,-0.113704,1.001376,0.7,-2.73,-0.28,20.56
156628,0.162992,-0.11224,1.002352,0.98,-2.8,-0.35,20.58
156639,0.162992,-0.114192,0.998448,1.19,-2.73,-0.49,20.56
156650,0.162992,-0.109312,0.99796,1.26,-2.8,-0.49,20.56
156661,0.165432,-0.103944,0.999424,0.98,-2.59,-0.42,20.58
156672,0.16592,-0.105408,0.998448,0.56,-2.45,-0.21,20.58
156683,0.166408,-0.103456,0.998448,0.21,-2.17,-0.07,20.63
156694,0.166896,-0.108824,0.997472,0.77,-2.17,-0.07,20.63
156705,0.16592,-0.106872,0.999424,1.05,-2.1,0.0,20.61
156716,0.164456,-0.106384,0.999424,1.05,-2.1,0.0,20.59
156727,0.162016,-0.107848,1.0004,1.12,-2.03,0.0,20.59
156738,0.164456,-0.103944,1.001376,0.91,-1.89,0.07,20.59
156749,0.162992,-0.10736,0.99796,0.91,-1.96,0.07,20.59
156760,0.160064,-0.105408,1.00284,0.91,-2.17,0.0,20.59
156771,0.162992,-0.111264,1.00528,0.98,-1.96,0.0,20.61
156782,0.162016,-0.113704,1.00284,1.26,-2.24,0.0,20.61
156793,0.166896,-0.110776,0.996984,1.61,-2.38,-0.14,20.62
156804,0.162992,-0.113216,1.0004,1.47,-2.31,-0.28,20.62
156815,0.164944,-0.11224,0.998936,1.54,-2.45,-0.35,20.59
156826,0.16836,-0.1098,0.997472,1.26,-2.38,-0.21,20.55
156837,0.169336,-0.110288,0.996984,0.91,-2.03,-0.35,20.55
156848,0.166408,-0.11468,0.997472,0.98,-1.89,-0.42,20.59
156859,0.164456,-0.111264,0.99796,0.98,-2.03,-0.63,20.59
156870,0.161528,-0.11224,0.998936,1.4,-1.96,-0.91,20.62
156882,0.16104,-0.108336,1.000888,1.61,-2.1,-0.84,20.62
156893,0.161528,-0.10736,0.99796,1.75,-2.17,-0.84,20.62
156904,0.16348,-0.102968,1.001376,1.68,-2.03,-0.7,20.65
156915,0.163968,-0.10248,1.00284,1.47,-1.89,-0.63,20.65
156926,0.16348,-0.106384,1.00528,1.4,-1.89,-0.35,20.57
156937,0.162504,-0.103944,1.00528,1.61,-1.89,-0.21,20.57
156948,0.161528,-0.106872,1.001864,1.75,-1.82,-0.21,20.63
156959,0.165432,-0.104432,1.008208,1.68,-1.82,-0.14,20.57
156971,0.166408,-0.107848,1.009184,1.33,-1.68,-0.14,20.57
156982,0.164944,-0.10736,1.011136,1.12,-1.75,-0.21,20.59
156994,0.162992,-0.108336,1.014064,1.05,-2.03,-0.28,20.61
157006,0.164456,-0.111752,1.010648,1.05,-2.45,-0.49,20.61
157017,0.162504,-0.110288,1.008208,1.26,-2.45,-0.42,20.57
157028,0.16104,-0.108824,1.01016,1.47,-2.66,-0.42,20.57
157039,0.162504,-0.104432,1.01016,1.61,-2.66,-0.14,20.61
157050,0.164944,-0.106384,1.008208,1.33,-2.52,-0.21,20.55
157061,0.167872,-0.108336,1.005768,1.54,-2.66,-0.14,20.55
157072,0.167384,-0.104432,1.008208,1.33,-2.66,-0.14,20.58
157083,0.166408,-0.108336,1.006256,1.26,-2.66,-0.07,20.58
157095,0.167384,-0.106384,1.000888,1.05,-2.59,-0.21,20.55
157106,0.164456,-0.10736,1.001376,0.7,-2.52,-0.21,20.54
157116,0.164456,-0.111752,0.999912,1.05,-2.38,-0.07,20.54
157127,0.164456,-0.10736,1.00284,1.33,-2.45,-0.14,20.6
157139,0.165432,-0.103456,0.999424,1.4,-2.59,-0.07,20.6
157149,0.167872,-0.101504,1.001376,1.4,-2.38,-0.07,20.58
157160,0.16836,-0.101992,1.003328,1.47,-2.17,-0.14,20.58
157171,0.164944,-0.100528,1.003816,1.47,-2.17,-0.14,20.58
157182,0.166408,-0.10004,1.003328,1.05,-2.17,0.14,20.59
157193,0.164456,-0.103944,1.001864,1.05,-2.24,0.07,20.59
157204,0.162992,-0.102968,1.001864,1.05,-2.24,0.14,20.59
157215,0.161528,-0.106384,1.00528,1.26,-2.31,0.14,20.59
157226,0.160552,-0.101016,1.004792,1.47,-2.31,0.14,20.59
157238,0.159576,-0.104432,1.00284,1.33,-2.24,0.28,20.62
157248,0.160552,-0.108824,1.003328,1.54,-2.24,0.21,20.62
157259,0.160064,-0.101992,1.007232,1.61,-2.45,0.14,20.59
157270,0.1586,-0.102968,1.00528,1.54,-2.59,0.14,20.59
157281,0.160552,-0.108336,1.003328,1.33,-2.38,0.07,20.61
157292,0.160552,-0.1098,1.004304,1.61,-2.45,0.14,20.58
157303,0.162992,-0.107848,1.004304,1.61,-2.38,0.14,20.58
157314,0.161528,-0.111264,1.004792,1.54,-2.24,0.0,20.59
157325,0.161528,-0.108824,1.004792,1.61,-2.17,-0.14,20.59
157336,0.161528,-0.108336,1.003328,1.19,-2.1,-0.14,20.59
157347,0.160552,-0.115656,1.006256,1.19,-2.03,-0.28,20.59
157358,0.160552,-0.110776,1.00772,1.05,-2.17,-0.42,20.59
157369,0.16592,-0.112728,1.003328,0.7,-1.82,-0.49,20.6
157380,0.162504,-0.112728,1.00528,0.98,-1.68,-0.77,20.6
157391,0.161528,-0.10736,1.005768,1.26,-1.54,-0.77,20.56
157402,0.16348,-0.108336,1.00528,1.4,-1.61,-0.7,20.56
157413,0.161528,-0.10248,1.006256,1.19,-1.61,-0.77,20.61
157424,0.162016,-0.101504,1.007232,0.98,-1.61,-0.63,20.55
157435,0.164944,-0.10248,1.008696,0.56,-1.47,-0.63,20.55
157446,0.162504,-0.10492,1.006744,0.56,-1.4,-0.63,20.59
157457,0.161528,-0.103944,1.008208,0.84,-1.4,-0.63,20.59
157468,0.161528,-0.101016,1.010648,1.19,-1.68,-0.63,20.61
157479,0.16104,-0.099552,1.010648,1.47,-1.96,-0.49,20.64
157490,0.16348,-0.101016,1.01016,1.33,-2.17,-0.42,20.64
157501,0.162504,-0.102968,1.003816,2.03,-2.03,-0.49,20.59
157512,0.161528,-0.092232,1.004792,1.54,-1.96,-0.07,20.59
157523,0.159088,-0.094672,1.00772,0.7,-2.03,0.0,20.62
157534,0.1586,-0.105408,1.004304,0.56,-2.17,0.0,20.62
157545,0.162016,-0.112728,1.004792,1.19,-2.38,-0.07,20.56
157556,0.16836,-0.105896,1.00284,1.54,-2.45,-0.07,20.57
157567,0.166408,-0.105896,1.00284,1.54,-2.17,0.0,20.57
157578,0.16592,-0.106872,0.999912,1.4,-2.1,0.0,20.6
157589,0.16592,-0.105896,0.998936,1.05,-2.03,0.07,20.6
157600,0.16836,-0.10736,1.002352,0.63,-1.75,0.07,20.62
157611,0.163968,-0.11224,1.00772,0.7,-1.61,0.07,20.55
157621,0.16348,-0.112728,1.007232,0.84,-1.68,-0.28,20.55
157632,0.159576,-0.107848,1.005768,0.98,-1.68,-0.35,20.58
157643,0.162992,-0.10736,1.004792,0.91,-1.75,-0.49,20.58
157654,0.160552,-0.1098,1.003328,1.05,-1.82,-0.63,20.63
157665,0.157624,-0.104432,1.008208,1.19,-2.24,-0.56,20.56
157676,0.159576,-0.101504,1.006256,1.05,-2.31,-0.42,20.56
157687,0.162504,-0.103944,1.008696,0.91,-2.38,-0.35,20.61
157698,0.159576,-0.101504,1.006256,0.91,-2.31,-0.35,20.61
157709,0.159576,-0.101016,1.008696,1.19,-2.1,0.0,20.55
157720,0.159576,-0.101016,1.013576,1.4,-2.31,-0.07,20.55
157731,0.162504,-0.099064,1.010648,1.19,-2.38,0.0,20.55
157742,0.16104,-0.101504,1.008696,1.12,-2.45,0.0,20.57
157753,0.159576,-0.105408,1.008696,1.26,-2.59,0.0,20.57
157764,0.161528,-0.100528,1.008696,1.26,-2.73,0.0,20.62
157775,0.16104,-0.100528,1.008208,0.91,-2.8,0.14,20.62
157786,0.162992,-0.105408,1.008208,0.77,-2.73,0.21,20.63
157797,0.1586,-0.105896,1.004792,1.05,-2.66,0.14,20.58
157808,0.158112,-0.104432,1.009184,1.05,-2.8,0.28,20.58
157819,0.159576,-0.109312,1.006256,1.26,-2.73,0.21,20.62
157830,0.158112,-0.108336,1.00528,1.68,-3.08,0.07,20.62
157841,0.162504,-0.106384,1.00284,1.61,-3.22,0.07,20.61
157852,0.166408,-0.103456,1.004792,1.12,-2.94,0.0,20.57
157862,0.162504,-0.103944,1.006744,0.84,-2.73,0.0,20.57
157873,0.16348,-0.105896,0.999424,0.7,-2.66,-0.14,20.59
157884,0.160552,-0.10492,0.995032,0.77,-2.66,-0.21,20.59
157895,0.161528,-0.103456,0.998936,0.91,-2.52,-0.28,20.61
157906,0.16104,-0.100528,0.998936,1.19,-2.38,-0.14,20.61
157917,0.160552,-0.099064,0.998936,0.98,-2.1,0.0,20.6
157928,0.159576,-0.098088,0.998936,0.91,-2.17,0.0,20.57
157939,0.158112,-0.097112,1.004304,1.05,-2.17,0.21,20.57
157950,0.157624,-0.095648,1.00528,0.98,-2.17,0.28,20.63
157961,0.156648,-0.096136,1.002352,0.98,-2.1,0.28,20.63
157972,0.15616,-0.101504,1.00284,1.05,-2.17,0.28,20.6
157983,0.156648,-0.101992,1.00772,1.33,-2.45,0.35,20.55
157994,0.158112,-0.103944,1.008208,1.4,-2.73,0.14,20.55
158005,0.159088,-0.105408,1.001376,1.68,-2.73,-0.14,20.59
158016,0.159576,-0.102968,1.000888,1.54,-2.94,-0.14,20.59
158027,0.1586,-0.10248,1.002352,1.19,-2.59,-0.21,20.6
158038,0.158112,-0.104432,1.004304,1.05,-2.52,-0.14,20.6
158049,0.160064,-0.106384,1.003816,1.05,-2.45,-0.07,20.59
158060,0.159576,-0.1098,1.007232,1.4,-2.45,-0.21,20.57
158071,0.157624,-0.108336,1.004792,1.89,-2.52,-0.35,20.57
158082,0.16104,-0.103456,1.003816,1.89,-2.24,-0.21,20.57
158093,0.16104,-0.099552,1.003816,1.47,-2.17,-0.35,20.57
158104,0.1586,-0.097112,1.003328,0.84,-1.89,-0.07,20.59
158115,0.158112,-0.10492,1.003328,0.77,-1.75,-0.14,20.6
158126,0.158112,-0.10248,1.00528,1.05,-2.03,-0.21,20.6
158137,0.160552,-0.101992,1.007232,0.98,-2.17,-0.28,20.63
158148,0.160064,-0.109312,1.006744,1.12,-1.96,-0.28,20.63
158160,0.160064,-0.103944,1.01016,1.12,-2.1,-0.21,20.58
158171,0.16348,-0.101016,1.013088,0.7,-1.96,-0.28,20.57
158183,0.162504,-0.106872,1.008208,0.56,-1.75,-0.28,20.57
158194,0.156648,-0.112728,1.01504,1.4,-2.31,-0.49,20.6
158206,0.162992,-0.0976,1.006256,1.82,-2.24,-0.49,20.6
158217,0.159088,-0.093208,1.004792,1.47,-2.45,-0.28,20.6
158229,0.160552,-0.09516,1.011624,0.21,-2.38,-0.21,20.61
158240,0.160552,-0.10492,1.010648,0.21,-2.17,-0.14,20.61
158252,0.156648,-0.098088,1.0126,0.7,-2.59,-0.14,20.62
158264,0.161528,-0.10248,1.014064,1.05,-2.52,-0.14,20.58
158275,0.157136,-0.10004,1.00772,1.61,-2.8,-0.21,20.58
158287,0.160552,-0.095648,1.004304,1.54,-3.08,-0.14,20.64
158299,0.166408,-0.0976,0.999424,0.98,-2.73,0.0,20.64
158310,0.164944,-0.098088,0.998936,0.63,-2.45,0.0,20.65
158322,0.161528,-0.103456,0.999912,0.42,-2.38,0.14,20.6
158333,0.162992,-0.10736,0.996496,1.33,-2.45,0.21,20.6
158345,0.162016,-0.102968,0.999424,1.4,-2.87,0.07,20.61
158357,0.16104,-0.099064,0.998448,1.61,-2.66,-0.14,20.58
158369,0.156648,-0.098088,0.99796,1.68,-3.08,-0.28,20.58
158380,0.159576,-0.091744,0.999424,1.47,-2.87,-0.21,20.57
158392,0.159088,-0.096624,0.996984,1.05,-2.8,-0.21,20.57
158403,0.162016,-0.098088,0.998448,1.33,-2.73,-0.07,20.6
158414,0.159576,-0.101992,0.997472,1.82,-2.87,0.0,20.57
158425,0.160064,-0.098576,0.997472,2.59,-3.15,0.07,20.57
158437,0.162504,-0.09272,1.0004,2.24,-2.87,0.21,20.59
158448,0.162016,-0.099064,1.002352,2.03,-2.52,0.21,20.59
158460,0.156648,-0.092232,1.002352,1.54,-2.31,0.49,20.58
158471,0.161528,-0.097112,1.00528,0.98,-2.24,0.42,20.59
158483,0.160552,-0.105408,1.003816,1.33,-2.1,0.28,20.59
158494,0.16104,-0.101992,1.003328,2.03,-2.1,0.21,20.63
158505,0.162504,-0.10004,1.006744,1.82,-2.24,0.28,20.6
158517,0.158112,-0.098576,1.005768,1.68,-2.1,0.49,20.6
158528,0.161528,-0.094672,1.009672,1.19,-2.03,0.7,20.61
158540,0.159088,-0.105408,1.008696,0.91,-1.82,0.56,20.61
158551,0.1586,-0.107848,1.012112,1.05,-1.75,0.49,20.63
158563,0.158112,-0.110288,1.013576,1.47,-1.96,0.42,20.6
158574,0.160552,-0.105408,1.01016,1.61,-2.17,0.35,20.6
158586,0.16348,-0.104432,1.010648,1.4,-2.1,0.35,20.58
158597,0.162992,-0.10248,1.009672,1.19,-1.96,0.21,20.58
158609,0.159576,-0.101992,1.00772,0.91,-2.03,0.21,20.61
158620,0.160552,-0.10248,1.009672,0.7,-1.96,0.14,20.61
158631,0.159576,-0.100528,1.013576,0.63,-2.1,-17.85,20.61
158643,0.160064,-0.099552,1.016016,0.91,-2.24,0.0,20.58
158654,0.1586,-0.093696,1.014552,0.98,-2.45,-0.14,20.64
158667,0.158112,-0.099552,1.012112,0.91,-2.52,0.0,20.64
158678,0.160552,-0.09516,1.011136,1.05,-2.52,0.35,20.61
158690,0.16104,-0.092232,1.014064,0.84,-2.66,0.42,20.61
158701,0.159576,-0.094672,1.01748,0.49,-2.66,0.56,20.59
158713,0.159576,-0.10004,1.016016,0.77,-2.73,0.42,20.6
158725,0.154696,-0.095648,1.01504,0.7,-3.01,0.49,20.6
158737,0.1586,-0.10248,1.014064,0.63,-3.15,0.42,20.62
158748,0.155672,-0.10248,1.009672,0.84,-3.22,0.49,20.59
158759,0.15616,-0.10248,1.008208,0.91,-3.36,0.35,20.59
158771,0.1586,-0.104432,1.006256,1.05,-3.22,0.28,20.62
158783,0.156648,-0.103944,1.002352,1.12,-3.08,0.21,20.62
158794,0.1586,-0.101504,1.0004,0.84,-2.8,0.21,20.59
158806,0.1586,-0.10248,1.003816,0.35,-2.45,0.21,20.57
158817,0.1586,-0.108824,1.003328,0.14,-2.38,0.0,20.57
158829,0.159088,-0.108824,1.007232,0.07,-2.31,-0.07,20.61
158840,0.158112,-0.113216,1.002352,0.35,-2.45,-0.49,20.61
158852,0.156648,-0.106384,1.006256,0.7,-2.52,-0.49,20.57
158864,0.15616,-0.103456,1.001864,0.56,-2.31,-0.56,20.61
158876,0.159576,-0.100528,0.999424,0.42,-2.17,-0.42,20.61
158887,0.1586,-0.10248,1.001376,0.35,-1.89,-0.42,20.62
158899,0.1586,-0.098088,1.004304,0.28,-2.1,-0.28,20.6
158910,0.162016,-0.098576,1.006744,0.07,-1.89,-0.21,20.6
158922,0.157624,-0.099064,1.006744,0.35,-1.96,-0.42,20.58
158934,0.157136,-0.10248,1.003328,0.35,-2.03,-0.35,20.57
158946,0.159088,-0.104432,1.00528,0.7,-2.24,-0.49,20.57
158957,0.158112,-0.09516,1.004792,0.7,-2.31,-0.28,20.61
158969,0.159088,-0.098088,1.005768,0.28,-2.24,-0.28,20.61
158980,0.155672,-0.099552,1.005768,0.14,-2.45,-0.14,20.59
158992,0.156648,-0.103944,1.003328,0.49,-2.52,-0.14,20.62
159004,0.157136,-0.102968,1.003328,1.33,-2.87,-0.14,20.62
159016,0.159088,-0.100528,1.00284,1.68,-2.94,-0.35,20.62
159027,0.16348,-0.093696,0.99796,1.4,-2.8,-0.14,20.59
159039,0.166408,-0.094672,0.996984,0.56,-2.38,0.21,20.59
159051,0.161528,-0.101504,0.998936,0.28,-1.96,0.14,20.61
159063,0.158112,-0.105408,0.996496,0.91,-2.17,0.07,20.61
159074,0.162504,-0.103456,0.996008,1.4,-2.17,-17.85,20.61
159086,0.160552,-0.10004,1.003328,1.4,-2.03,0.0,20.57
159097,0.16104,-0.0976,1.001376,0.84,-1.96,-0.07,20.57
159109,0.157136,-0.101992,1.003328,0.7,-2.03,-0.28,20.61
159121,0.156648,-0.103944,1.004304,0.98,-2.24,-0.35,20.62
159133,0.155672,-0.105896,1.002352,1.4,-2.38,-0.42,20.62
159145,0.154696,-0.098576,1.004792,1.68,-2.66,-0.28,20.63
159156,0.158112,-0.095648,1.008208,1.47,-2.52,-0.21,20.63
159168,0.1586,-0.099552,1.005768,1.4,-2.31,-0.14,20.61
159180,0.158112,-0.098088,1.004792,1.26,-2.24,-0.07,20.59
159192,0.159576,-0.10004,1.003816,1.33,-2.03,0.0,20.59
159204,0.159576,-0.099552,1.004792,1.26,-2.03,0.07,20.65
159216,0.161528,-0.099064,1.009184,0.91,-1.96,0.07,20.61
159228,0.1586,-0.102968,1.01016,0.7,-2.03,0.0,20.61
159240,0.158112,-0.10492,1.010648,0.84,-2.1,-0.14,20.57
159252,0.155672,-0.105408,1.010648,1.26,-2.45,-0.35,20.57
159263,0.156648,-0.105408,1.008208,1.75,-2.73,-0.28,20.57
159276,0.157624,-0.096624,1.009672,1.33,-2.73,-0.07,20.63
159287,0.1586,-0.096624,1.010648,1.05,-2.59,0.21,20.63
159299,0.159088,-0.0976,1.008208,0.63,-2.45,0.21,20.57
159310,0.159088,-0.103456,1.006744,0.84,-2.38,0.28,20.6
159322,0.159576,-0.106872,1.004792,1.26,-2.45,0.21,20.6
159333,0.159576,-0.10248,1.004792,1.26,-2.45,0.14,20.61
159345,0.159088,-0.103456,1.004792,1.05,-2.38,0.14,20.62
159357,0.157136,-0.101992,1.001376,0.98,-2.38,0.07,20.62
159368,0.1586,-0.103944,0.998936,0.84,-2.45,-0.07,20.59
159379,0.159576,-0.103456,0.996496,0.91,-2.24,-0.07,20.59
159391,0.160064,-0.10004,1.123376,1.05,-2.1,-0.14,20.64
159403,0.157136,-0.10004,1.004304,1.26,-2.24,-0.21,20.56
159416,0.157136,-0.0976,1.001864,1.19,-2.24,-0.14,20.56
159427,0.16104,-0.10004,1.0004,1.19,-2.03,-0.21,20.65
159439,0.158112,-0.098576,1.001864,1.4,-2.17,-0.21,20.64
159451,0.158112,-0.094672,1.003816,1.61,-2.24,-0.07,20.64
159463,0.159088,-0.094184,1.006256,1.26,-2.38,0.07,20.59
159475,0.154208,-0.097112,1.00772,1.26,-2.45,0.0,20.59
159486,0.157136,-0.10004,1.00772,1.61,-2.66,-0.07,20.59
159498,0.15616,-0.098088,1.005768,1.89,-2.94,-0.07,20.61
159510,0.157624,-0.098576,1.004792,1.75,-2.87,-0.14,20.61
159522,0.157624,-0.099064,1.004792,1.61,-2.73,-0.14,20.63
159533,0.157136,-0.098576,1.004304,1.61,-2.73,0.0,20.58
159545,0.161528,-0.10248,1.00528,1.61,-2.45,0.14,20.58
159557,0.159576,-0.10248,1.004304,1.54,-2.03,0.07,20.61
159568,0.160064,-0.10248,1.005768,1.19,-1.96,0.28,20.61
159580,0.162504,-0.10736,1.014064,0.98,-1.82,0.21,20.61
159592,0.159088,-0.108824,1.010648,1.05,-1.89,0.0,20.66
159604,0.1586,-0.108824,1.01016,1.33,-1.89,-0.28,20.66
159615,0.160064,-0.10736,1.010648,1.19,-1.96,-0.35,20.64
159628,0.159088,-0.102968,1.011136,1.12,-1.96,-0.49,20.59
159639,0.15616,-0.10004,1.011136,0.91,-2.1,-0.49,20.59
159651,0.159088,-0.101016,1.009672,0.56,-2.17,-0.63,20.6
159663,0.159088,-0.101016,1.01016,0.7,-2.1,-0.63,20.56
159674,0.155184,-0.099064,1.009672,1.05,-2.24,-0.7,20.56
159686,0.156648,-0.09516,1.0126,1.33,-2.45,-0.49,20.59
159698,0.1586,-0.090768,1.011136,0.98,-2.31,-0.21,20.59
159710,0.158112,-0.098576,1.006256,0.7,-2.03,-0.28,20.6
159722,0.160552,-0.10004,1.006744,0.84,-2.24,-0.28,20.62
159734,0.1586,-0.0976,1.01016,0.7,-2.24,-0.21,20.62
159746,0.156648,-0.101504,1.006256,0.77,-2.24,-0.07,20.6
159757,0.156648,-0.10004,1.005768,0.7,-2.1,-0.21,20.58
159769,0.154696,-0.098576,1.003816,0.77,-2.31,-0.28,20.58
159781,0.158112,-0.0976,1.00528,0.63,-2.38,-0.28,20.59
159793,0.159088,-0.0976,1.004304,0.35,-2.17,-0.28,20.61
159804,0.155672,-0.097112,1.00528,0.35,-2.24,-0.07,20.61
159816,0.15616,-0.101992,1.000888,0.49,-2.24,-0.21,20.64
159828,0.157624,-0.10492,1.001376,0.91,-2.38,-0.14,20.64
159840,0.1586,-0.10004,1.003328,1.19,-2.38,-0.35,20.63
159851,0.15616,-0.094184,1.004304,1.19,-2.31,-0.42,20.62
159863,0.156648,-0.091744,1.0004,0.63,-2.17,-0.56,20.62
159874,0.155184,-0.100528,1.000888,0.42,-1.96,-0.49,20.6
159886,0.154696,-0.101992,1.0004,0.84,-1.96,-0.49,20.63
159898,0.15372,-0.098576,0.999912,1.54,-1.89,-0.35,20.63
159910,0.155184,-0.096624,1.00284,1.4,-1.82,-0.35,20.64
159922,0.156648,-0.095648,1.007232,1.33,-1.75,-0.07,20.64
159934,0.157136,-0.097112,1.008696,0.91,-1.68,0.07,20.61
159945,0.15616,-0.096136,1.011136,0.91,-1.54,0.21,20.59
159957,0.154208,-0.101016,1.009672,0.56,-1.61,0.07,20.59
159968,0.15372,-0.10736,1.014064,0.98,-1.82,-0.07,20.61
159980,0.154208,-0.10248,1.014064,1.12,-1.96,-0.21,20.62
159992,0.154696,-0.101504,1.014064,0.98,-2.24,-0.28,20.62
160003,0.154696,-0.099064,1.014552,0.84,-2.59,-0.28,20.59
160020,0.157136,-0.10492,1.016016,0.49,-2.73,-0.35,20.62
160032,0.155184,-0.105408,1.013576,0.98,-3.08,-0.42,20.62
160044,0.158112,-0.101504,1.009184,1.33,-3.22,-0.42,20.61
160056,0.156648,-0.099064,1.00772,1.4,-3.08,-0.49,20.58
160067,0.157624,-0.095648,1.006744,1.05,-3.15,-0.35,20.58
160079,0.162016,-0.09516,1.003816,0.63,-3.08,-0.07,20.6
160091,0.162504,-0.098576,0.999912,0.42,-2.73,-0.07,20.61
160103,0.159088,-0.10248,1.004304,0.77,-2.73,-0.21,20.61
160114,0.159576,-0.099064,1.0004,0.91,-2.66,-0.21,20.62
160126,0.158112,-0.098576,0.996008,1.12,-2.59,-0.14,20.62
160138,0.16104,-0.09272,0.998936,0.91,-2.45,-0.07,20.61
160150,0.164456,-0.093696,0.999912,0.84,-2.1,0.28,20.62
160162,0.159088,-0.09272,1.001376,0.7,-1.96,0.42,20.62
160173,0.160064,-0.094672,1.002352,0.42,-2.03,0.49,20.61
160185,0.154696,-0.096624,1.004792,0.42,-1.96,0.49,20.64
160196,0.152256,-0.101504,1.00528,1.26,-2.24,0.28,20.64
160208,0.152744,-0.097112,1.004792,1.33,-2.45,0.49,20.66
160219,0.154208,-0.096136,1.00528,0.91,-2.38,0.35,20.66
160231,0.152744,-0.099064,1.009184,0.35,-2.24,0.49,20.63
160242,0.150792,-0.104432,1.00772,0.63,-2.38,0.42,20.62
160254,0.15128,-0.107848,1.008696,1.26,-2.59,0.21,20.62
160266,0.151768,-0.103944,1.009184,1.47,-2.66,0.0,20.66
160278,0.151768,-0.105408,1.004792,1.54,-2.59,-0.21,20.64
160289,0.150304,-0.0976,1.008208,1.19,-2.66,-0.07,20.64
160302,0.15372,-0.098576,1.008696,0.7,-2.38,-0.07,20.62
160313,0.153232,-0.104432,1.009184,0.42,-2.24,-0.21,20.62
160325,0.150304,-0.1098,1.010648,0.84,-2.31,-0.35,20.6
160337,0.152744,-0.108824,1.009672,1.12,-2.45,-0.42,20.69
160349,0.152256,-0.105408,1.010648,1.33,-2.52,-0.63,20.69
160361,0.154208,-0.103456,1.007232,1.05,-2.45,-0.84,20.64
160372,0.155184,-0.101992,1.009184,0.84,-2.31,-0.91,20.63
160384,0.155184,-0.101992,1.00528,0.63,-2.52,-0.91,20.63
160396,0.1586,-0.101016,1.003816,0.77,-2.45,-0.84,20.61
160408,0.155672,-0.098088,1.006744,0.98,-2.38,-0.91,20.61
160420,0.157624,-0.09516,1.001864,0.91,-2.52,-0.84,20.62
160431,0.15616,-0.099552,1.001864,0.7,-2.24,-0.7,20.6
160444,0.159576,-0.095648,1.003328,0.98,-2.31,-0.42,20.6
160456,0.159088,-0.089304,1.005768,0.56,-2.03,-0.35,20.62
160467,0.156648,-0.095648,1.006744,0.63,-1.82,-0.21,20.63
160479,0.155184,-0.093208,1.00772,0.77,-1.96,-0.07,20.63
160491,0.155184,-0.099064,1.009672,0.42,-2.1,0.0,20.64
160502,0.15616,-0.101992,1.00772,0.77,-2.24,-0.14,20.63
160515,0.157136,-0.101016,1.006744,1.05,-2.31,-0.14,20.63
160527,0.157136,-0.09516,1.005768,0.98,-2.31,-0.07,20.64
160538,0.160064,-0.0976,1.001376,0.91,-2.03,-0.07,20.64
160550,0.162016,-0.10004,1.000888,0.84,-1.89,0.07,20.64
160562,0.156648,-0.10004,1.004792,0.84,-1.96,0.21,20.59
160573,0.159088,-0.101992,1.003816,1.05,-2.03,0.0,20.59
160585,0.162504,-0.098576,1.00284,0.84,-2.03,0.07,20.68
160596,0.159088,-0.0976,1.008696,0.49,-1.89,0.21,20.61
160608,0.15372,-0.095648,1.008208,0.42,-2.1,0.14,20.61
160620,0.150792,-0.101504,1.006256,0.28,-2.24,0.07,20.6
160631,0.14884,-0.10492,1.003328,0.91,-2.52,-0.21,20.6
160643,0.152744,-0.101992,1.00528,1.47,-2.73,-0.21,20.64
160654,0.155184,-0.094672,1.007232,1.33,-2.87,-0.14,20.66
160666,0.155184,-0.092232,1.00528,0.77,-2.52,0.07,20.66
160677,0.155672,-0.099552,1.00772,0.42,-2.38,0.28,20.64
160689,0.155184,-0.101992,1.008208,0.91,-2.52,0.14,20.62
160700,0.15372,-0.103944,1.006256,1.54,-2.66,0.0,20.62
160712,0.154696,-0.099552,1.003816,1.54,-2.66,-0.14,20.59
160724,0.156648,-0.099552,1.004304,1.12,-2.52,-0.21,20.59
160735,0.156648,-0.097112,1.005768,0.63,-2.38,-0.14,20.59
160748,0.155672,-0.10004,1.009184,0.21,-2.17,-0.07,20.61
160759,0.153232,-0.102968,1.01016,0.28,-2.45,-0.07,20.61
160771,0.150792,-0.101504,1.011624,0.98,-2.66,-0.14,20.6
160783,0.15128,-0.098088,1.009672,1.26,-2.8,-0.07,20.6
160794,0.153232,-0.096136,1.01016,1.33,-3.01,-0.21,20.6
160806,0.154208,-0.0976,1.011136,1.12,-3.15,-0.14,20.64
160817,0.155184,-0.101504,1.007232,0.91,-3.15,0.0,20.64
160828,0.159088,-0.100528,1.00772,0.56,-3.29,0.21,20.65
160840,0.160552,-0.102968,1.007232,0.63,-3.01,0.07,20.62
160851,0.158112,-0.105408,1.006256,0.77,-3.15,-0.21,20.62
160863,0.1586,-0.103456,1.003328,1.19,-3.15,-0.56,20.66
160875,0.160552,-0.101016,1.00284,1.26,-3.01,-0.56,20.63
160886,0.160552,-0.09516,1.000888,1.12,-2.94,-0.35,20.63
160898,0.161528,-0.092232,1.0004,0.84,-2.66,-0.21,20.62
160909,0.159088,-0.091256,1.003328,0.49,-2.52,0.07,20.62
160921,0.156648,-0.092232,1.008208,0.35,-2.45,0.35,20.67
160932,0.15616,-0.098088,1.010648,0.7,-2.52,0.42,20.6
160944,0.15616,-0.099552,1.009672,1.05,-2.66,0.42,20.6
160955,0.157136,-0.100528,1.007232,1.33,-2.8,0.28,20.64
160967,0.155184,-0.097112,1.006256,1.05,-2.87,0.35,20.64
160978,0.157624,-0.102968,1.006744,0.91,-3.01,0.21,20.58
160989,0.153232,-0.101016,1.003816,0.91,-3.15,0.07,20.63
161000,0.156648,-0.101016,1.003816,0.98,-3.29,0.0,20.63
161011,0.150304,-0.10492,1.003328,1.19,-3.29,-0.28,20.61
161023,0.15128,-0.101504,1.004304,1.54,-3.43,-0.21,20.61
161035,0.155672,-0.099552,1.001864,1.61,-3.43,-0.21,20.61
161046,0.155184,-0.099064,1.00284,1.47,-3.43,-0.07,20.62
161058,0.1586,-0.100528,1.001864,1.26,-3.29,-0.07,20.62
161069,0.160064,-0.099064,0.999424,1.33,-3.08,0.14,20.62
161081,0.160064,-0.101016,1.00284,1.19,-2.8,0.07,20.63
161092,0.157136,-0.103456,1.00528,1.19,-2.73,0.0,20.63
161104,0.158112,-0.104432,1.002352,0.98,-2.45,0.07,20.62
161116,0.157136,-0.108336,1.003816,0.98,-2.31,-0.07,20.62
161128,0.158112,-0.104432,1.003328,1.12,-2.17,-0.14,20.59
161140,0.15616,-0.099552,1.004304,0.77,-2.1,0.0,20.61
161151,0.159576,-0.10248,1.01016,0.77,-1.82,0.0,20.61
161163,0.157624,-0.101992,1.013088,0.49,-1.96,0.07,20.61
161174,0.154208,-0.105896,1.009672,0.84,-1.96,-0.21,20.57
161186,0.155672,-0.103456,1.012112,1.19,-2.24,-0.35,20.57
161197,0.155184,-0.10004,1.016016,1.19,-2.45,-0.49,20.63
161209,0.154696,-0.095648,1.016992,0.7,-2.59,-0.28,20.63
161221,0.155672,-0.096136,1.014552,0.28,-2.87,-0.21,20.63
161232,0.15616,-0.103456,1.011624,0.7,-3.01,-0.35,20.59
161244,0.157136,-0.101992,1.008696,0.91,-3.01,-0.35,20.59
161256,0.157136,-0.101016,1.009672,1.05,-3.08,-0.28,20.63
161267,0.157624,-0.098576,1.009184,1.26,-3.22,-0.28,20.61
161279,0.162992,-0.095648,1.002352,0.91,-3.08,-0.28,20.61
161291,0.162992,-0.0976,1.001376,0.63,-2.73,-0.21,20.63
161303,0.162992,-0.10004,0.998448,0.56,-2.45,-0.14,20.63
161315,0.162504,-0.098088,0.998448,0.49,-2.17,0.07,20.65
161326,0.159576,-0.097112,1.0004,0.49,-2.03,0.0,20.61
161337,0.155184,-0.098088,1.003816,0.63,-2.17,0.0,20.61
161349,0.153232,-0.098088,1.003328,0.91,-2.38,-0.07,20.66
161361,0.153232,-0.0976,1.001376,0.98,-2.52,-0.21,20.65
161372,0.155184,-0.098576,1.004304,0.84,-2.52,-0.28,20.65
161384,0.155184,-0.096136,1.008208,0.56,-2.59,-0.21,20.65
161395,0.155184,-0.098576,1.007232,0.42,-2.66,-0.14,20.65
161407,0.155672,-0.105896,1.006744,1.12,-2.73,-0.28,20.66
161418,0.156648,-0.105896,1.002352,1.96,-2.8,-0.28,20.56
161430,0.158112,-0.10248,0.99552,2.17,-2.73,-0.28,20.56
161441,0.160552,-0.094672,0.996008,1.82,-2.59,-0.21,20.61
161453,0.160552,-0.094184,0.996984,0.77,-2.24,-0.14,20.61
161464,0.160064,-0.102968,1.001376,0.14,-2.03,-0.07,20.57
161475,0.155184,-0.10736,1.004792,0.42,-1.96,-0.28,20.62
161487,0.155672,-0.105408,1.003328,0.91,-2.31,-0.42,20.62
161499,0.1586,-0.102968,1.007232,1.05,-2.24,-0.35,20.63
161511,0.156648,-0.10004,1.01016,1.4,-2.31,-0.42,20.6
161523,0.160064,-0.097112,1.006744,1.26,-2.31,-0.14,20.6
161534,0.16104,-0.099552,1.008208,0.77,-2.03,0.07,20.63
161546,0.157624,-0.103456,1.009672,0.77,-2.24,0.0,20.63
161557,0.158112,-0.104432,1.009184,0.91,-2.38,0.0,20.63
161569,0.16104,-0.104432,1.007232,1.33,-2.45,-0.21,20.62
161581,0.158112,-0.10248,1.005768,1.26,-2.66,-0.21,20.62
161592,0.159576,-0.098088,1.0004,1.4,-2.73,-0.14,20.66
161603,0.164456,-0.098088,0.998936,0.98,-2.52,-0.21,20.61
161614,0.16104,-0.098088,1.004304,0.91,-2.38,-0.21,20.61
161626,0.16104,-0.097112,1.003816,0.84,-2.38,-0.14,20.62
161638,0.160064,-0.095648,1.006744,0.91,-2.31,-0.14,20.62
161649,0.158112,-0.10004,1.003328,1.61,-2.45,0.0,20.61
161661,0.155184,-0.095648,1.007232,1.89,-2.52,0.14,20.58
161672,0.159088,-0.088816,1.005768,1.54,-2.59,0.28,20.58
161684,0.16104,-0.091744,1.011136,0.7,-2.45,0.56,20.62
161695,0.160064,-0.10004,1.011624,0.91,-2.31,0.49,20.62
161706,0.157136,-0.10492,1.010648,1.33,-2.59,0.42,20.67
161717,0.152744,-0.101016,1.008696,1.54,-2.87,0.28,20.64
161729,0.155184,-0.107848,1.00772,1.82,-3.01,0.14,20.64
161741,0.1586,-0.101504,1.00772,1.47,-2.87,0.0,20.6
161752,0.159088,-0.099552,1.005768,1.12,-2.8,-17.92,20.59
161764,0.155184,-0.101016,1.005768,0.77,-2.52,0.07,20.59
161775,0.153232,-0.108824,1.003328,1.33,-2.45,-0.07,20.62
161787,0.154208,-0.101504,1.009184,1.54,-2.59,-0.07,20.62
161799,0.155184,-0.102968,1.011136,1.4,-2.59,-0.14,20.62
161811,0.154696,-0.103456,1.00772,0.98,-2.45,-0.35,20.59
161822,0.155184,-0.105896,1.009184,1.05,-2.24,-0.49,20.59
161834,0.1586,-0.102968,1.005768,1.4,-2.45,-0.56,20.6
161846,0.155184,-0.097112,1.009672,1.05,-2.59,-0.56,20.59
161858,0.158112,-0.103456,1.00772,0.77,-2.38,-0.63,20.59
161869,0.155184,-0.101504,1.009184,0.84,-2.38,-0.7,20.62
161880,0.154696,-0.105408,1.004304,1.26,-2.45,-0.7,20.62
161892,0.157624,-0.100528,1.002352,1.54,-2.59,-0.84,20.59
161903,0.159088,-0.091744,1.004792,1.26,-2.38,-0.7,20.6
161915,0.160552,-0.091744,1.004304,0.84,-2.31,-0.77,20.6
161926,0.158112,-0.096136,1.001864,0.56,-2.17,-0.56,20.65
161938,0.159576,-0.096624,1.004792,0.91,-1.96,-0.42,20.65
161950,0.1586,-0.096136,1.005768,1.26,-2.1,-0.28,20.6
161961,0.157624,-0.096136,1.008696,1.33,-2.1,-0.14,20.59
161973,0.157624,-0.094184,1.010648,1.33,-2.31,-0.21,20.59
161984,0.157624,-0.092232,1.009672,1.12,-2.59,-0.28,20.61
161996,0.160064,-0.097112,1.00772,1.05,-2.66,-0.35,20.59
162008,0.159576,-0.100528,1.00284,1.12,-2.73,-0.21,20.59
162020,0.163968,-0.096136,1.006744,1.12,-2.8,-0.21,20.64
162031,0.16348,-0.095648,1.00528,0.91,-2.59,-0.21,20.64
162042,0.160552,-0.099064,1.001864,1.12,-2.59,-0.28,20.6
162053,0.160064,-0.101992,0.999424,1.61,-2.8,-0.35,20.6
162065,0.164456,-0.099064,0.99796,1.75,-2.73,-0.28,20.6
162076,0.162016,-0.093208,1.000888,1.4,-2.8,-0.28,20.66
162088,0.159576,-0.09272,1.003816,0.77,-2.52,-0.35,20.65
162100,0.157624,-0.0976,1.005768,0.91,-2.73,-0.49,20.65
162111,0.15616,-0.101504,1.000888,1.33,-3.01,-0.63,20.65
162123,0.157136,-0.099552,1.000888,2.03,-3.08,-0.7,20.65
162134,0.159088,-0.094184,1.001864,2.52,-3.29,-0.7,20.66
162146,0.159576,-0.089792,1.004304,2.1,-3.15,-0.49,20.62
162157,0.159088,-0.092232,1.000888,1.61,-2.87,-0.21,20.62
162169,0.161528,-0.096624,0.998448,1.61,-2.87,0.0,20.65
162181,0.16836,-0.100528,0.999424,1.96,-2.87,0.0,20.64
162193,0.167872,-0.098576,0.99796,2.24,-2.8,-0.21,20.64
162204,0.169824,-0.09516,1.000888,2.03,-2.8,-0.14,20.64
162216,0.171288,-0.098088,1.004304,1.68,-2.66,-0.35,20.64
162227,0.169336,-0.09272,1.008696,1.26,-2.73,-0.21,20.63
162238,0.169824,-0.101016,1.010648,1.4,-3.08,-0.07,20.64
162250,0.164944,-0.101504,1.009672,1.96,-3.29,0.0,20.64
162261,0.162016,-0.099064,1.016992,2.52,-3.78,0.28,20.61
162273,0.157136,-0.092232,1.01992,2.52,-4.13,0.63,20.61
162284,0.159088,-0.092232,1.01748,2.31,-4.55,0.84,20.68
162296,0.155672,-0.098088,1.013088,2.1,-4.83,0.77,20.64
162307,0.152256,-0.107848,1.0126,2.45,-5.32,0.77,20.64
162318,0.15616,-0.116144,1.008208,3.15,-5.88,0.42,20.62
162330,0.153232,-0.11224,1.0004,3.57,-6.09,0.21,20.62
162341,0.158112,-0.110288,0.99552,3.5,-5.88,0.21,20.61
162352,0.162992,-0.11224,0.99064,3.15,-5.32,0.0,20.67
162364,0.168848,-0.114192,0.989664,2.87,-4.69,-0.07,20.67
162376,0.1708,-0.109312,0.990152,2.94,-3.92,-0.49,20.65
162387,0.17324,-0.108336,0.987224,2.59,-3.01,-0.49,20.64
162398,0.171776,-0.105896,0.99064,2.45,-2.38,-0.56,20.64
162410,0.167872,-0.095648,1.001864,1.68,-2.03,-0.35,20.63
162422,0.160064,-0.093696,1.010648,0.7,-1.75,-0.28,20.63
162433,0.154208,-0.093696,1.021872,0.14,-1.89,-0.35,20.6
162445,0.155184,-0.095648,1.025288,0.35,-1.89,-0.63,20.64
162457,0.157624,-0.093696,1.02968,0.42,-1.61,-0.84,20.64
162469,0.15372,-0.09516,1.0248,0.7,-1.61,-0.91,20.65
162480,0.15616,-0.089792,1.02724,0.49,-1.61,-0.77,20.58
162492,0.15616,-0.082472,1.026264,-0.07,-1.75,-0.7,20.58
