timestamp_ms,ax,ay,az,gx,gy,gz,tempC
1966994,0.87596,0.098576,0.913048,15.05,-28.91,9.94,21.57
1967006,0.874984,0.055144,0.891088,3.5,-30.309999,12.95,21.57
1967017,0.853024,0.135664,0.91256,-8.12,-35.84,16.309999,21.59
1967029,0.865224,0.064904,0.911584,-16.799999,-38.290001,18.27,21.59
1967041,0.876448,-0.054168,0.873032,-16.52,-41.09,18.059999,21.59
1967052,0.856928,-0.10248,0.821792,-9.45,-46.549999,18.690001,21.55
1967064,0.85644,-0.074664,0.801784,-1.54,-52.43,19.809999,21.55
1967075,0.871568,-0.037576,0.78812,4.48,-57.189999,23.030001,21.54
1967087,0.879864,0.053192,0.808616,2.45,-61.950001,27.299999,21.54
1967098,0.903288,0.099552,0.830576,-5.95,-63.98,29.889999,21.54
1967110,0.892552,0.026352,0.841312,-7.21,-66.709999,31.5,21.54
1967121,0.898408,0.010248,0.842288,-7.63,-71.75,34.09,21.54
1967132,0.916464,-0.06588,0.811544,-7.07,-75.949997,34.860001,21.54
1967145,0.924272,-0.10248,0.762744,-4.9,-79.870003,35.77,21.52
1967156,0.93208,-0.100528,0.735904,-4.83,-84.910004,37.450001,21.52
1967168,0.937448,-0.099064,0.709064,-4.34,-89.879997,40.599998,21.62
1967179,0.940864,-0.031232,0.736392,-7.35,-95.830002,44.240002,21.62
1967191,0.982344,0.059536,0.711992,-19.950001,-98.910004,49.279999,21.58
1967202,1.017968,0.018544,0.682712,-32.970001,-98.0,52.080002,21.58
1967214,0.98576,-0.035624,0.7076,-35.77,-101.150002,51.240002,21.58
1967225,0.95892,-0.018544,0.721264,-35.349998,-108.150002,50.959999,21.56
1967237,1.00284,0.019032,0.662704,-41.580002,-114.169998,55.299999,21.55
1967249,1.02724,-0.03904,0.53924,-43.330002,-111.720001,54.529999,21.55
1967261,0.96868,-0.090768,0.509472,-38.919998,-112.07,54.25,21.55
1967273,0.935496,-0.147376,0.5246,-18.48,-117.599998,53.27,21.48
1967286,0.915488,-0.12688,0.499712,0.63,-123.129997,53.48,21.48
1967299,0.884744,-0.058072,0.45872,13.65,-126.0,57.68,21.57
1967312,0.903288,-0.146888,0.33672,30.450001,-129.009995,62.02,21.57
1967324,0.892552,-0.0732,0.24888,40.18,-130.479996,64.330002,21.57
1967335,0.925736,-0.018544,0.193248,39.34,-108.779999,71.540001,21.54
1967346,0.935008,-0.052704,0.191296,38.080002,-118.019997,75.18,21.54
1967358,0.87108,-0.054656,0.220088,31.639999,-118.860001,77.489998,21.55
1967369,0.871568,-0.122,0.189832,24.360001,-115.989998,79.589996,21.58
1967381,0.857416,-0.162016,0.144448,19.040001,-110.32,82.110001,21.58
1967393,0.811056,-0.18544,0.106872,21.280001,-111.019997,85.610001,21.52
1967404,0.821304,-0.16592,0.10004,21.629999,-106.470001,88.339996,21.54
1967415,0.811056,-0.179096,0.054656,26.67,-105.0,91.139999,21.54
1967427,0.800808,-0.201056,0.018056,32.970001,-105.07,91.769997,21.59
1967438,0.828624,-0.181536,-0.025864,33.25,-97.230003,91.769997,21.59
1967450,0.801296,-0.174216,-0.044408,26.18,-88.550003,93.309998,21.56
1967461,0.781288,-0.188368,-0.035624,24.15,-86.730003,96.32,21.54
1967473,0.823256,-0.172752,-0.057096,24.5,-75.459999,98.0,21.54
1967485,0.787632,-0.132248,-0.03172,13.58,-68.949997,100.870003,21.6
1967496,0.735904,-0.220088,0.000488,5.11,-75.040001,105.0,21.6
1967507,0.751032,-0.292312,-0.013176,7.56,-76.089996,105.209999,21.55
1967519,0.77104,-0.2806,-0.030256,4.55,-68.739998,105.910004,21.54
1967530,0.747616,-0.266936,-0.059048,-2.66,-62.16,107.379997,21.54
1967542,0.72224,-0.244,-0.100528,-9.66,-59.150002,111.019997,21.56
1967554,0.733952,-0.237656,-0.084912,-19.110001,-56.0,113.470001,21.52
1967565,0.717848,-0.300608,-0.074176,-19.67,-51.66,113.050003,21.52
1967577,0.673928,-0.338184,-0.077104,-15.82,-51.310001,114.940002,21.54
1967589,0.68076,-0.3782,-0.052216,-14.14,-51.240002,117.599998,21.54
1967600,0.674416,-0.438224,-0.05612,-11.41,-50.82,119.139999,21.54
1967611,0.672464,-0.387472,-0.056608,-15.33,-49.490002,122.849998,21.54
1967623,0.652944,-0.4026,-0.064904,-21.139999,-47.669998,125.860001,21.54
1967634,0.6222,-0.444568,-0.05612,-24.290001,-45.290001,129.570007,21.59
1967647,0.587552,-0.51484,-0.059048,-26.67,-45.57,132.580002,21.55
1967658,0.567544,-0.516304,-0.09272,-27.58,-45.150002,135.449997,21.55
1967669,0.54168,-0.502152,-0.122488,-29.959999,-44.59,137.270004,21.56
1967681,0.524112,-0.5368,-0.17812,-32.200001,-42.630001,137.619995,21.56
1967692,0.492392,-0.592432,-0.197152,-35.560001,-41.509998,139.369995,21.59
1967704,0.466528,-0.637816,-0.213256,-35.700001,-40.950001,140.0,21.52
1967716,0.42456,-0.66612,-0.220088,-37.450001,-41.09,139.089996,21.52
1967727,0.40016,-0.693448,-0.240584,-39.689999,-40.599998,137.270004,21.57
1967739,0.379176,-0.774456,-0.221552,-39.900002,-38.290001,133.979996,21.55
1967751,0.338184,-0.864248,-0.246928,-36.540001,-35.209999,129.009995,21.55
1967763,0.288896,-0.93208,-0.280112,-28.49,-35.700001,124.459999,21.61
1967775,0.27328,-0.95648,-0.342576,-24.780001,-35.139999,117.18,21.61
1967787,0.259128,-0.9882,-0.38796,-25.059999,-34.299999,107.730003,21.6
1967798,0.254736,-1.008208,-0.411872,-31.99,-31.709999,100.940002,21.57
1967810,0.225944,-1.097024,-0.377224,-36.049999,-28.35,89.949997,21.57
1967821,0.174216,-1.192184,-0.34404,-40.18,-26.110001,75.040001,21.59
1967833,0.124928,-1.242448,-0.347944,-43.610001,-25.41,54.810001,21.56
1967845,0.10004,-1.306376,-0.377712,-48.09,-24.780001,35.630001,21.56
1967857,0.081008,-1.4152,-0.421632,-55.720001,-21.84,13.44,21.61
1967869,0.0,-1.574288,-0.496296,-60.200001,-19.110001,-11.55,21.61
1967881,-0.062952,-1.663592,-0.549,-65.169998,-18.059999,-35.91,21.54
1967893,-0.053192,-1.624064,-0.583648,-75.669998,-17.43,-60.830002,21.59
1967905,-0.05124,-1.731424,-0.709552,-74.410004,-14.7,-93.449997,21.59
1967917,-0.090768,-1.882216,-0.902312,-63.139999,-16.030001,-131.179993,21.55
1967929,-0.172752,-1.957856,-1.143384,-53.41,-17.85,-170.029999,21.55
1967941,-0.263032,-2.09108,-1.30784,-33.110001,-16.940001,-215.320007,21.55
1967953,-0.3782,-2.09352,-1.39324,-6.16,-15.33,-273.0,21.54
1967965,-0.55388,-2.138416,-1.511336,38.43,-12.53,-332.149994,21.54
1967977,-0.828624,-2.226256,-1.684576,112.209999,-4.69,-395.709991,21.54
1967988,-1.209264,-2.29116,-1.759728,215.460007,-18.549999,-440.929993,21.53
1968000,-1.584536,-1.866112,-1.91296,339.220001,-49.77,-487.829987,21.53
1968011,-1.62504,-1.69336,-2.221864,475.299988,-77.699997,-537.599976,21.57
1968023,-1.755336,-1.489864,-2.7328,667.72998,-119.559998,-554.469971,21.6
1968035,-1.747528,-1.211216,-3.072448,870.309998,-184.940002,-559.02002,21.6
1968046,-1.660664,-0.79788,-3.082696,1018.640015,-258.160004,-548.799988,21.54
1968058,-1.720688,-0.631472,-2.70596,1073.800049,-330.820007,-538.090027,21.55
1968069,-2.000312,-0.3416,-2.136952,1029.839966,-391.859985,-539.559998,21.55
1968081,-2.01788,-0.374784,-1.780712,826.070007,-414.190002,-532.140015,21.54
1968093,-1.849032,-0.73444,-1.640168,573.929993,-347.619995,-554.820007,21.54
1968105,-2.01544,-0.465064,-2.053504,347.059998,-271.179993,-560.909973,21.57
1968116,-2.381928,0.81008,-2.49368,87.57,-245.0,-571.409973,21.54
1968128,-2.096936,1.6714,-2.64496,-175.770004,-197.539993,-548.169983,21.54
1968140,-1.464488,1.928576,-2.518568,-320.109985,-116.830002,-565.530029,21.52
1968152,-2.287744,2.026664,-1.922232,-322.839996,-32.060001,-550.619995,21.52
1968164,-1.99348,2.765496,-1.570872,-233.380005,-27.370001,-511.910004,21.52
1968175,-0.982344,3.338408,-1.04676,-177.309998,6.72,-417.480011,21.53
1968187,-0.375272,4.010872,-0.451888,-152.320007,-4.27,-345.660004,21.53
1968198,0.467016,3.299856,-0.387472,-128.729996,83.160004,-270.480011,21.55
1968209,0.36844,3.028528,-0.478728,-66.360001,17.290001,-154.070007,21.52
1968221,0.72956,2.57908,-0.465552,-28.77,8.33,-84.559998,21.52
1968233,0.502152,2.14964,-0.172752,9.59,-9.03,-77.769997,21.52
1968244,0.710528,1.830488,0.123464,29.469999,-11.55,-51.59,21.51
1968255,0.573888,1.7324,0.274256,39.970001,-24.360001,-70.489998,21.51
1968268,0.491904,1.641632,0.214232,45.360001,-15.96,-79.519997,21.56
1968281,0.594384,1.759728,0.1342,23.24,1.4,-75.040001,21.5
1968293,0.404552,1.935408,0.133224,1.68,-4.9,-77.629997,21.5
1968304,0.308416,1.906128,0.115656,-18.48,-6.65,-59.080002,21.52
1968315,0.202032,1.667496,0.081984,-20.299999,-5.67,-29.190001,21.52
1968327,0.221064,1.569896,0.11224,-19.809999,-15.68,-7.49,21.5
1968339,0.36844,1.419104,0.023912,-23.030001,-16.870001,-0.91,21.55
1968351,0.413336,1.346392,-0.025864,-37.240002,-10.08,-4.2,21.55
1968363,0.435296,1.242448,-0.00732,-55.509998,-5.74,-13.58,21.59
1968375,0.340624,1.152656,-0.056608,-57.119999,-6.65,-24.709999,21.49
1968386,0.346968,1.148752,-0.091744,-51.240002,-2.1,-28.49,21.49
1968398,0.147376,1.014064,-0.08784,-37.52,-7.14,-21.139999,21.57
1968410,0.391864,1.031632,0.063928,-37.52,-6.51,-7.49,21.57
1968421,0.48556,1.143384,0.09028,-57.470001,-3.5,-5.11,21.59
1968432,0.398208,0.933056,-0.067832,-57.119999,-4.27,-1.96,21.55
1968444,0.364536,0.868152,-0.176656,-33.389999,-13.3,0.49,21.55
1968455,0.389912,0.922808,-0.203984,-16.66,-19.809999,5.81,21.51
1968467,0.345016,0.882304,-0.066856,-18.83,-23.66,8.61,21.51
1968478,0.42456,0.911096,-0.0732,-34.720001,-18.200001,11.55,21.52
1968490,0.467992,0.83936,-0.166408,-51.52,-12.74,6.86,21.53
1968501,0.406992,0.730048,-0.2074,-40.459999,-11.34,1.05,21.53
1968512,0.366488,0.784704,-0.213256,-20.719999,-8.82,-1.26,21.53
1968523,0.336232,0.823256,-0.145424,-19.74,-11.2,-0.56,21.55
1968535,0.355264,0.853512,-0.121024,-34.509998,-14.7,3.29,21.55
1968546,0.404064,0.867664,-0.188856,-47.599998,-17.43,2.8,21.55
1968558,0.416264,0.784216,-0.235216,-51.869999,-17.5,-1.82,21.55
1968569,0.372832,0.777384,-0.244488,-40.740002,-18.48,-6.37,21.52
1968581,0.379664,0.816424,-0.24156,-29.889999,-17.99,-9.66,21.51
1968592,0.382104,0.9272,-0.279136,-29.469999,-14.56,-9.1,21.51
1968604,0.396256,0.975512,-0.269376,-47.389999,-9.59,-8.61,21.54
1968616,0.432856,0.989664,-0.218136,-69.230003,-3.78,-8.61,21.54
1968627,0.424072,0.967704,-0.167384,-88.199997,-0.56,-9.8,21.51
1968639,0.419192,1.016992,-0.244,-101.779999,2.38,-9.17,21.53
1968650,0.423584,1.098976,-0.25864,-125.790001,6.23,-9.31,21.53
1968662,0.453352,1.120448,-0.1586,-157.220001,12.32,-9.45,21.55
1968674,0.430904,1.08336,0.0244,-193.059998,16.309999,-9.38,21.5
1968685,0.428952,1.070184,0.05612,-236.25,21.0,-6.79,21.5
1968697,0.469456,1.139968,0.091256,-287.070007,27.299999,-7.07,21.54
1968708,0.47824,1.21512,0.084424,-351.679993,37.73,-6.23,21.54
1968720,0.438224,1.19316,0.074664,-415.940002,48.02,-9.38,21.52
1968731,0.387472,1.04188,0.118096,-473.200012,56.700001,-11.97,21.52
1968742,0.347456,0.999912,0.156648,-517.369995,59.849998,-9.1,21.52
1968754,0.36112,0.992104,0.243024,-557.619995,69.650002,-10.01,21.54
1968766,0.345992,0.940864,0.336232,-578.549988,73.849998,-8.75,21.54
1968777,0.294264,0.784216,0.39772,-589.330017,72.099998,-6.16,21.54
1968789,0.276208,0.536312,0.465064,-580.299988,71.82,-4.62,21.6
1968801,0.286944,0.38796,0.530456,-557.690002,67.970001,1.75,21.6
1968812,0.279624,0.260104,0.571936,-519.820007,69.790001,2.38,21.54
1968824,0.242048,0.098576,0.675392,-471.100006,64.68,4.13,21.54
1968836,0.218624,0.05612,0.78568,-435.679993,58.099998,5.04,21.54
1968847,0.210816,0.054656,0.828136,-386.890015,51.380001,4.83,21.55
1968858,0.228384,-0.015616,0.937936,-353.640015,45.990002,9.1,21.55
1968870,0.232776,0.007808,0.896456,-319.059998,40.110001,8.96,21.58
1968881,0.170312,-0.157136,0.808128,-284.76001,27.51,5.88,21.53
1968892,0.271328,-0.220088,0.972584,-248.360001,37.450001,10.99,21.53
1968904,0.227896,-0.239608,0.974048,-214.550003,34.790001,18.34,21.48
1968916,0.232776,-0.277672,0.934032,-182.979996,31.290001,13.44,21.55
1968927,0.229848,-0.306952,0.91012,-153.229996,26.389999,11.34,21.55
1968939,0.248392,-0.262544,0.920368,-129.710007,24.01,10.57,21.6
1968950,0.217648,-0.20496,0.930616,-112.629997,20.790001,6.72,21.6
1968962,0.211304,-0.187392,0.911096,-107.800003,21.42,6.58,21.53
1968974,0.185928,-0.365024,0.881816,-94.010002,23.1,-0.84,21.53
1968985,0.16836,-0.474336,0.837896,-74.620003,20.299999,-3.64,21.53
1968997,0.16836,-0.452864,0.83448,-62.650002,18.41,-6.65,21.53
1969008,0.15372,-0.467016,0.798368,-51.240002,18.059999,-9.31,21.5
1969020,0.125416,-0.47824,0.820328,-32.759998,15.12,-13.58,21.5
1969032,0.130784,-0.371368,0.875472,-22.049999,11.9,-14.14,21.55
1969043,0.1708,-0.311344,0.97356,-23.940001,10.36,-12.25,21.55
1969055,0.173728,-0.345504,1.037,-24.01,7.21,-9.8,21.56
1969067,0.174216,-0.386984,1.042368,-15.89,3.85,-8.26,21.54
1969079,0.189832,-0.407968,0.977464,-4.06,1.19,-6.93,21.54
1969090,0.201544,-0.386984,0.98576,6.65,1.12,-7.49,21.53
1969102,0.183976,-0.330864,1.003816,12.32,-0.42,-7.14,21.5
1969114,0.183,-0.277672,1.014064,9.73,-0.28,-7.77,21.5
1969126,0.18544,-0.31232,0.991128,9.24,-0.14,-8.47,21.55
1969138,0.195688,-0.303536,1.001376,8.19,0.21,-8.26,21.55
1969150,0.19764,-0.288408,0.991128,3.43,1.33,-7.56,21.54
1969162,0.189344,-0.320128,0.978928,4.69,1.33,-7.21,21.57
1969174,0.191296,-0.316712,0.976,7.63,0.07,-6.58,21.57
1969185,0.182024,-0.322568,0.95404,8.47,-1.05,-6.02,21.54
1969196,0.198128,-0.311832,0.938912,9.52,-1.12,-5.25,21.55
1969208,0.203008,-0.30744,0.964776,10.29,-0.84,-4.48,21.55
1969219,0.200568,-0.325984,0.963312,12.53,-1.61,-3.78,21.55
1969231,0.1952,-0.3294,0.9516,13.93,-2.17,-3.15,21.55
1969243,0.192272,-0.267912,0.93208,11.69,-2.59,-2.59,21.53
1969254,0.1952,-0.245952,0.941352,4.83,-1.33,-1.68,21.5
1969266,0.199592,-0.254248,0.968192,-3.36,0.21,-0.7,21.5
1969278,0.184952,-0.317688,0.979904,-3.64,0.21,-0.35,21.55
1969289,0.18544,-0.32208,0.956968,-0.63,-0.77,0.63,21.56
1969300,0.182512,-0.360144,0.935496,4.06,-0.35,0.21,21.56
1969312,0.176168,-0.338672,0.955992,8.33,-0.63,0.21,21.51
1969324,0.174216,-0.31964,0.972096,9.03,-0.49,-0.07,21.51
1969335,0.167872,-0.340624,0.986736,11.06,-1.12,-0.91,21.52
1969347,0.171288,-0.332328,0.984296,13.23,-2.1,-1.82,21.5
1969358,0.176168,-0.32208,0.986736,12.11,-2.17,-2.45,21.5
1969369,0.178608,-0.2806,0.99064,9.59,-1.89,-1.54,21.55
1969381,0.178608,-0.284992,0.989664,4.69,-1.4,-0.63,21.55
1969393,0.174216,-0.2806,0.986248,-1.19,-1.54,0.84,21.56
1969405,0.169824,-0.3538,0.967216,-3.15,-1.61,1.19,21.53
1969416,0.162016,-0.376736,0.953552,0.28,-2.8,1.12,21.53
1969428,0.170312,-0.3294,0.974536,2.31,-3.43,1.47,21.54
1969439,0.165432,-0.292312,0.9882,0.84,-3.64,2.1,21.5
1969450,0.16104,-0.317688,0.970144,0.21,-4.06,2.24,21.5
1969461,0.161528,-0.305976,0.959896,-0.56,-4.27,3.08,21.52
1969472,0.1708,-0.340136,0.943304,-0.49,-3.64,3.01,21.52
1969484,0.176168,-0.346968,0.953064,0.07,-3.29,2.66,21.53
1969495,0.171776,-0.314272,0.980392,-1.19,-3.5,2.73,21.5
1969506,0.167384,-0.335256,0.976,-1.26,-4.13,2.24,21.5
1969518,0.166896,-0.375272,0.935008,1.26,-3.85,0.42,21.52
1969529,0.170312,-0.380152,0.92232,5.11,-3.43,-1.26,21.52
1969541,0.17568,-0.327936,0.946232,4.83,-3.15,-1.4,21.54
1969552,0.177632,-0.325496,0.962336,2.52,-2.73,-1.47,21.53
1969563,0.163968,-0.314272,0.96868,2.73,-3.36,-1.26,21.53
1969574,0.174216,-0.335744,0.947696,3.57,-3.36,-1.68,21.54
1969586,0.184952,-0.294752,0.947696,2.38,-2.87,-0.42,21.54
1969598,0.182024,-0.268888,0.965264,-1.89,-1.61,0.84,21.52
1969609,0.171776,-0.2928,0.960872,-5.11,-1.54,1.75,21.54
1969620,0.172264,-0.351848,0.945256,-3.71,-1.68,1.19,21.54
1969632,0.175192,-0.374296,0.94184,2.31,-2.38,0.49,21.55
1969643,0.183488,-0.362096,0.94672,6.51,-2.31,-0.77,21.55
1969654,0.17568,-0.316712,0.969168,6.65,-2.1,-1.26,21.55
1969666,0.170312,-0.301584,0.985272,4.34,-2.17,-1.61,21.51
1969677,0.174704,-0.282552,0.98576,0.49,-2.45,-0.63,21.51
1969688,0.179584,-0.327936,0.981856,-1.05,-2.8,-0.42,21.53
1969700,0.17568,-0.36356,0.96624,2.73,-3.36,-0.49,21.51
1969711,0.176656,-0.33916,0.967216,5.88,-4.2,-0.21,21.51
1969723,0.17568,-0.313296,0.974048,5.81,-4.48,0.07,21.52
1969734,0.16836,-0.308416,0.984784,5.95,-5.25,0.63,21.52
1969746,0.170312,-0.30256,0.981368,5.53,-6.51,1.68,21.53
1969757,0.18056,-0.325496,0.973072,4.27,-6.44,2.31,21.52
1969769,0.171288,-0.340624,0.979416,4.9,-6.72,2.45,21.52
1969780,0.156648,-0.353312,0.986736,6.79,-7.91,2.17,21.52
1969791,0.151768,-0.364048,0.99064,10.43,-9.59,1.82,21.52
1969803,0.152256,-0.381128,0.972584,14.35,-10.71,2.1,21.55
1969814,0.137616,-0.365024,0.99308,20.370001,-13.79,3.43,21.51
1969825,0.142496,-0.33428,1.053592,25.27,-18.34,5.39,21.51
1969837,0.13176,-0.35136,1.098488,33.599998,-24.219999,7.07,21.5
1969848,0.116632,-0.414312,1.09556,48.790001,-31.92,7.42,21.5
1969859,0.101016,-0.476776,1.053104,67.339996,-40.599998,7.28,21.48
1969871,0.103456,-0.520208,1.014064,96.25,-49.560001,6.51,21.5
1969882,0.108336,-0.46848,1.035536,126.980003,-57.330002,7.0,21.5
1969894,0.112728,-0.389424,1.12972,150.990005,-70.209999,7.49,21.55
1969906,0.091744,-0.313296,1.229272,168.979996,-84.0,9.52,21.5
1969917,0.068808,-0.21472,1.23952,183.190002,-97.790001,15.05,21.5
1969929,0.0976,-0.11224,1.214632,189.839996,-107.379997,22.33,21.5
1969940,0.148352,-0.055144,1.226344,184.869995,-114.169998,29.26,21.5
1969952,0.144448,0.019032,1.280512,177.309998,-121.099998,36.400002,21.52
1969963,0.1586,0.09028,1.328824,165.899994,-128.240005,37.450001,21.5
1969975,0.20984,0.028304,1.29076,164.710007,-132.020004,50.610001,21.5
1969987,0.111752,0.123464,1.275144,179.270004,-143.850006,59.220001,21.53
1969998,0.112728,0.089792,1.27612,191.800003,-163.100006,68.32,21.48
1970009,0.204472,0.263032,1.21268,187.600006,-169.610001,75.25,21.48
1970021,0.274744,0.394792,1.15412,166.039993,-168.070007,81.970001,21.48
1970032,0.313784,0.368928,1.125816,144.339996,-163.520004,84.769997,21.48
1970044,0.321104,0.381128,1.11264,124.739998,-163.520004,89.669998,21.53
1970055,0.350384,0.362584,1.05652,113.260002,-163.169998,93.099998,21.5
1970066,0.353312,0.345992,1.008208,110.459999,-165.550003,96.389999,21.5
1970078,0.4026,0.296704,1.014064,122.360001,-172.339996,99.400002,21.5
1970089,0.449936,0.299144,1.000888,135.169998,-176.539993,101.639999,21.5
1970101,0.509472,0.315736,0.951112,137.059998,-177.309998,124.809998,21.54
1970113,0.527528,0.38796,0.89304,127.82,-181.020004,112.910004,21.53
1970125,0.529968,0.457256,0.8296,110.809998,-180.880005,122.779999,21.53
1970136,0.606584,0.442128,0.770064,97.089996,-178.220001,130.690002,21.55
1970147,0.628056,0.423096,0.749568,92.540001,-175.699997,133.210007,21.53
1970159,0.631472,0.404552,0.740296,86.239998,-175.0,141.259995,21.53
1970170,0.64416,0.346968,0.68564,81.550003,-175.770004,144.899994,21.47
1970181,0.65636,0.338672,0.581696,70.629997,-174.300003,152.110001,21.47
1970193,0.725168,0.322568,0.495808,59.220001,-168.910004,159.669998,21.51
1970204,0.696376,0.322568,0.507032,45.220001,-161.910004,156.800003,21.49
1970216,0.68076,0.320616,0.518256,32.41,-161.0,167.020004,21.49
1970227,0.658312,0.26596,0.462136,18.41,-161.699997,170.309998,21.54
1970239,0.700768,0.16592,0.357216,4.69,-155.610001,153.160004,21.54
1970251,0.694912,0.021472,0.244976,-1.68,-149.029999,178.779999,21.47
1970263,0.690032,0.045872,0.183488,-12.25,-144.199997,179.830002,21.52
1970274,0.621224,-0.015128,0.127856,-20.51,-136.850006,172.830002,21.52
1970286,0.677344,-0.11468,0.061976,-18.129999,-122.43,185.990005,21.54
1970297,0.544608,-0.152256,0.0366,-12.32,-141.889999,182.630005,21.54
1970308,0.713456,-0.101504,0.045872,-10.57,-119.349998,187.039993,21.54
1970320,0.639768,-0.176168,0.038552,-5.67,-116.339996,183.330002,21.5
1970331,0.5978,-0.228384,-0.013664,-4.55,-117.739998,183.75,21.5
1970343,0.64172,-0.275232,-0.102968,-10.92,-111.510002,185.5,21.55
1970355,0.609024,-0.299144,-0.142984,-23.52,-109.339996,186.970001,21.47
1970367,0.590968,-0.305488,-0.116144,-39.130001,-99.540001,191.589996,21.47
1970379,0.525576,-0.33916,-0.133224,-50.82,-94.779999,194.460007,21.51
1970391,0.429928,-0.460184,-0.199104,-52.290001,-99.120003,187.110001,21.54
1970403,0.487512,-0.589504,-0.249856,-39.970001,-91.839996,185.990005,21.54
1970416,0.424072,-0.582672,-0.270352,-24.219999,-90.93,180.949997,21.5
1970428,0.427976,-0.584136,-0.284016,-12.88,-91.209999,181.509995,21.52
1970439,0.456768,-0.549488,-0.274256,-13.02,-81.970001,178.080002,21.52
1970451,0.445056,-0.604632,-0.274256,-20.370001,-74.620003,175.699997,21.53
1970462,0.419192,-0.645624,-0.279624,-31.219999,-69.93,173.740005,21.53
1970474,0.379664,-0.75152,-0.321104,-36.259998,-64.120003,170.240005,21.51
1970486,0.344528,-0.854488,-0.3172,-34.790001,-60.689999,163.169998,21.49
1970497,0.312808,-0.96624,-0.296704,-29.190001,-57.330002,155.259995,21.49
1970509,0.281576,-0.986736,-0.303536,-25.200001,-59.43,145.039993,21.5
1970521,0.281088,-1.028216,-0.354288,-21.280001,-56.700001,123.830002,21.5
1970532,0.273768,-1.177544,-0.420656,-12.39,-53.549999,99.050003,21.5
1970544,0.351848,-1.216584,-0.410408,-9.24,-62.09,117.739998,21.52
1970556,0.249368,-1.305888,-0.38796,-7.07,-61.880001,102.339996,21.52
1970568,0.242048,-1.350784,-0.369904,-16.799999,-59.990002,88.970001,21.51
1970579,0.223016,-1.491816,-0.382104,-25.76,-58.939999,70.349998,21.5
1970591,0.219112,-1.589416,-0.457256,-27.58,-54.810001,48.580002,21.5
1970603,0.20496,-1.688968,-0.498248,-27.370001,-50.470001,25.83,21.52
1970615,0.188856,-1.718736,-0.533384,-22.33,-45.849998,3.64,21.54
1970627,0.16104,-1.756312,-0.542168,-19.67,-37.66,-20.790001,21.54
1970639,0.11712,-1.811456,-0.62464,-12.25,-28.84,-46.759998,21.5
1970651,0.101016,-1.842688,-0.787144,-7.77,-17.85,-75.25,21.53
1970664,0.133224,-1.813896,-0.826184,-4.48,-8.82,-109.970001,21.53
1970675,0.078568,-1.81536,-0.791536,-7.98,-3.15,-144.410004,21.52
1970687,0.020008,-1.802672,-0.779336,-15.89,1.05,-169.539993,21.52
1970698,-0.043432,-1.862208,-0.813496,-13.51,6.51,-197.470001,21.51
1970710,-0.064416,-1.809016,-0.895968,-2.1,9.87,-224.350006,21.49
1970721,-0.081008,-1.799744,-0.992104,23.17,18.969999,-249.199997,21.49
1970733,-0.15616,-1.769,-1.046272,59.290001,25.76,-280.630005,21.51
1970745,-0.223992,-1.687992,-1.061888,92.330002,29.26,-314.230011,21.48
1970756,-0.31232,-1.589904,-1.112152,131.949997,37.099998,-346.149994,21.48
1970768,-0.331352,-1.51036,-1.122888,171.009995,39.27,-369.600006,21.48
1970780,-0.419192,-1.477664,-1.075064,219.660004,37.450001,-392.769989,21.48
1970791,-0.479704,-1.133136,-1.062864,254.660004,28.700001,-415.869995,21.54
1970803,-0.501664,-1.208776,-1.0004,296.940002,19.32,-434.279999,21.48
1970814,-0.660752,-1.000888,-0.941352,330.119995,-0.49,-444.149994,21.48
1970826,-0.335256,-0.955992,-0.896944,370.160004,5.67,-435.190002,21.49
1970838,-0.831064,-0.493856,-0.870592,402.149994,-32.900002,-473.410004,21.5
1970850,-0.996496,-0.221552,-0.805688,434.0,-77.980003,-479.079987,21.5
1970862,-1.143872,0.07076,-0.792512,458.359985,-98.769997,-501.619995,21.51
1970874,-1.0248,0.218624,-0.920368,495.390015,-148.679993,-490.0,21.51
1970885,-1.458144,0.450424,-0.874496,529.200012,-175.910004,-531.440002,21.48
1970896,-1.702144,0.66368,-0.825696,544.039978,-214.410004,-535.780029,21.46
1970908,-2.092056,0.977952,-0.9028,518.909973,-256.619995,-503.579987,21.46
1970920,-2.177944,1.682624,-1.378112,404.109985,-294.420013,-454.720001,21.47
1970932,-1.965176,2.777208,-1.617232,232.050003,-310.589996,-435.679993,21.46
1970943,-1.563064,3.62584,-1.953464,2.31,-299.670013,-415.940002,21.46
1970955,-0.769576,3.0622,-1.67872,-194.880005,-281.820007,-392.559998,21.5
1970967,-0.242536,2.241384,-1.187304,-369.390015,-158.199997,-332.570007,21.5
1970978,-0.614392,1.60796,-0.887672,-352.029999,-94.57,-228.339996,21.48
1970990,-0.085888,2.193072,-0.850584,-212.800003,-51.799999,-150.5,21.49
1971003,0.479216,2.99632,-1.2322,-105.07,-47.110001,-128.729996,21.49
1971015,0.577792,2.105232,-1.360056,-48.369999,-23.17,-125.790001,21.53
1971027,0.473848,1.716296,-0.88816,18.83,-16.17,-91.139999,21.49
1971039,0.45872,2.333616,-0.313296,15.05,-9.24,-67.410004,21.49
1971050,0.4026,2.333616,-0.18788,-20.02,-12.32,-54.389999,21.51
1971062,0.38796,1.98128,-0.289872,-22.4,3.22,-21.139999,21.5
1971074,0.586576,1.673352,-0.407968,-12.11,19.110001,21.35,21.5
1971085,0.154208,1.69824,-0.416752,-2.03,5.25,-1.96,21.54
1971097,0.217648,1.640656,-0.411872,-15.12,-0.84,14.98,21.54
1971110,0.3416,1.561112,-0.240096,-51.310001,10.29,23.030001,21.5
1971121,0.27572,1.370304,-0.15616,-82.25,3.22,17.290001,21.49
1971133,0.337208,1.086288,-0.092232,-82.389999,9.52,14.98,21.49
1971144,0.213256,1.013576,-0.11956,-57.119999,9.8,6.86,21.5
1971156,0.215696,1.0004,-0.145424,-39.130001,3.15,9.03,21.43
1971167,0.204472,1.020896,-0.183,-38.150002,-3.22,10.29,21.43
1971179,0.299632,0.933544,-0.236192,-35.279999,-4.48,14.77,21.47
1971192,0.301584,0.931104,-0.364536,-25.549999,-6.37,17.99,21.49
1971204,0.345992,0.894992,-0.39772,-18.9,-5.18,18.48,21.49
1971215,0.278648,0.640744,-0.28304,-8.19,-7.07,17.360001,21.48
1971226,0.2562,0.699792,-0.206424,6.02,-13.93,17.709999,21.48
1971238,0.291336,0.800808,-0.26596,-0.49,-18.48,13.44,21.55
1971250,0.313296,0.7564,-0.363072,-8.75,-17.99,9.52,21.48
1971261,0.311832,0.74664,-0.393816,-11.48,-15.75,5.25,21.48
1971273,0.318664,0.732,-0.373808,-8.54,-12.32,3.29,21.49
1971284,0.308416,0.708576,-0.306464,-5.81,-8.05,3.15,21.49
1971297,0.311832,0.720776,-0.28792,-4.69,-5.81,3.64,21.51
1971310,0.334768,0.7442,-0.320616,-4.48,-7.7,0.98,21.5
1971321,0.333792,0.766648,-0.363072,-1.12,-10.99,-0.7,21.5
1971332,0.33672,0.816912,-0.401136,0.49,-14.0,-3.71,21.53
1971346,0.34404,0.864248,-0.419192,-0.98,-10.92,-3.92,21.48
1971358,0.323544,0.843264,-0.337696,-1.54,-7.56,-4.06,21.48
1971370,0.284016,0.787144,-0.303048,1.4,-3.92,-1.12,21.5
1971381,0.294752,0.877424,-0.3294,-1.89,-3.29,-1.33,21.45
1971393,0.289384,0.87352,-0.369904,-9.24,-3.01,-2.45,21.45
1971405,0.300608,0.904752,-0.401136,-12.39,-4.27,-3.92,21.53
1971418,0.31476,0.928176,-0.403088,-14.0,-4.2,-5.25,21.52
1971429,0.300608,0.864248,-0.357704,-5.46,-2.66,-3.43,21.52
1971441,0.284016,0.896456,-0.322568,2.73,-2.52,-1.4,21.48
1971453,0.305488,0.959896,-0.330376,-16.73,-0.91,0.42,21.48
1971465,0.302072,0.969656,-0.347456,-10.99,1.05,1.96,21.49
1971478,0.318176,1.004304,-0.35624,-27.23,4.27,1.82,21.47
1971490,0.30256,0.93208,-0.33672,-34.439999,8.05,0.7,21.47
1971501,0.267912,0.908656,-0.293288,-31.92,7.98,-0.14,21.48
1971513,0.276208,0.932568,-0.27328,-23.309999,8.4,0.84,21.44
1971525,0.274744,0.989664,-0.279624,-23.59,6.93,1.54,21.44
1971536,0.291824,1.025776,-0.285968,-36.610001,7.07,4.06,21.46
1971549,0.309392,1.116056,-0.282064,-75.879997,7.98,5.81,21.48
1971561,0.381616,1.035536,-0.257176,-97.089996,14.07,7.35,21.48
1971572,0.332328,1.011624,-0.219112,-107.660004,17.15,6.51,21.45
1971584,0.309392,0.860832,-0.191784,-87.849998,15.47,4.41,21.46
1971595,0.268888,0.827648,-0.155672,-69.580002,12.6,3.36,21.46
1971607,0.30012,0.947696,-0.178608,-66.639999,10.78,4.06,21.54
1971618,0.337208,1.056032,-0.199592,-79.870003,9.24,4.41,21.54
1971629,0.36356,1.133624,-0.194712,-108.150002,10.15,5.95,21.48
1971641,0.372344,1.199016,-0.1464,-148.330002,13.72,8.05,21.5
1971652,0.365512,0.996984,-0.086864,-156.449997,17.5,6.51,21.5
1971664,0.296704,0.87108,-0.062952,-153.160004,19.459999,7.91,21.49
1971675,0.289872,0.950136,-0.049776,-148.539993,16.66,7.84,21.49
1971687,0.333304,0.938424,-0.015128,-145.949997,17.99,5.6,21.48
1971698,0.295728,0.89548,0.008784,-143.570007,18.620001,4.55,21.46
1971709,0.311344,1.006256,0.045872,-155.399994,17.639999,5.95,21.46
1971721,0.332816,1.139968,0.071248,-184.869995,18.620001,7.0,21.52
1971732,0.359656,1.194624,0.030744,-212.309998,24.15,8.68,21.52
1971743,0.357704,1.10288,0.056608,-238.210007,26.25,9.17,21.49
1971755,0.330376,0.996008,0.133224,-260.190002,25.83,9.45,21.48
1971767,0.32696,1.009184,0.174216,-285.179993,30.450001,13.09,21.48
1971778,0.325008,0.99064,0.247904,-307.369995,30.59,12.88,21.48
1971790,0.329888,1.009184,0.264984,-335.230011,35.84,14.84,21.46
1971801,0.3172,0.984784,0.303536,-354.410004,40.040001,15.26,21.46
1971812,0.310856,0.884744,0.351848,-364.980011,40.669998,13.72,21.5
1971824,0.309392,0.881816,0.397232,-387.869995,40.950001,14.98,21.5
1971835,0.322568,0.87108,0.423096,-409.779999,39.619999,14.84,21.5
1971847,0.32696,0.807152,0.505568,-425.670013,39.48,15.82,21.48
1971858,0.304512,0.706624,0.569984,-438.269989,38.43,15.68,21.48
1971869,0.279136,0.508008,0.673928,-430.850006,33.950001,15.96,21.48
1971881,0.269376,0.347456,0.72712,-405.51001,31.5,16.52,21.48
1971892,0.260592,0.277184,0.742248,-375.619995,22.959999,16.379999,21.46
1971904,0.257664,0.181536,0.699304,-334.390015,13.23,10.43,21.44
1971915,0.310856,0.132248,0.833992,-295.26001,15.54,12.53,21.44
1971927,0.274256,0.122976,0.90036,-258.160004,10.5,12.53,21.47
1971938,0.279624,0.101992,0.926712,-227.009995,4.06,10.71,21.46
1971949,0.298168,0.050752,0.896944,-199.779999,3.15,10.71,21.46
1971961,0.295728,0.015616,0.914024,-169.399994,0.91,10.01,21.47
1971972,0.28304,0.083936,0.917928,-151.550003,-1.75,12.67,21.47
1971984,0.318176,0.101992,0.925736,-147.490005,0.49,12.25,21.48
1971995,0.299632,0.057584,0.926712,-146.929993,5.04,10.99,21.43
1972007,0.290848,-0.030744,0.938912,-144.270004,7.28,11.62,21.43
1972018,0.294264,-0.137128,0.949648,-131.880005,9.45,6.79,21.47
1972030,0.282552,-0.2074,0.952088,-113.610001,7.98,5.6,21.47
1972041,0.273768,-0.167384,0.942816,-100.870003,5.46,7.7,21.49
1972052,0.277672,-0.115656,0.954528,-94.360001,5.81,7.63,21.46
1972064,0.2684,-0.114192,0.948672,-87.150002,6.65,8.89,21.46
1972076,0.274744,-0.115168,0.9394,-78.610001,6.86,8.68,21.46
1972087,0.27572,-0.06832,0.933544,-79.099998,7.35,9.52,21.46
1972099,0.284016,-0.093696,0.942816,-81.620003,9.73,9.8,21.48
1972110,0.259128,-0.287432,0.95892,-75.25,9.94,7.56,21.46
1972122,0.239608,-0.287432,0.957456,-60.130001,6.09,4.62,21.46
1972134,0.255712,-0.252784,0.938424,-49.77,6.44,3.01,21.46
1972145,0.254248,-0.277672,0.937448,-39.41,5.04,1.4,21.43
1972156,0.262056,-0.168848,0.950624,-31.639999,4.06,1.47,21.43
1972168,0.271328,-0.172264,0.943792,-28.91,4.55,2.31,21.45
1972179,0.264496,-0.182512,0.923296,-26.25,4.2,2.1,21.45
1972191,0.256688,-0.244488,0.93208,-21.91,3.85,0.98,21.48
1972202,0.249856,-0.248392,0.94184,-19.25,2.66,-0.07,21.46
1972214,0.2562,-0.230824,0.94916,-20.440001,2.94,-1.47,21.46
1972225,0.241072,-0.25376,0.959408,-17.57,2.38,-2.66,21.43
1972237,0.25376,-0.24156,0.931104,-12.46,2.03,-2.38,21.41
1972249,0.285968,-0.25132,0.937448,-7.49,2.66,-1.68,21.41
1972260,0.266936,-0.225944,0.94428,-4.13,2.59,-0.84,21.45
1972272,0.259128,-0.197152,0.97356,-4.55,2.59,-0.21,21.45
1972284,0.24888,-0.162016,0.974536,-9.66,2.59,0.98,21.48
1972296,0.264008,-0.18544,0.961848,-15.33,3.36,1.89,21.44
1972307,0.258152,-0.25132,0.947696,-15.68,3.36,1.19,21.44
1972318,0.257664,-0.259128,0.962336,-13.72,2.38,1.12,21.46
1972330,0.249368,-0.279624,0.969656,-11.9,1.61,0.7,21.46
1972341,0.235704,-0.303048,0.964288,-5.39,0.49,0.35,21.47
1972352,0.23912,-0.28548,0.964776,0.77,-0.42,-0.28,21.46
1972362,0.240584,-0.271328,0.962824,5.95,-1.05,-0.77,21.46
1972374,0.248392,-0.279136,0.9516,9.1,-1.19,-0.84,21.43
1972386,0.255224,-0.223992,0.955504,7.91,-1.05,-0.35,21.43
1972396,0.254248,-0.19764,0.964776,0.0,0.21,-0.14,21.46
1972407,0.238144,-0.22692,0.977952,-3.85,0.35,-0.07,21.46
1972418,0.250344,-0.249856,0.975512,-3.99,-0.28,0.35,21.46
1972429,0.259128,-0.281088,0.955992,-3.5,-0.07,-0.56,21.41
1972441,0.252296,-0.294752,0.956968,-1.4,0.14,-1.12,21.41
1972452,0.243024,-0.296216,0.95404,1.89,-0.14,-1.54,21.44
1972463,0.245464,-0.311344,0.955016,6.16,-0.49,-2.24,21.49
1972474,0.250344,-0.26352,0.969168,7.63,-0.63,-1.96,21.49
1972485,0.244,-0.22692,0.980392,6.58,-0.91,-0.91,21.44
1972496,0.237656,-0.223992,0.969656,3.15,-0.63,-0.63,21.44
1972507,0.242048,-0.236192,0.984296,-0.28,-0.49,-0.91,21.46
1972518,0.237168,-0.245952,0.968192,-3.08,0.0,-1.19,21.4
1972529,0.236192,-0.266448,0.962336,-2.24,-0.07,-1.96,21.4
1972541,0.243024,-0.246928,0.97356,-1.96,-0.07,-1.54,21.49
1972552,0.250832,-0.269376,0.9638,-0.35,0.28,-1.54,21.49
1972563,0.23912,-0.27084,0.961848,2.45,0.0,-1.47,21.41
1972573,0.231312,-0.237656,0.962824,2.45,-0.35,-1.19,21.43
1972584,0.222528,-0.269376,0.948184,4.9,-0.91,-1.12,21.43
1972595,0.236192,-0.221064,0.960872,6.58,-0.98,-0.63,21.45
1972606,0.242536,-0.186904,0.972096,3.01,-0.7,0.84,21.45
1972617,0.249856,-0.188856,0.975512,-2.8,-0.42,1.68,21.43
1972628,0.245464,-0.219112,0.970144,-5.67,0.28,2.52,21.43
1972639,0.2318,-0.260104,0.956968,-6.65,0.21,1.96,21.41
1972650,0.22936,-0.289872,0.945256,-3.29,-0.14,1.68,21.45
1972661,0.240584,-0.27084,0.938912,0.0,-0.28,1.33,21.45
1972672,0.240096,-0.264496,0.96136,1.89,-0.35,1.26,21.46
1972683,0.2318,-0.257176,0.986736,4.41,-1.68,1.19,21.46
1972694,0.228872,-0.247904,0.979904,5.25,-1.47,1.19,21.48
1972705,0.220088,-0.2928,0.930616,6.93,-2.1,0.42,21.42
1972716,0.242536,-0.2806,0.92476,7.7,-0.91,-17.780001,21.42
1972727,0.24156,-0.23424,0.959896,4.06,-0.07,0.0,21.46
1972738,0.2318,-0.221552,1.006744,0.21,-0.21,0.14,21.46
1972749,0.22692,-0.230824,1.023824,-2.94,-0.56,0.14,21.45
1972760,0.221064,-0.252296,0.987224,-2.59,-1.68,0.49,21.42
1972771,0.223016,-0.28548,0.941352,0.63,-1.47,-0.07,21.42
1972782,0.226432,-0.311344,0.928664,3.78,-0.91,-0.14,21.48
1972793,0.221552,-0.26108,0.974048,4.62,-0.21,-0.14,21.48
1972804,0.20984,-0.239608,1.001864,2.31,-0.49,0.0,21.41
1972815,0.215208,-0.230824,1.007232,0.56,-1.05,0.28,21.41
1972826,0.214232,-0.374784,0.979904,-0.28,-1.4,0.35,21.46
1972837,0.22936,-0.284504,0.97356,0.77,-1.61,0.07,21.41
1972848,0.229848,-0.292312,0.976488,2.03,-1.68,-0.77,21.41
1972859,0.22692,-0.277184,0.99552,2.52,-2.03,-0.84,21.43
1972870,0.225944,-0.262056,1.009672,2.66,-2.59,-0.56,21.43
1972881,0.230336,-0.23668,0.876936,0.56,-2.59,-0.14,21.41
1972892,0.21716,-0.252784,0.975512,-1.19,-2.31,-0.28,21.42
1972903,0.221552,-0.262056,0.965752,-0.7,-3.01,0.0,21.42
1972914,0.2318,-0.261568,0.976,-1.89,-2.8,0.07,21.47
1972925,0.228384,-0.27084,0.979904,-1.75,-3.08,-0.28,21.47
1972936,0.233752,-0.266448,0.985272,-0.56,-3.29,-0.07,21.42
1972947,0.226432,-0.255712,0.97356,-0.42,-3.57,0.28,21.41
1972958,0.233752,-0.233264,0.963312,-1.61,-4.13,0.91,21.41
1972969,0.230336,-0.233264,0.962336,-3.92,-4.06,1.54,21.39
1972980,0.2318,-0.255224,0.962824,-4.62,-4.06,1.61,21.39
1972991,0.233752,-0.277672,0.972096,-3.57,-4.2,1.4,21.48
1973002,0.230336,-0.284992,0.975024,-0.77,-5.04,1.68,21.42
1973013,0.236192,-0.274256,0.977952,1.75,-5.81,2.1,21.42
1973024,0.238632,-0.264496,0.98088,3.43,-6.23,2.1,21.41
1973036,0.233752,-0.253272,0.995032,4.83,-7.07,2.66,21.41
1973047,0.225944,-0.252784,0.993568,5.67,-7.63,3.15,21.46
1973058,0.223504,-0.255224,0.967216,5.53,-7.7,3.08,21.43
1973069,0.227408,-0.267912,0.957456,5.67,-7.28,2.59,21.43
1973080,0.235216,-0.275232,0.972584,5.46,-7.7,2.94,21.43
1973091,0.234728,-0.258152,1.002352,5.25,-8.33,3.71,21.43
1973102,0.232776,-0.267424,1.02724,5.95,-9.87,4.9,21.42
1973113,0.222528,-0.286456,1.05652,8.54,-12.81,5.53,21.42
1973124,0.205936,-0.306464,1.068232,15.19,-16.52,5.95,21.41
1973135,0.215696,-0.294264,1.05164,21.84,-20.370001,7.07,21.48
1973146,0.220088,-0.26596,1.05652,26.459999,-24.99,8.61,21.48
1973157,0.22936,-0.227896,1.059936,27.09,-28.42,11.97,21.4
1973168,0.228384,-0.243512,1.10044,27.16,-32.689999,14.56,21.4
1973179,0.192272,-0.369416,1.15412,36.400002,-41.580002,14.77,21.45
1973189,0.171776,-0.41236,1.21756,57.189999,-52.57,14.07,21.46
1973200,0.1708,-0.4636,1.195112,83.089996,-66.779999,12.18,21.46
1973211,0.182024,-0.472384,1.095072,102.550003,-79.029999,10.5,21.46
1973222,0.191784,-0.325984,1.065792,113.050003,-87.080002,11.2,21.46
1973234,0.204472,-0.301096,1.096536,115.290001,-93.169998,9.8,21.4
1973245,0.16592,-0.267424,1.157048,123.199997,-105.0,10.99,21.43
1973257,0.164456,-0.279624,1.260504,139.089996,-121.940002,12.88,21.43
1973268,0.18788,-0.250832,1.303448,170.169998,-142.589996,13.09,21.42
1973278,0.14152,-0.041968,1.270752,196.699997,-166.949997,26.950001,21.42
1973289,0.247904,0.086376,1.221464,217.910004,-182.839996,35.0,21.44
1973300,0.325496,0.216184,1.215608,231.910004,-195.089996,45.990002,21.44
1973312,0.363072,0.362584,1.30052,229.740005,-208.740005,60.060001,21.41
1973324,0.360144,0.622688,1.44692,202.229996,-219.380005,75.599998,21.43
1973335,0.345992,0.60756,1.443016,173.880005,-222.25,82.809998,21.43
1973348,0.382104,0.708576,1.358104,143.220001,-222.949997,98.629997,21.43
1973359,0.402112,0.674904,1.307352,116.970001,-221.130005,110.599998,21.45
1973370,0.410408,0.442128,1.204872,114.379997,-220.710007,115.639999,21.45
1973382,0.386496,0.344528,1.137528,120.330002,-227.289993,125.230003,21.44
1973393,0.365512,0.306952,1.057008,124.529999,-234.990005,133.559998,21.44
1973404,0.427488,0.337208,0.99552,118.790001,-238.070007,141.960007,21.46
1973415,0.487512,0.359656,0.885232,99.610001,-235.550003,147.139999,21.43
1973426,0.542168,0.32696,0.808128,78.330002,-229.880005,154.210007,21.43
1973437,0.552416,0.250832,0.73932,67.059998,-225.330002,160.580002,21.43
1973448,0.540216,0.202032,0.656848,58.799999,-223.160004,162.119995,21.43
1973459,0.589016,0.115656,0.56852,46.27,-214.830002,161.630005,21.46
1973470,0.58072,0.050264,0.486536,38.150002,-210.979996,160.860001,21.39
1973480,0.582184,0.042456,0.426512,29.33,-203.139999,161.910004,21.39
1973491,0.595848,-0.018544,0.349408,27.58,-197.259995,164.289993,21.42
1973502,0.613904,-0.020008,0.332816,20.719999,-189.770004,163.940002,21.42
1973513,0.587064,-0.069296,0.282064,19.18,-184.169998,161.979996,21.43
1973524,0.562664,-0.142984,0.245952,20.02,-185.220001,162.470001,21.43
1973535,0.5734,-0.127368,0.206912,17.85,-185.220001,156.309998,21.44
1973546,0.6222,-0.233752,0.167384,13.93,-181.300003,162.190002,21.42
1973557,0.549,-0.249368,0.116632,11.55,-176.470001,151.479996,21.42
1973568,0.608536,-0.215208,0.065392,5.95,-172.339996,155.820007,21.48
1973579,0.518744,-0.250832,-0.002928,-0.14,-164.639999,161.979996,21.48
1973590,0.485072,-0.274744,-0.060024,-6.02,-161.139999,158.759995,21.46
1973601,0.476288,-0.278648,-0.108824,-7.35,-150.710007,163.309998,21.41
1973613,0.472384,-0.259128,-0.144936,-10.08,-149.869995,162.960007,21.41
1973625,0.494832,-0.385032,-0.153232,-5.32,-144.339996,161.490005,21.44
1973636,0.471408,-0.407968,-0.169824,1.19,-143.289993,164.009995,21.44
1973648,0.412848,-0.384544,-0.256688,-1.75,-140.279999,151.970001,21.38
1973660,0.423096,-0.443104,-0.310368,-4.2,-135.449997,163.100006,21.45
1973672,0.3538,-0.442616,-0.362096,-5.32,-134.330002,156.240005,21.45
1973683,0.347944,-0.49288,-0.408456,-5.46,-128.449997,155.259995,21.45
1973695,0.345992,-0.535336,-0.414312,-2.17,-123.830002,154.839996,21.4
1973707,0.322568,-0.567544,-0.418216,2.52,-119.279999,154.630005,21.4
1973718,0.30256,-0.575352,-0.420656,3.71,-120.68,152.039993,21.46
1973730,0.290848,-0.626592,-0.44164,3.36,-119.349998,148.960007,21.41
1973742,0.144448,-0.73932,-0.489952,-0.84,-110.809998,119.209999,21.41
1973753,0.675392,-0.697352,-0.5368,-11.34,-86.589996,160.509995,21.44
1973765,0.134688,-0.903288,-0.608048,-13.51,-99.190002,133.279999,21.44
1973776,0.190808,-1.05408,-0.690032,-14.56,-94.43,127.75,21.46
1973787,0.163968,-1.14924,-0.757376,-13.58,-88.199997,116.550003,21.42
1973798,0.171288,-1.250744,-0.796416,-13.02,-77.629997,103.110001,21.42
1973809,0.150304,-1.423984,-0.840336,-5.25,-74.690002,87.290001,21.44
1973820,0.105408,-1.628944,-0.958432,2.66,-68.949997,65.940002,21.44
1973831,0.082472,-1.77388,-1.00284,9.1,-64.68,43.189999,21.42
1973842,0.113704,-1.821216,-1.029192,9.87,-59.779999,20.790001,21.41
1973853,0.176168,-1.893928,-1.058472,3.57,-44.240002,-9.73,21.41
1973864,0.18788,-1.894416,-1.08824,-2.8,-25.129999,-39.900002,21.42
1973875,0.164944,-1.89832,-1.13216,-8.47,-8.19,-68.32,21.42
1973887,0.130784,-1.79584,-1.120448,-9.73,8.54,-96.669998,21.44
1973898,0.122488,-1.709952,-1.133136,-4.83,23.450001,-116.970001,21.38
1973909,0.089304,-1.68116,-1.2078,7.21,33.950001,-142.029999,21.38
1973920,0.079056,-1.662616,-1.272704,37.869999,39.200001,-166.25,21.43
1973931,0.06588,-1.663592,-1.287832,72.449997,45.150002,-186.830002,21.43
1973942,0.013664,-1.549888,-1.260992,92.959999,48.439999,-213.570007,21.43
1973953,-0.0732,-1.49084,-1.135576,100.589996,49.91,-241.220001,21.43
1973964,-0.140544,-1.369816,-1.01016,96.669998,50.610001,-265.019989,21.45
1973975,-0.182512,-1.486448,-0.983808,103.809998,55.650002,-289.730011,21.41
1973987,-0.305488,-1.428376,-0.983808,111.019997,67.199997,-314.089996,21.41
1973998,-0.254248,-1.393728,-1.037488,117.669998,77.349998,-325.290009,21.43
1974009,-0.226432,-1.3176,-1.05164,128.240005,100.519997,-348.390015,21.43
1974020,-0.345504,-1.37128,-1.075064,164.5,101.360001,-368.480011,21.44
1974031,-0.414312,-1.377624,-1.045784,216.369995,93.589996,-386.890015,21.4
1974042,-0.569008,-1.323456,-0.964288,274.75,73.5,-411.950012,21.4
1974053,-0.630496,-1.219024,-0.904264,351.820007,36.330002,-442.119995,21.43
1974064,-0.77592,-1.145336,-0.87352,430.640015,16.870001,-465.920013,21.43
1974078,-1.052128,-0.883768,-0.894504,511.839996,-28.0,-500.01001,21.45
1974089,-1.059936,-0.460672,-0.752984,531.929993,-68.32,-520.030029,21.43
1974100,-1.489864,-0.185928,-0.79788,567.349976,-109.129997,-531.859985,21.43
1974112,-1.607472,-0.029768,-0.737368,613.47998,-190.960007,-559.650024,21.43
1974123,-1.803648,0.842776,-1.199992,669.969971,-220.990005,-532.700012,21.44
1974134,-2.694736,1.831952,-2.066192,800.940002,-307.089996,-485.170013,21.44
1974145,-2.84504,2.257976,-2.594696,683.900024,-460.529999,-439.459991,21.45
1974156,-1.772416,1.484984,-2.095472,515.059998,-459.690002,-465.570007,21.45
1974167,-1.321992,2.638128,-1.443504,283.709991,-352.309998,-350.350006,21.39
1974178,-0.825208,3.834704,-1.176568,-88.760002,-292.459991,-234.639999,21.37
1974190,-0.15372,3.434544,-1.172176,-324.799988,-220.360001,-245.559998,21.37
1974201,-0.254736,1.948096,-1.377136,-361.970001,-149.169998,-205.589996,21.36
1974213,-0.186904,0.923296,-1.77144,-213.149994,-129.710007,-189.490005,21.36
1974224,0.223016,1.240984,-1.999824,-45.57,-94.080002,-163.309998,21.41
1974235,0.499224,1.59576,-1.73484,81.410004,-40.880001,-151.899994,21.39
1974246,0.515328,1.807064,-1.31028,87.43,-60.48,-125.019997,21.39
1974257,0.337208,1.994456,-0.942816,28.35,-28.700001,-121.589996,21.43
1974268,0.569984,2.257976,-0.818864,-40.32,2.66,-80.43,21.43
1974279,0.43188,1.918816,-0.878888,-84.980003,3.85,-62.16,21.45
1974290,0.324032,1.6958,-0.950136,-68.529999,7.0,-38.43,21.42
1974302,0.338672,1.53232,-0.95892,-26.879999,-2.73,-34.860001,21.42
1974313,0.294752,1.411296,-0.947696,-4.55,0.07,-22.4,21.41
1974324,0.288408,1.468392,-0.73932,-5.39,2.66,-15.75,21.41
1974335,0.2684,1.406416,-0.618784,-28.280001,6.02,-5.95,21.42
1974346,0.32696,1.312232,-0.5612,-54.529999,7.84,0.49,21.45
1974357,0.266936,1.181936,-0.52948,-62.02,7.07,1.05,21.45
1974368,0.233752,1.129232,-0.535336,-52.919998,4.62,1.96,21.39
1974379,0.24644,1.075064,-0.533384,-36.889999,0.91,1.4,21.39
1974390,0.223992,0.989176,-0.496784,-24.219999,-4.34,3.99,21.42
1974401,0.262544,0.92964,-0.50752,-18.690001,-8.05,7.84,21.42
1974413,0.32452,0.945256,-0.511912,-24.709999,-9.87,12.6,21.36
1974424,0.345992,0.924272,-0.5002,-35.279999,-10.78,15.12,21.38
1974435,0.345016,0.934032,-0.454816,-47.110001,-11.06,16.940001,21.38
1974447,0.30256,0.828136,-0.44164,-47.32,-11.48,18.969999,21.39
1974458,0.284016,0.748592,-0.5124,-32.759998,-7.56,24.08,21.37
1974470,0.271328,0.770064,-0.576328,-20.51,-13.86,23.030001,21.37
1974481,0.301096,0.720288,-0.576328,-19.67,-6.58,25.969999,21.42
1974492,0.293776,0.709552,-0.57584,-21.84,-9.8,23.17,21.42
1974504,0.341112,0.721752,-0.555832,-25.48,-5.6,22.469999,21.42
1974515,0.29768,0.701256,-0.52704,-25.690001,-4.76,21.49,21.39
1974526,0.244976,0.677832,-0.59048,-20.02,-7.49,21.629999,21.39
1974537,0.279624,0.693936,-0.618784,-18.9,-10.78,19.110001,21.4
1974549,0.30988,0.65636,-0.610488,-23.799999,-4.62,18.48,21.4
1974560,0.328912,0.637816,-0.604144,-25.34,-4.83,14.56,21.4
1974571,0.352336,0.678808,-0.569984,-27.440001,-2.38,12.53,21.38
1974582,0.328912,0.694912,-0.547536,-26.809999,-0.77,11.27,21.38
1974594,0.287432,0.697352,-0.563152,-24.219999,-2.03,10.08,21.42
1974605,0.315248,0.686128,-0.578768,-21.91,-2.66,10.22,21.42
1974616,0.305488,0.644648,-0.58072,-14.7,-2.03,9.73,21.38
1974627,0.35624,0.716872,-0.572424,-13.79,-3.43,7.91,21.34
1974639,0.374784,0.744688,-0.548512,-20.440001,-1.68,4.34,21.34
1974650,0.337696,0.729072,-0.569984,-23.799999,-2.1,3.22,21.38
1974662,0.354288,0.801784,-0.579256,-30.59,-2.66,4.27,21.38
1974673,0.36356,0.826184,-0.562176,-38.639999,-0.56,6.16,21.42
1974685,0.345504,0.733464,-0.515816,-31.5,0.28,6.79,21.37
1974696,0.315248,0.717848,-0.490928,-22.610001,-1.33,8.26,21.37
1974707,0.36112,0.813984,-0.469944,-30.1,-0.42,8.82,21.41
1974718,0.35868,0.859856,-0.459208,-44.73,2.59,8.12,21.41
1974730,0.344528,0.840824,-0.4636,-61.669998,4.48,7.63,21.38
1974741,0.342576,0.868152,-0.460184,-79.940002,6.09,8.89,21.39
1974753,0.373808,0.931104,-0.459208,-102.620003,8.4,9.8,21.39
1974764,0.396744,0.6954,-0.43188,-86.449997,13.09,6.02,21.36
1974775,0.328912,0.733464,-0.394792,-67.199997,8.19,7.42,21.41
1974787,0.365024,0.884744,-0.3538,-65.940002,3.78,8.75,21.41
1974798,0.381128,0.924272,-0.354288,-81.970001,5.53,8.4,21.39
1974810,0.373808,0.986248,-0.355752,-115.150002,-0.21,11.06,21.39
1974821,0.391376,1.02968,-0.338184,-146.720001,-1.96,15.4,21.38
1974833,0.398208,1.03212,-0.31964,-186.339996,8.89,12.74,21.34
1974844,0.408456,0.902312,-0.295728,-181.649994,18.059999,11.13,21.34
1974855,0.3538,0.581696,-0.23668,-156.940002,18.34,9.73,21.39
1974867,0.30012,0.720776,-0.205448,-119.0,11.34,11.55,21.39
1974878,0.38064,0.929152,-0.186904,-106.82,8.68,9.94,21.37
1974889,0.396256,0.992592,-0.184952,-118.160004,11.9,7.91,21.39
1974901,0.379176,1.061888,-0.177144,-144.619995,12.25,7.28,21.39
1974912,0.39284,1.138016,-0.162504,-169.679993,12.81,6.93,21.43
1974924,0.408456,1.133624,-0.134688,-221.270004,17.15,8.54,21.43
1974936,0.410896,1.032608,-0.072712,-255.710007,22.4,10.01,21.36
1974947,0.396744,0.996984,-0.033184,-280.140015,27.09,14.56,21.41
1974959,0.411872,1.060424,0.023424,-310.940002,30.59,18.549999,21.41
1974970,0.446032,1.1224,0.025864,-353.290009,41.860001,21.42,21.37
1974981,0.420168,1.055544,0.059048,-371.700012,46.759998,21.07,21.31
1974993,0.406992,0.992104,0.119072,-379.26001,56.139999,26.110001,21.31
1975004,0.376248,0.980392,0.15128,-385.630005,60.619999,26.74,21.36
1975015,0.393816,0.911096,0.208376,-389.130005,65.660004,27.370001,21.36
1975026,0.38552,0.831064,0.319152,-394.660004,68.18,25.129999,21.39
1975038,0.391864,0.804224,0.425536,-396.059998,72.589996,24.15,21.4
1975049,0.393328,0.73932,0.509472,-398.019989,74.830002,21.0,21.4
1975061,0.372832,0.609512,0.56608,-383.040009,76.300003,16.1,21.36
1975072,0.315248,0.6466,0.596824,-375.899994,66.779999,17.360001,21.36
1975083,0.338672,0.66124,0.62464,-369.529999,63.279999,17.15,21.36
1975094,0.305488,0.591944,0.711504,-368.970001,51.66,0.77,21.32
1975105,0.34892,0.49532,0.77104,-356.230011,36.68,-1.12,21.32
1975116,0.335256,0.404552,0.809104,-335.51001,28.209999,0.91,21.38
1975128,0.31232,0.325984,0.870104,-309.890015,11.13,3.99,21.38
1975139,0.292312,0.210816,0.862296,-271.950012,5.32,13.72,21.36
1975151,0.379664,0.1952,0.822768,-238.490005,9.31,19.18,21.36
1975162,0.375272,0.165432,0.832528,-212.380005,7.98,15.68,21.36
1975173,0.353312,0.157624,0.829112,-201.179993,10.99,15.89,21.4
1975184,0.35136,0.109312,0.785192,-190.889999,13.79,10.01,21.4
1975196,0.36112,0.004392,0.813984,-177.520004,20.860001,10.15,21.38
1975207,0.310368,-0.23912,0.864736,-155.679993,20.51,-0.14,21.37
1975219,0.324032,-0.151768,0.829112,-130.759995,18.27,-0.98,21.37
1975230,0.295728,-0.149328,0.81496,-113.540001,19.530001,-4.06,21.37
1975242,0.298168,-0.076616,0.85888,-107.029999,19.530001,-1.96,21.35
1975253,0.29036,0.0,0.887184,-104.720001,17.5,-1.82,21.35
1975264,0.293776,-0.008296,0.91012,-101.709999,16.73,-1.12,21.39
1975275,0.299632,-0.046848,0.923296,-94.849998,16.52,1.33,21.39
1975286,0.31232,-0.157136,0.952576,-83.370003,16.17,1.19,21.39
1975298,0.295728,-0.123952,0.964288,-76.650002,14.28,2.24,21.37
1975309,0.293288,-0.105896,0.98332,-71.330002,15.54,2.31,21.37
1975320,0.276696,-0.018056,1.01992,-70.980003,13.58,5.25,21.37
1975332,0.319152,0.006344,1.01748,-76.160004,16.1,8.68,21.37
1975343,0.295728,-0.177144,0.99796,-70.980003,16.030001,7.42,21.35
1975354,0.288408,-0.21228,0.97844,-60.41,14.77,5.53,21.36
1975366,0.271328,-0.267424,0.962336,-47.950001,14.28,1.05,21.36
1975377,0.25132,-0.193736,0.94672,-36.540001,11.27,-0.49,21.35
1975389,0.284016,-0.132736,0.952576,-34.650002,11.62,-1.68,21.35
1975400,0.272792,-0.21228,0.975512,-29.469999,10.71,-3.29,21.36
1975412,0.24156,-0.361608,0.99796,-21.0,6.86,-6.23,21.33
1975424,0.230336,-0.191296,0.977464,-15.05,3.01,-5.81,21.33
1975436,0.268888,-0.175192,0.945256,-13.65,3.36,-4.76,21.37
1975448,0.255712,-0.144936,0.96624,-8.54,1.68,-3.57,21.37
1975460,0.28792,-0.132736,0.98576,-8.26,0.77,-2.94,21.37
1975472,0.280112,-0.16348,0.989176,-8.19,-0.21,-2.38,21.38
1975484,0.288896,-0.17568,0.987224,-9.94,-0.07,-2.45,21.34
1975496,0.286456,-0.198128,1.00772,-9.17,0.63,-2.31,21.34
1975508,0.271328,-0.235704,0.9882,-2.94,-0.7,-3.29,21.36
1975519,0.283528,-0.186416,0.991128,1.12,-1.33,-3.29,21.36
1975531,0.282552,-0.162504,1.011136,1.82,-1.96,-2.73,21.37
1975543,0.272792,-0.159088,1.007232,2.24,-3.08,-2.24,21.37
1975555,0.279624,-0.180072,0.982832,2.1,-3.08,-1.05,21.37
1975566,0.268888,-0.176656,0.961848,1.26,-3.36,-0.07,21.37
1975578,0.271816,-0.183,0.954528,-3.36,-2.17,0.56,21.35
1975590,0.250832,-0.232776,0.9516,-2.87,-1.68,0.07,21.35
1975602,0.25132,-0.226432,0.968192,1.54,-2.66,-0.56,21.36
1975614,0.25376,-0.192272,0.976488,2.59,-3.57,-0.98,21.36
1975625,0.262056,-0.196664,0.97356,2.52,-3.15,-0.77,21.38
1975637,0.2684,-0.211304,0.964288,3.15,-2.66,-1.05,21.37
1975649,0.270352,-0.206912,0.974048,3.85,-2.73,-0.7,21.37
1975661,0.257664,-0.211792,0.972584,3.78,-2.66,-0.14,21.36
1975673,0.26108,-0.206912,0.960872,3.15,-2.38,-0.42,21.35
1975684,0.25376,-0.201056,0.966728,2.31,-2.45,-0.07,21.35
1975696,0.262544,-0.203008,0.965264,2.31,-2.31,0.0,21.38
1975707,0.262544,-0.212768,0.94184,2.38,-2.59,0.14,21.38
1975719,0.255224,-0.208376,0.945256,1.89,-2.31,-0.14,21.37
1975731,0.248392,-0.205448,0.953552,2.66,-2.73,0.42,21.39
1975743,0.259616,-0.218136,0.942328,3.99,-2.17,0.14,21.39
1975754,0.264496,-0.222528,0.952576,4.34,-1.47,-0.35,21.35
1975766,0.266936,-0.19764,0.97112,2.52,-1.47,0.07,21.35
1975777,0.266936,-0.203984,0.979904,1.12,-1.61,0.28,21.35
1975789,0.262544,-0.201544,0.972096,0.21,-1.61,0.35,21.37
1975800,0.2562,-0.193736,0.964776,-1.33,-1.47,0.63,21.37
1975812,0.26352,-0.22692,0.945256,-1.12,-0.77,0.42,21.35
1975824,0.263032,-0.224968,0.955504,0.98,-0.77,0.14,21.34
1975837,0.254248,-0.22692,0.965752,2.66,-0.98,0.07,21.34
1975849,0.250832,-0.214232,0.967704,3.22,-1.33,0.14,21.37
1975862,0.249856,-0.197152,0.95892,2.66,-1.33,0.07,21.36
1975875,0.254248,-0.2074,0.957944,1.75,-0.7,0.0,21.36
1975888,0.25376,-0.21228,0.988688,2.03,-1.12,0.42,21.37
1975902,0.259128,-0.2196,0.969656,2.31,-1.4,0.49,21.4
1975915,0.25376,-0.236192,0.955016,3.29,-0.77,-0.77,21.36
1975930,0.26108,-0.198616,0.978928,2.03,-0.35,-0.35,21.36
1975943,0.260592,-0.215696,0.994544,0.42,0.07,-0.77,21.38
1975955,0.255712,-0.215208,0.995032,0.0,-0.49,-0.7,21.36
1975967,0.24888,-0.214232,0.990152,0.49,-1.05,-0.84,21.36
1975979,0.244488,-0.197152,0.983808,1.19,-1.75,-0.49,21.36
1975991,0.251808,-0.192272,0.978928,1.05,-2.24,0.28,21.35
1976002,0.264496,-0.198128,0.975512,0.7,-1.75,0.42,21.35
1976014,0.260104,-0.208864,0.975512,1.96,-1.89,0.42,21.35
1976025,0.258152,-0.207888,0.984784,2.24,-2.17,0.35,21.35
1976036,0.25376,-0.20984,0.987712,2.24,-2.17,-0.07,21.37
1976048,0.254248,-0.204472,0.982832,2.59,-2.59,-0.14,21.36
1976060,0.260592,-0.193736,0.976976,1.68,-2.38,0.0,21.36
1976072,0.261568,-0.203008,0.976976,1.75,-2.24,0.28,21.35
1976084,0.260104,-0.216672,0.965752,1.4,-2.1,0.56,21.34
1976095,0.258152,-0.20496,0.990152,0.14,-2.03,0.77,21.34
1976106,0.255712,-0.203496,1.011136,-1.33,-2.59,1.26,21.39
1976118,0.245952,-0.201056,1.009672,-2.03,-3.29,1.82,21.35
1976130,0.248392,-0.20984,0.993568,-1.61,-3.92,2.03,21.35
1976142,0.250832,-0.242536,0.96136,0.7,-4.41,1.68,21.34
1976154,0.254736,-0.259616,0.944768,3.92,-4.62,0.7,21.34
1976166,0.25132,-0.23912,0.968192,5.11,-4.27,-0.21,21.39
1976177,0.247416,-0.198616,0.998936,3.43,-4.62,-0.07,21.35
1976190,0.25132,-0.18544,0.99796,0.0,-4.62,0.21,21.35
1976201,0.260104,-0.20008,0.980392,-2.59,-4.55,0.7,21.41
1976213,0.260592,-0.231312,0.972096,-3.29,-3.92,0.84,21.34
1976224,0.245952,-0.248392,0.972584,-1.12,-4.55,0.91,21.34
1976236,0.22936,-0.267912,0.947208,3.43,-5.6,0.35,21.38
1976247,0.228384,-0.225456,0.948184,5.74,-6.09,-0.42,21.38
1976259,0.24644,-0.177632,0.962824,3.57,-5.67,-0.35,21.41
1976271,0.256688,-0.18056,0.974048,0.42,-5.11,0.28,21.32
1976282,0.264984,-0.207888,0.96136,-1.96,-4.27,0.84,21.32
1976294,0.259128,-0.2318,0.936472,-1.54,-3.85,0.77,21.36
1976307,0.252296,-0.23668,0.931592,0.84,-3.5,0.07,21.29
1976318,0.257664,-0.2318,0.930128,2.52,-2.66,-0.7,21.29
1976331,0.2684,-0.215208,0.953064,3.5,-1.89,-1.61,21.33
1976343,0.266936,-0.195688,0.959896,2.8,-0.98,-2.45,21.35
1976355,0.27084,-0.208376,0.952576,3.15,-0.84,-3.08,21.35
1976368,0.263032,-0.188368,0.957944,2.94,-0.98,-2.94,21.36
1976380,0.267424,-0.16836,0.971608,-0.14,-0.7,-2.24,21.35
1976392,0.266448,-0.188856,0.969656,-1.75,-0.28,-1.61,21.35
1976406,0.264008,-0.178608,0.977464,-1.75,-0.49,-0.28,21.39
1976417,0.264008,-0.196176,0.972096,-1.26,-1.12,0.49,21.36
1976430,0.257176,-0.19764,0.974536,0.49,-2.59,1.4,21.36
1976442,0.265472,-0.205936,0.96868,2.38,-3.01,1.68,21.36
1976453,0.267912,-0.209352,0.976976,3.85,-2.8,1.82,21.36
1976465,0.260104,-0.189832,0.98332,3.78,-3.08,2.03,21.39
1976476,0.259616,-0.190808,0.980392,1.12,-3.22,1.89,21.32
1976487,0.259616,-0.204472,0.973072,-0.91,-3.15,1.75,21.32
1976499,0.259616,-0.217648,0.976488,-1.82,-2.94,1.54,21.36
1976511,0.260104,-0.220576,0.977952,-1.54,-3.08,1.54,21.35
1976523,0.264008,-0.227896,0.988688,-0.91,-3.15,1.54,21.35
1976535,0.257664,-0.249856,0.974048,1.61,-3.71,1.12,21.35
1976547,0.252296,-0.242048,0.954528,3.99,-3.43,0.49,21.35
1976559,0.253272,-0.2196,0.958432,4.2,-3.01,-0.21,21.38
1976571,0.254248,-0.211792,0.974536,3.08,-2.66,-0.49,21.38
1976583,0.258152,-0.20008,0.98576,1.54,-2.66,-0.42,21.38
1976595,0.267424,-0.194712,0.986736,-0.63,-2.66,0.07,21.36
1976606,0.255224,-0.205448,0.983808,-1.47,-3.36,0.7,21.33
1976617,0.250832,-0.223504,0.972096,-0.91,-3.99,1.12,21.33
1976629,0.254248,-0.23912,0.9394,0.77,-4.06,0.98,21.37
1976640,0.257664,-0.232288,0.933056,1.89,-3.22,0.56,21.37
1976652,0.258152,-0.2196,0.95892,1.82,-2.87,0.63,21.36
1976663,0.263032,-0.220576,0.978928,2.38,-3.22,0.49,21.38
1976674,0.26108,-0.211792,0.98576,3.22,-3.64,0.07,21.38
1976686,0.254736,-0.20008,0.986248,4.06,-4.41,-0.21,21.36
1976698,0.249368,-0.184952,0.989176,4.13,-5.04,0.28,21.36
1976709,0.25864,-0.185928,0.977464,3.43,-5.39,1.33,21.36
1976721,0.262544,-0.216672,0.970144,4.9,-5.74,1.89,21.35
1976732,0.25376,-0.213744,0.972584,7.56,-6.72,3.01,21.35
1976743,0.238144,-0.223992,0.986248,10.92,-8.75,4.48,21.35
1976755,0.2318,-0.193736,1.01016,14.35,-11.76,6.3,21.35
1976767,0.228872,-0.194224,1.035048,18.549999,-16.1,7.0,21.35
1976778,0.228872,-0.169824,1.06628,20.65,-20.440001,8.61,21.36
1976790,0.239608,-0.189344,1.086288,24.709999,-24.57,10.5,21.36
1976801,0.231312,-0.23912,1.07604,32.689999,-29.889999,11.97,21.32
1976813,0.21716,-0.316712,1.0492,46.689999,-36.189999,12.81,21.34
1976824,0.203008,-0.384056,1.050176,69.440002,-42.0,11.13,21.34
1976836,0.193248,-0.3538,1.06872,98.139999,-54.740002,9.73,21.39
1976847,0.210328,-0.264008,1.088728,127.610001,-64.260002,10.43,21.34
1976859,0.244,-0.184952,1.120448,152.460007,-73.639999,10.57,21.34
1976870,0.286456,-0.11468,1.141432,167.929993,-79.379997,14.42,21.37
1976882,0.320616,0.055144,1.256112,158.479996,-87.639999,22.469999,21.37
1976894,0.331352,0.150304,1.33712,133.770004,-95.480003,29.959999,21.36
1976905,0.318664,0.031232,1.38348,116.199997,-101.639999,31.85,21.34
1976917,0.290848,0.008784,1.343464,111.650002,-113.82,39.900002,21.34
1976928,0.200568,0.024888,1.30052,114.379997,-121.940002,30.379999,21.37
1976939,0.3172,0.12688,1.319552,121.239998,-136.009995,55.509998,21.37
1976951,0.305976,0.194224,1.342488,125.650002,-149.449997,68.879997,21.34
1976962,0.305,0.27572,1.36884,121.379997,-156.309998,77.07,21.36
1976973,0.311832,0.347944,1.328824,112.489998,-163.589996,87.43,21.36
1976985,0.354288,0.408944,1.31516,95.269997,-168.559998,94.779999,21.31
1976996,0.401136,0.262544,1.32736,76.93,-169.330002,103.459999,21.35
1977008,0.349408,0.326472,1.342488,64.050003,-174.649994,106.610001,21.35
1977019,0.268888,0.329888,1.321504,60.130001,-182.210007,109.059998,21.34
1977031,0.320128,0.293776,1.21512,63.279999,-194.809998,119.910004,21.34
1977042,0.398208,0.247416,1.125816,76.93,-199.009995,115.360001,21.34
1977054,0.409432,0.264496,1.043344,92.68,-202.089996,114.660004,21.32
1977065,0.442616,0.22936,0.986736,107.379997,-207.479996,119.209999,21.32
1977077,0.506544,0.275232,1.002352,115.080002,-210.350006,132.089996,21.36
1977088,0.508496,0.46116,1.02236,98.910004,-211.75,145.039993,21.36
1977100,0.572424,0.49044,0.962336,64.540001,-206.919998,157.570007,21.31
1977111,0.576816,0.437248,0.904264,27.93,-201.110001,168.979996,21.31
1977122,0.546072,0.362584,0.840336,3.64,-200.199997,174.369995,21.31
1977133,0.560224,0.25132,0.643672,-8.82,-196.419998,181.720001,21.35
1977145,0.555344,0.168848,0.647088,-12.39,-196.699997,186.059998,21.32
1977157,0.508496,0.096624,0.3904,-14.35,-192.850006,184.589996,21.32
1977168,0.542656,-0.00488,0.402112,-11.41,-187.389999,188.020004,21.33
1977180,0.507032,-0.00488,0.362584,-12.53,-186.339996,183.119995,21.33
1977192,0.421632,-0.003416,0.36356,-18.969999,-193.550003,182.350006,21.3
1977204,0.485072,-0.038552,0.32208,-22.190001,-192.220001,192.289993,21.34
1977215,0.447984,-0.09516,0.243024,-24.639999,-194.179993,187.110001,21.34
1977227,0.462624,-0.172264,0.132248,-19.040001,-182.979996,191.240005,21.37
1977238,0.411384,-0.228384,0.048312,-14.91,-177.729996,179.059998,21.32
1977250,0.579256,-0.16592,-0.045384,-22.540001,-170.940002,196.419998,21.32
1977261,0.383568,-0.183976,-0.084912,-33.810001,-164.289993,203.070007,21.39
1977273,0.346968,-0.16592,-0.138104,-47.669998,-160.649994,206.710007,21.39
1977284,0.3538,-0.225944,-0.200568,-55.860001,-147.979996,210.630005,21.33
1977296,0.30988,-0.347456,-0.232288,-57.189999,-134.470001,207.130005,21.29
1977307,0.28304,-0.447496,-0.271816,-50.400002,-121.660004,206.220001,21.29
1977319,0.222528,-0.469944,-0.323056,-38.990002,-124.529999,215.740005,21.36
1977331,0.222528,-0.424072,-0.409432,-40.18,-122.290001,222.740005,21.36
1977342,0.223504,-0.47092,-0.482144,-45.990002,-113.68,218.190002,21.38
1977354,0.160064,-0.529968,-0.562176,-58.66,-110.389999,218.960007,21.33
1977366,0.0488,-0.652944,-0.619272,-65.029999,-108.57,213.639999,21.33
1977377,0.057584,-0.790072,-0.6832,-56.700001,-102.830002,215.039993,21.34
1977389,0.072712,-0.845216,-0.725168,-41.23,-92.330002,209.369995,21.31
1977400,0.025376,-0.852048,-0.736392,-26.74,-85.82,198.940002,21.31
1977413,-0.043432,-0.840824,-0.743224,-17.08,-84.209999,191.589996,21.37
1977424,-0.026352,-0.879864,-0.724192,-13.09,-78.330002,188.860001,21.37
1977436,-0.04636,-0.88816,-0.70272,-14.28,-72.239998,184.800003,21.34
1977448,-0.061488,-0.945744,-0.701744,-20.02,-67.690002,178.639999,21.34
1977460,-0.086864,-1.036024,-0.7198,-23.309999,-60.970001,167.929993,21.34
1977471,-0.141032,-1.174128,-0.733464,-21.42,-54.110001,156.029999,21.32
1977483,-0.168848,-1.342488,-0.738344,-15.82,-50.330002,142.729996,21.34
1977495,-0.178608,-1.477664,-0.735904,-11.41,-43.889999,125.300003,21.34
1977506,-0.189344,-1.578192,-0.796416,-12.11,-38.080002,105.07,21.37
1977518,-0.176168,-1.647488,-0.826184,-17.15,-27.23,78.190002,21.3
1977531,-0.205936,-1.766072,-0.840824,-21.07,-19.530001,52.220001,21.3
1977544,-0.215696,-1.769488,-0.779824,-25.76,-13.02,25.34,21.35
1977556,-0.23424,-1.723128,-0.665144,-32.970001,-8.75,-6.93,21.27
1977569,-0.221552,-1.50304,-0.618296,-49.84,-4.83,-27.440001,21.27
1977581,-0.15128,-1.379088,-0.629032,-62.23,1.4,-44.380001,21.35
1977593,-0.10492,-1.254648,-0.684664,-68.669998,8.12,-57.189999,21.37
1977605,-0.096624,-1.187304,-0.763232,-68.809998,13.09,-68.599998,21.37
1977617,-0.10736,-1.212192,-0.755912,-58.66,13.65,-80.779999,21.36
1977628,-0.102968,-1.150704,-0.749568,-45.080002,10.43,-89.739998,21.36
1977640,-0.061,-1.196088,-0.799832,-29.959999,11.76,-106.68,21.36
1977652,-0.081496,-1.286368,-0.841312,-16.17,14.14,-121.870003,21.32
1977664,-0.123952,-1.356152,-0.903776,-2.24,15.47,-138.880005,21.32
1977676,-0.122,-1.374208,-0.975024,10.92,19.530001,-158.130005,21.34
1977688,-0.122488,-1.418128,-1.078968,15.96,23.870001,-178.779999,21.34
1977700,-0.112728,-1.451312,-1.184376,24.85,31.08,-200.130005,21.34
1977712,-0.149328,-1.445944,-1.284416,39.759998,41.860001,-222.949997,21.33
1977723,-0.19764,-1.480592,-1.356152,62.299999,52.57,-247.449997,21.33
1977735,-0.270352,-1.508408,-1.299544,102.970001,61.599998,-272.160004,21.33
1977747,-0.354288,-1.51036,-1.233176,152.880005,63.91,-297.079987,21.34
1977758,-0.472384,-1.383968,-1.217072,191.800003,65.800003,-325.429993,21.34
1977770,-0.570472,-1.23708,-1.26636,218.470001,59.5,-357.630005,21.33
1977782,-0.644648,-1.20048,-1.25904,241.570007,53.060001,-389.829987,21.32
1977794,-0.769576,-0.967704,-1.44692,268.450012,46.970001,-420.559998,21.32
1977805,-0.821792,-1.102392,-1.655296,327.73999,34.790001,-445.480011,21.36
1977817,-0.97356,-1.14436,-1.870016,433.720001,21.0,-472.920013,21.31
1977829,-1.052128,-1.11508,-1.811456,536.969971,-13.16,-507.709991,21.31
1977841,-1.146312,-0.735904,-1.55428,623.48999,-52.220001,-538.789978,21.34
1977853,-1.27612,-0.39772,-1.268312,658.419983,-98.279999,-564.130005,21.34
1977865,-1.402024,-0.258152,-0.998448,625.309998,-136.080002,-581.48999,21.3
1977877,-1.632848,-0.220576,-0.8296,574.77002,-166.389999,-601.650024,21.35
1977889,-0.775432,-0.04636,-0.658312,512.049988,-126.349998,-485.799988,21.35
1977901,-2.574688,0.110288,-0.90524,529.409973,-193.270004,-597.52002,21.35
1977913,-2.724992,0.737368,-1.008208,487.130005,-292.179993,-583.169983,21.27
1977924,-3.0012,0.99308,-1.702632,438.970001,-334.809998,-570.98999,21.27
1977936,-3.186152,2.318,-2.639592,267.190002,-358.75,-545.02002,21.34
1977948,-2.805512,4.49204,-2.265784,-7.07,-348.73999,-432.179993,21.26
1977959,-1.0492,4.346128,-0.876448,-293.230011,-296.519989,-436.730011,21.26
1977971,-0.371856,3.651216,-0.2684,-353.290009,-182.630005,-221.270004,21.32
1977983,-0.216184,2.901648,-1.233664,-247.380005,-140.210007,-152.460007,21.32
1977995,0.671,2.407304,-2.055944,-78.82,-102.269997,-136.080002,21.31
1978007,0.916952,1.660664,-1.859768,52.009998,-50.049999,-169.399994,21.29
1978018,0.46116,2.2082,-1.10044,109.269997,-28.07,-160.580002,21.29
1978030,0.88816,2.66448,-0.615856,27.93,43.610001,-117.110001,21.29
1978042,1.175104,2.721576,-0.50264,-60.48,70.769997,-66.080002,21.29
1978053,0.205448,1.998848,-0.568032,-36.540001,89.879997,-51.029999,21.29
1978065,0.275232,2.082296,-0.469944,-11.9,30.940001,-11.55,21.34
1978077,0.515816,1.931016,-0.322568,-23.73,39.759998,-1.4,21.34
1978088,0.248392,1.535736,-0.243024,-14.0,30.52,4.97,21.35
1978100,0.201544,1.602104,-0.265472,-11.2,11.13,0.49,21.27
1978111,0.267912,1.558672,-0.241072,-38.080002,8.54,-2.8,21.27
1978122,0.321592,1.469368,-0.16836,-67.550003,9.59,0.77,21.35
1978134,0.32208,1.252696,-0.081008,-75.25,7.07,-1.82,21.3
1978146,0.236192,1.024312,-0.09516,-41.369999,-5.39,2.66,21.3
1978157,0.293288,1.11508,-0.190808,-15.61,-12.25,6.37,21.3
1978168,0.313296,1.096536,-0.242048,-10.5,-13.37,11.9,21.3
1978180,0.34404,1.089704,-0.205448,-19.950001,-11.41,18.41,21.3
1978191,0.3416,1.091656,-0.199592,-42.630001,-10.78,22.33,21.24
1978202,0.332816,0.889136,-0.227896,-57.75,-7.07,21.280001,21.24
1978214,0.279136,0.734928,-0.249856,-47.25,-8.89,17.709999,21.29
1978225,0.294752,0.711016,-0.291824,-32.130001,-10.01,12.74,21.29
1978237,0.31964,0.746152,-0.29768,-29.68,-12.53,12.18,21.27
1978248,0.338672,0.77836,-0.30256,-40.18,-14.0,13.65,21.29
1978259,0.355264,0.72712,-0.299144,-45.220001,-12.25,13.02,21.29
1978271,0.332816,0.648552,-0.282064,-41.02,-13.09,13.37,21.32
1978283,0.352824,0.654896,-0.29036,-28.629999,-14.77,10.43,21.32
1978294,0.356728,0.696376,-0.306952,-15.33,-15.19,8.05,21.28
1978306,0.382592,0.754936,-0.328424,-6.37,-15.05,6.58,21.29
1978318,0.359656,0.798368,-0.3294,-5.18,-14.84,6.72,21.29
1978329,0.353312,0.860832,-0.335744,-13.79,-12.6,8.89,21.29
1978341,0.325008,0.83204,-0.340136,-25.34,-9.59,8.05,21.25
1978352,0.327448,0.794952,-0.37332,-31.639999,-9.31,6.93,21.25
1978363,0.341112,0.798856,-0.389424,-33.32,-7.28,3.5,21.27
1978374,0.338672,0.787632,-0.373808,-29.190001,-6.23,1.33,21.27
1978386,0.335256,0.81496,-0.360144,-22.120001,-5.04,0.42,21.26
1978397,0.364536,0.860344,-0.366488,-20.58,-5.53,0.63,21.22
1978409,0.371368,0.870104,-0.325008,-20.02,-1.47,1.19,21.22
1978420,0.343552,0.909144,-0.274256,-20.16,-2.45,2.94,21.28
1978432,0.375272,0.958432,-0.264008,-26.18,-2.52,3.01,21.28
1978443,0.382592,0.972096,-0.292312,-35.630001,-1.89,2.8,21.29
1978454,0.406016,0.957944,-0.33916,-47.459999,1.05,4.13,21.26
1978466,0.406992,1.061888,-0.309392,-71.260002,0.21,6.72,21.26
1978478,0.442128,1.1224,-0.22936,-100.660004,7.84,9.8,21.27
1978489,0.39528,1.065792,-0.154208,-123.129997,10.08,11.97,21.29
1978501,0.377224,1.075552,-0.108336,-141.259995,12.6,17.639999,21.29
1978512,0.399184,1.064328,-0.079544,-157.639999,13.65,23.73,21.28
1978524,0.415288,1.040416,-0.074664,-175.139999,16.379999,28.139999,21.28
1978535,0.44652,1.026264,-0.047336,-186.759995,23.52,29.190001,21.24
1978546,0.43676,1.026752,0.016104,-198.729996,27.93,30.379999,21.3
1978557,0.426512,1.078968,0.065392,-211.820007,29.049999,32.060001,21.3
1978569,0.424072,1.116056,0.096624,-239.679993,31.709999,30.59,21.28
1978581,0.441152,1.045784,0.118584,-266.209991,37.59,30.73,21.28
1978592,0.415288,0.923296,0.159088,-285.950012,40.32,28.629999,21.25
1978604,0.41724,0.93696,0.162992,-301.209991,40.459999,30.940001,21.24
1978615,0.421632,0.975024,0.196176,-316.679993,43.189999,31.780001,21.24
1978626,0.437248,1.045296,0.208864,-340.690002,47.669998,33.740002,21.25
1978637,0.443104,1.018944,0.249856,-362.390015,53.900002,34.16,21.25
1978648,0.43676,0.96624,0.300608,-374.149994,57.75,31.99,21.27
1978660,0.410896,0.900848,0.34404,-391.089996,62.02,32.619999,21.27
1978671,0.416752,0.842288,0.374784,-406.980011,66.849998,29.68,21.27
1978683,0.403088,0.783728,0.383568,-423.359985,62.369999,25.059999,21.25
1978694,0.386984,0.706136,0.383568,-435.679993,62.790001,21.07,21.31
1978705,0.408944,0.61,0.437248,-441.630005,64.610001,21.42,21.31
1978716,0.358192,0.465552,0.542168,-435.890015,58.869999,10.85,21.27
1978727,0.369904,0.369416,0.672464,-417.410004,52.43,14.91,21.27
1978738,0.354288,0.210328,0.778848,-386.190002,46.060001,12.39,21.26
1978749,0.251808,0.211304,0.893528,-363.369995,14.07,-0.77,21.26
1978761,0.420656,0.089792,0.66368,-319.549988,24.709999,8.26,21.25
1978772,0.414312,0.0122,0.7076,-281.959991,28.35,8.12,21.28
1978783,0.342576,0.098088,0.779824,-254.309998,24.360001,5.74,21.28
1978794,0.455792,0.0976,0.81008,-231.419998,33.810001,10.99,21.27
1978806,0.470432,0.00488,0.822768,-206.220001,26.6,1.12,21.27
1978817,0.377712,-0.057584,0.851072,-187.529999,29.889999,9.31,21.27
1978828,0.34404,-0.07564,0.867664,-165.339996,18.549999,2.66,21.27
1978840,0.382592,-0.066368,0.856928,-141.960007,22.540001,0.35,21.27
1978851,0.37088,-0.038552,0.82228,-127.400002,23.59,0.42,21.32
1978863,0.366488,-0.029768,0.789096,-124.809998,26.18,1.05,21.24
1978874,0.350384,-0.050264,0.762256,-126.910004,31.15,0.7,21.24
1978886,0.340624,-0.1708,0.79544,-119.559998,33.880001,-2.1,21.27
1978897,0.328912,-0.260104,0.854,-101.639999,33.18,-6.16,21.27
1978909,0.315248,-0.289872,0.865224,-78.68,31.15,-10.71,21.28
1978921,0.30988,-0.310856,0.883768,-58.66,28.98,-15.12,21.28
1978932,0.318664,-0.226432,0.894016,-46.060001,23.73,-15.89,21.28
1978944,0.323056,-0.138104,0.916952,-44.66,27.51,-15.47,21.22
1978956,0.288408,-0.172752,0.955016,-41.16,24.780001,-15.68,21.22
1978967,0.302072,-0.177632,0.996008,-38.709999,24.01,-17.01,21.22
1978979,0.301584,-0.201544,1.009184,-35.91,25.41,-19.110001,21.3
1978990,0.281088,-0.242048,0.975024,-31.08,24.57,-20.719999,21.3
1979002,0.277672,-0.262544,0.957456,-24.290001,22.33,-20.719999,21.3
1979013,0.282552,-0.231312,0.940864,-21.139999,22.959999,-21.07,21.24
1979025,0.274256,-0.241072,0.947208,-15.26,22.610001,-21.209999,21.24
1979037,0.2684,-0.189832,0.98332,-9.17,20.860001,-21.42,21.29
1979048,0.255712,-0.104432,1.022848,-10.64,18.129999,-19.67,21.29
1979059,0.264496,-0.109312,1.065304,-14.07,16.73,-17.5,21.27
1979071,0.240584,-0.206424,1.077016,-14.28,14.77,-25.549999,21.3
1979082,0.2928,-0.186416,1.070184,-8.96,10.5,-11.97,21.3
1979094,0.282064,-0.190808,1.060424,-5.53,9.17,-8.96,21.28
1979105,0.264008,-0.206424,1.029192,-1.4,7.84,-7.28,21.29
1979117,0.26108,-0.194224,1.042368,4.76,4.13,-4.13,21.29
1979128,0.257664,-0.186904,1.016016,5.74,3.15,-2.8,21.28
1979140,0.26596,-0.208864,0.997472,5.46,2.66,-3.22,21.28
1979151,0.26596,-0.230824,1.00284,6.65,2.31,-4.06,21.26
1979162,0.263032,-0.199104,1.04432,7.42,0.35,-3.57,21.25
1979174,0.274256,-0.148352,1.062864,3.92,0.07,-2.03,21.25
1979186,0.265472,-0.14396,1.054568,-1.54,-1.26,-1.33,21.25
1979198,0.25864,-0.205448,0.992592,-2.38,-0.77,-1.4,21.23
1979209,0.253272,-0.257176,0.969168,1.96,-0.07,-2.1,21.23
1979221,0.251808,-0.256688,0.96868,6.3,0.14,-1.61,21.23
1979232,0.254248,-0.233752,1.00528,8.75,-1.12,-1.33,21.23
1979244,0.250832,-0.202032,1.018944,9.17,-2.38,-0.56,21.25
1979255,0.252784,-0.170312,1.018944,6.44,-2.87,-0.21,21.25
1979267,0.24888,-0.199104,1.003816,4.76,-2.66,-0.07,21.25
1979278,0.247416,-0.19276,0.97112,4.83,-2.38,0.91,21.27
1979290,0.257176,-0.193736,0.952088,3.15,-1.26,0.42,21.27
1979302,0.239608,-0.22692,0.970632,1.89,-2.03,0.63,21.28
1979313,0.23668,-0.209352,0.98088,0.56,-3.5,1.75,21.27
1979326,0.243024,-0.25864,0.959896,-1.61,-2.52,1.33,21.27
1979337,0.238144,-0.257176,0.967216,0.21,-2.94,1.75,21.27
1979348,0.244,-0.245464,0.974048,1.68,-2.73,1.33,21.25
1979360,0.23668,-0.278648,0.963312,5.25,-2.94,0.07,21.25
1979371,0.238144,-0.264984,0.972096,9.17,-3.15,-0.42,21.27
1979383,0.231312,-0.19764,0.975024,7.35,-3.43,-0.35,21.27
1979394,0.23912,-0.209352,0.949648,1.96,-1.54,-0.84,21.27
1979406,0.2318,-0.238632,0.952576,-0.7,-0.77,-0.91,21.29
1979418,0.240584,-0.22692,0.957456,-3.15,-0.14,-1.05,21.29
1979429,0.238632,-0.256688,0.970144,-3.57,0.07,-1.47,21.27
1979440,0.231312,-0.259128,0.975024,-0.35,-1.33,-1.19,21.27
1979451,0.236192,-0.244488,0.96136,1.33,-1.96,-1.33,21.25
1979463,0.2318,-0.245952,0.955016,4.06,-2.45,-1.33,21.25
1979474,0.235216,-0.223016,0.9638,6.37,-3.08,-0.91,21.25
1979485,0.249856,-0.250344,0.945256,6.51,-1.96,-1.33,21.29
1979496,0.249368,-0.22448,0.960872,4.55,-1.61,-0.91,21.26
1979508,0.245464,-0.199104,0.998448,0.49,-1.54,-0.49,21.26
1979520,0.237656,-0.189832,1.000888,-3.22,-1.96,-0.42,21.27
1979531,0.24156,-0.215208,0.981856,-3.99,-2.24,-0.35,21.27
1979543,0.25376,-0.205936,0.96868,-4.27,-1.82,0.28,21.3
1979554,0.247904,-0.221064,0.967704,-3.71,-1.96,0.77,21.26
1979566,0.244488,-0.25132,0.954528,-2.31,-1.89,1.05,21.26
1979578,0.241072,-0.28548,0.950136,2.03,-1.75,0.21,21.24
1979589,0.233264,-0.264008,0.969656,7.0,-2.73,0.14,21.24
1979601,0.247904,-0.204472,0.999912,7.21,-3.43,0.63,21.31
1979613,0.25132,-0.179584,1.010648,3.01,-3.36,0.77,21.22
1979624,0.24888,-0.19276,1.00284,0.35,-3.57,1.47,21.22
1979635,0.244488,-0.200568,1.0004,-1.54,-3.71,1.68,21.25
1979646,0.23668,-0.2196,0.97112,-2.31,-3.57,1.96,21.28
1979658,0.245464,-0.238632,0.97112,-2.52,-3.01,1.68,21.28
1979671,0.23912,-0.245464,0.969168,-1.26,-3.15,1.4,21.25
1979683,0.247416,-0.264496,0.960872,0.49,-2.52,0.21,21.25
1979695,0.242536,-0.266936,0.969656,3.29,-2.87,-0.91,21.25
1979707,0.240584,-0.212768,0.996984,3.99,-3.15,-1.26,21.25
1979718,0.245464,-0.18788,1.00528,2.38,-3.78,-0.63,21.25
1979731,0.24644,-0.203984,0.986248,0.56,-3.57,-0.07,21.23
1979742,0.253272,-0.226432,0.970632,-0.91,-3.01,0.28,21.23
1979754,0.236192,-0.234728,0.970632,0.07,-3.36,0.63,21.23
1979765,0.237656,-0.233264,0.955992,0.98,-4.06,0.91,21.25
1979778,0.24156,-0.236192,0.959408,2.38,-3.99,0.84,21.25
1979790,0.24156,-0.219112,0.972096,3.64,-4.48,0.91,21.25
1979802,0.242536,-0.217648,0.976976,4.06,-4.48,1.19,21.25
1979814,0.239608,-0.219112,0.96868,3.71,-4.76,1.68,21.21
1979826,0.243024,-0.236192,0.959896,3.57,-4.62,1.96,21.21
1979838,0.247904,-0.211792,0.970144,2.1,-4.69,2.52,21.27
1979849,0.247416,-0.237656,0.984296,-0.28,-4.41,2.59,21.27
1979861,0.230824,-0.280112,0.99308,2.73,-5.18,2.17,21.23
1979872,0.218624,-0.310856,0.98332,11.76,-7.28,1.33,21.22
1979883,0.20496,-0.30744,0.963312,22.120001,-10.01,1.05,21.22
1979894,0.204472,-0.28304,0.9394,28.49,-12.67,2.1,21.24
1979906,0.210328,-0.24156,0.98576,33.810001,-16.379999,4.69,21.24
1979917,0.219112,-0.244488,1.089704,40.25,-20.02,6.58,21.23
1979928,0.191784,-0.337208,1.174616,58.310001,-28.700001,5.25,21.24
1979940,0.178608,-0.421144,1.196088,88.480003,-41.720001,2.66,21.24
1979951,0.183,-0.438712,1.11752,127.889999,-55.509998,1.19,21.27
1979963,0.210816,-0.411384,1.087264,169.679993,-66.43,0.56,21.23
1979974,0.240096,-0.330864,1.1346,209.580002,-76.370003,-0.21,21.23
1979986,0.235216,-0.276208,1.247328,248.429993,-90.440002,0.21,21.24
1979997,0.219112,-0.261568,1.356152,278.950012,-108.989998,2.73,21.24
1980010,0.187392,-0.044408,1.363472,319.690002,-129.149994,11.97,21.25
1980023,0.243024,0.398696,1.331752,321.369995,-157.289993,35.209999,21.22
1980036,0.333304,0.599264,1.306376,304.429993,-168.770004,56.700001,21.22
1980047,0.352824,0.709552,1.318088,285.950012,-177.520004,75.040001,21.25
1980059,0.371856,0.696864,1.342,269.01001,-184.449997,86.660004,21.25
1980071,0.362096,0.755424,1.3176,246.679993,-188.020004,109.620003,21.25
1980085,0.347456,0.852048,1.218536,215.110001,-188.020004,129.570007,21.26
1980096,0.368928,0.882304,1.13216,197.190002,-184.309998,138.25,21.23
1980107,0.371856,0.88084,1.101904,187.460007,-178.009995,145.039993,21.23
1980119,0.404064,0.80032,1.057496,184.309998,-178.429993,159.320007,21.27
1980130,0.4392,0.68076,1.05408,181.369995,-178.850006,163.029999,21.27
1980142,0.432856,0.713944,0.978928,176.470001,-183.119995,172.479996,21.24
1980153,0.532408,0.809592,0.885232,155.960007,-185.080002,185.149994,21.21
1980164,0.622688,0.801296,0.811544,125.089996,-173.949997,192.5,21.21
1980176,0.616344,0.693936,0.804712,93.519997,-159.949997,198.729996,21.25
1980187,0.568032,0.564616,0.78324,75.389999,-154.0,205.869995,21.22
1980199,0.521672,0.506544,0.650504,66.150002,-149.940002,209.229996,21.22
1980210,0.574376,0.42212,0.532896,57.610001,-145.529999,215.320007,21.29
1980221,0.632448,0.447008,0.462624,45.639999,-140.210007,218.539993,21.29
1980232,0.599752,0.460672,0.447008,35.490002,-132.440002,221.059998,21.26
1980244,0.563152,0.359168,0.388936,22.33,-133.419998,222.460007,21.23
1980255,0.613416,0.332328,0.333792,7.49,-123.129997,234.220001,21.23
1980267,0.591944,0.309392,0.30012,-9.24,-112.419998,237.789993,21.27
1980278,0.50508,0.284992,0.22448,-23.309999,-116.900002,232.470001,21.27
1980290,0.451888,0.183,0.182024,-32.48,-121.169998,231.839996,21.25
1980302,0.406992,0.080032,0.13664,-27.65,-127.050003,225.399994,21.23
1980313,0.403088,0.0122,0.076616,-15.54,-128.309998,231.419998,21.23
1980325,0.467992,-0.031232,0.01952,-9.87,-117.18,238.139999,21.23
1980336,0.409432,-0.048312,-0.003416,-15.33,-113.82,229.740005,21.22
1980348,0.393816,-0.121512,-0.058072,-25.34,-103.389999,231.770004,21.22
1980359,0.326472,-0.211304,-0.112728,-32.200001,-100.449997,218.259995,21.23
1980371,0.393816,-0.162992,-0.130296,-37.869999,-99.330002,225.679993,21.23
1980382,0.328424,-0.291824,-0.1708,-38.849998,-90.93,241.149994,21.27
1980394,0.32452,-0.340624,-0.172752,-37.029999,-84.0,238.210007,21.25
1980406,0.26352,-0.410408,-0.173728,-34.23,-78.889999,237.160004,21.25
1980418,0.26352,-0.414312,-0.203496,-41.509998,-73.360001,239.259995,21.23
1980430,0.17812,-0.475312,-0.201544,-49.279999,-69.580002,234.080002,21.25
1980441,0.166896,-0.559248,-0.213256,-56.07,-69.510002,238.979996,21.25
1980453,0.135176,-0.589016,-0.276696,-61.599998,-70.489998,237.789993,21.27
1980466,0.12932,-0.706136,-0.320616,-67.339996,-76.650002,235.550003,21.27
1980477,0.108336,-0.825208,-0.350872,-61.110001,-78.120003,227.639999,21.25
1980489,0.038064,-0.884256,-0.334768,-52.990002,-85.260002,220.5,21.22
1980501,0.040016,-0.94184,-0.328912,-51.380001,-90.510002,209.089996,21.22
1980512,0.037576,-0.999424,-0.358192,-45.43,-78.889999,206.289993,21.27
1980524,-0.033672,-1.03944,-0.363072,-39.34,-76.440002,199.5,21.23
1980536,-0.074176,-1.089216,-0.356728,-53.759998,-76.720001,189.0,21.23
1980547,-0.06588,-1.172664,-0.3538,-36.049999,-73.709999,178.639999,21.24
1980560,-0.0732,-1.263432,-0.37332,-38.709999,-73.849998,167.020004,21.24
1980571,-0.146888,-1.362984,-0.422608,-41.09,-66.43,142.520004,21.21
1980583,-0.067344,-1.394704,-0.535824,-44.450001,-66.080002,141.470001,21.19
1980596,-0.108336,-1.531832,-0.576328,-44.240002,-58.66,116.620003,21.19
1980608,-0.14396,-1.691408,-0.596336,-38.360001,-45.919998,92.400002,21.25
1980620,-0.116144,-1.751432,-0.626104,-36.330002,-47.950001,79.029999,21.24
1980632,-0.09516,-1.748992,-0.687592,-39.759998,-39.130001,55.369999,21.24
1980644,-0.081496,-1.799744,-0.720776,-41.509998,-27.299999,29.469999,21.25
1980656,-0.083936,-1.742648,-0.704184,-41.369999,-19.67,7.56,21.25
1980667,-0.072224,-1.616256,-0.648552,-39.830002,-12.18,-13.23,21.25
1980679,-0.041968,-1.481568,-0.613904,-34.860001,-7.21,-29.75,21.26
1980691,0.006344,-1.241472,-0.586576,-34.299999,-4.76,-40.880001,21.18
1980702,0.055632,-1.10044,-0.58316,-30.030001,-1.33,-47.880001,21.18
1980714,0.08784,-1.020896,-0.592432,-20.719999,-0.21,-50.189999,21.27
1980726,0.125904,-0.967216,-0.609512,-12.81,-0.21,-51.310001,21.27
1980737,0.156648,-0.894992,-0.599264,-10.85,0.84,-51.939999,21.23
1980749,0.173728,-0.911584,-0.581208,-10.15,2.17,-52.919998,21.25
1980761,0.153232,-0.970144,-0.559248,-9.24,3.5,-55.860001,21.25
1980772,0.14884,-1.055544,-0.561688,-3.78,4.48,-60.48,21.22
1980784,0.122976,-1.196088,-0.633424,5.46,8.26,-70.07,21.22
1980796,0.094672,-1.30784,-0.64904,18.969999,9.94,-82.389999,21.22
1980807,0.086376,-1.3786,-0.661728,31.639999,11.48,-96.040001,21.22
1980820,0.037576,-1.569408,-0.664656,46.48,14.0,-120.190002,21.22
1980833,-0.073688,-1.674328,-0.7076,49.77,10.15,-139.929993,21.19
1980846,-0.118096,-1.674816,-0.85156,34.650002,13.93,-174.229996,21.23
1980858,-0.16348,-1.7812,-0.904752,30.030001,22.120001,-202.300003,21.23
1980870,-0.229848,-1.760216,-0.920368,53.48,28.139999,-230.160004,21.25
1980882,-0.286456,-1.772904,-0.901336,62.369999,34.23,-256.410004,21.25
1980895,-0.391376,-1.742648,-0.913048,83.580002,38.009998,-287.559998,21.25
1980907,-0.471896,-1.65676,-0.944768,122.919998,41.02,-315.209991,21.21
1980919,-0.547536,-1.541104,-0.943792,148.259995,40.18,-342.579987,21.26
1980930,-0.554368,-1.38348,-0.955504,189.770004,37.240002,-367.98999,21.26
1980942,-0.601216,-1.36396,-0.903776,246.539993,33.25,-394.869995,21.22
1980955,-0.750056,-1.257576,-0.930616,314.089996,19.6,-423.290009,21.23
1980968,-0.911096,-1.462536,-0.96624,409.98999,-5.88,-457.380005,21.23
1980980,-1.132648,-1.292224,-0.914512,475.720001,-37.099998,-487.549988,21.26
1980991,-1.225368,-0.992104,-0.714432,496.51001,-81.480003,-512.119995,21.25
1981003,-1.259528,-0.484096,-0.55632,482.440002,-125.160004,-531.22998,21.25
1981015,-1.308328,-0.125904,-0.573888,456.119995,-172.759995,-538.789978,21.23
1981027,-0.327448,0.154696,-0.53924,425.600006,-154.139999,-422.450012,21.2
1981039,-1.338096,0.025864,-0.945256,482.369995,-214.270004,-479.779999,21.2
1981050,-1.54696,-0.084912,-1.191208,523.809998,-284.829987,-460.73999,21.19
1981064,-2.090104,0.293776,-1.346392,495.600006,-337.119995,-451.290009,21.2
1981076,-2.329224,0.89792,-1.24928,355.529999,-391.230011,-435.75,21.2
1981088,-2.212592,1.642608,-1.381528,177.309998,-390.809998,-442.329987,21.23
1981100,-2.090592,2.5986,-1.318088,6.79,-383.040009,-431.829987,21.23
1981111,-1.64944,3.141744,-1.273192,-175.070007,-355.809998,-395.570007,21.22
1981123,-1.428864,2.457568,-1.402512,-307.579987,-274.190002,-364.0,21.21
1981135,-0.881816,2.27164,-1.5372,-329.350006,-244.580002,-325.220001,21.21
1981146,-0.462136,2.28628,-1.869528,-228.410004,-196.0,-261.519989,21.22
1981158,0.164944,2.194536,-2.327272,-56.630001,-125.93,-201.669998,21.19
1981170,0.651968,1.71532,-2.331176,62.439999,-91.489998,-163.729996,21.19
1981182,0.559736,2.4888,-1.203408,71.470001,-49.98,-115.290001,21.24
1981193,0.803248,3.174928,-0.609024,-52.290001,-29.959999,-78.540001,21.24
1981205,0.79788,2.352648,-0.769576,-147.910004,58.52,-63.91,21.16
1981217,0.379664,1.538664,-0.7076,-79.449997,58.52,-52.849998,21.21
1981230,0.166408,1.414224,-0.558272,15.68,51.450001,-40.810001,21.21
1981242,0.208864,1.65432,-0.529968,50.75,39.900002,-29.4,21.21
1981253,0.269864,1.9032,-0.596824,26.32,30.379999,-21.700001,21.18
1981264,0.247904,1.957856,-0.608536,-26.67,26.040001,-4.83,21.18
1981276,0.197152,1.786568,-0.563152,-68.110001,20.299999,7.56,21.19
1981287,0.193736,1.540128,-0.427488,-88.480003,10.92,11.06,21.19
1981299,0.168848,1.269776,-0.304512,-80.639999,5.25,13.44,21.18
1981310,0.19032,1.164368,-0.247904,-63.139999,-2.31,9.59,21.2
1981323,0.227408,1.16876,-0.293288,-41.650002,-1.12,5.25,21.2
1981335,0.25132,1.130208,-0.3172,-23.52,-4.69,3.57,21.19
1981346,0.253272,1.124352,-0.322568,-13.09,-7.07,8.05,21.17
1981358,0.271816,1.05896,-0.345992,-9.1,-7.42,13.86,21.17
1981371,0.30256,0.989664,-0.360632,-12.88,-7.91,23.24,21.17
1981383,0.310368,0.9638,-0.323056,-22.4,-8.96,26.809999,21.21
1981396,0.282552,0.816424,-0.296216,-30.309999,-6.09,29.75,21.21
1981410,0.283528,0.779336,-0.34404,-28.35,-7.49,28.98,21.2
1981421,0.277184,0.785192,-0.41236,-24.360001,-8.4,26.530001,21.17
1981433,0.305488,0.797392,-0.44896,-21.0,-9.45,23.940001,21.17
1981445,0.297192,0.815936,-0.45628,-19.67,-9.73,23.59,21.18
1981457,0.295728,0.854488,-0.450424,-18.76,-9.52,24.92,21.22
1981468,0.286456,0.853512,-0.396744,-23.379999,-8.33,26.950001,21.22
1981481,0.280112,0.844728,-0.404552,-26.6,-5.11,29.82,21.23
1981492,0.273768,0.845704,-0.427488,-30.379999,-6.3,29.120001,21.23
1981503,0.30256,0.810568,-0.447984,-34.790001,0.42,29.049999,21.16
1981515,0.296704,0.845216,-0.436272,-36.119999,3.57,29.26,21.2
1981526,0.305,0.831552,-0.372832,-32.41,5.6,27.860001,21.2
1981537,0.273768,0.845704,-0.316224,-28.35,5.39,28.07,21.18
1981549,0.264008,0.875472,-0.318176,-29.33,2.52,29.049999,21.18
1981560,0.322568,0.915976,-0.376736,-37.099998,1.4,30.450001,21.14
1981572,0.36356,0.994544,-0.423096,-68.389999,2.17,30.030001,21.2
1981584,0.424072,0.986736,-0.417728,-94.220001,9.38,30.450001,21.2
1981595,0.37332,0.787632,-0.330864,-97.510002,14.0,27.58,21.21
1981606,0.310368,0.807152,-0.257176,-87.57,8.75,28.98,21.19
1981617,0.345992,0.903288,-0.239608,-85.82,6.16,28.629999,21.19
1981628,0.371368,0.928176,-0.256688,-96.110001,6.86,27.65,21.18
1981639,0.371856,0.97112,-0.267424,-114.029999,7.0,28.0,21.18
1981650,0.4026,1.046272,-0.237656,-147.839996,9.59,29.540001,21.2
1981661,0.417728,1.07848,-0.188856,-188.020004,13.72,30.309999,21.21
1981673,0.425048,1.10288,-0.176168,-230.020004,16.309999,33.669998,21.21
1981684,0.44164,1.053592,-0.17324,-259.140015,22.33,34.369999,21.19
1981695,0.438224,0.937448,-0.162504,-288.399994,31.08,34.299999,21.19
1981706,0.41236,0.91988,-0.137128,-303.23999,34.790001,37.029999,21.2
1981717,0.420656,0.956968,-0.088816,-315.839996,39.48,38.220001,21.18
1981729,0.451888,1.037976,-0.06344,-343.0,46.759998,39.27,21.18
1981741,0.484096,1.047736,-0.04148,-362.73999,56.349998,39.689999,21.16
1981752,0.472384,0.975024,0.013176,-379.679993,66.57,38.709999,21.16
1981765,0.452864,0.976976,0.067832,-395.01001,75.949997,40.18,21.18
1981776,0.439688,0.957456,0.12932,-420.140015,84.699997,40.740002,21.19
1981787,0.473848,0.890112,0.201056,-435.049988,97.720001,41.650002,21.19
1981799,0.458232,0.72956,0.261568,-445.970001,107.309998,38.849998,21.17
1981810,0.406504,0.63928,0.338672,-453.320007,107.730003,35.490002,21.18
1981822,0.392352,0.612928,0.378688,-448.559998,107.239998,28.77,21.18
1981833,0.396744,0.563152,0.38308,-439.459991,104.790001,21.91,21.19
1981844,0.23668,0.365024,0.433344,-428.119995,126.209999,-33.459999,21.19
1981856,0.548512,0.447496,0.560712,-414.679993,102.269997,4.2,21.18
1981868,0.12688,0.289384,0.59536,-395.01001,64.610001,-6.23,21.18
1981879,0.281576,0.168848,0.80276,-379.190002,15.33,-10.29,21.18
1981890,0.377224,0.01464,0.665632,-333.410004,17.92,4.55,21.18
1981902,0.310368,0.052216,0.665144,-304.920013,6.16,1.54,21.18
1981913,0.359168,-0.043432,0.73444,-280.0,5.53,0.14,21.2
1981924,0.315736,-0.006344,0.789096,-258.019989,9.1,-2.24,21.15
1981936,0.365512,0.028304,0.75884,-245.979996,20.719999,1.33,21.15
1981947,0.39528,-0.106872,0.786656,-228.690002,34.860001,-1.89,21.23
1981960,0.320128,-0.164944,0.864736,-201.320007,39.689999,-4.27,21.24
1981973,0.328424,-0.1464,0.869616,-174.860001,42.419998,-7.21,21.24
1981987,0.36112,-0.236192,0.874496,-147.490005,48.860001,-9.45,21.18
1982000,0.274256,-0.22936,0.93696,-115.43,41.299999,-9.94,21.16
1982014,0.28792,-0.262056,0.928664,-89.110001,34.509998,-15.61,21.16
1982026,0.27084,-0.343064,0.906704,-60.34,29.959999,-22.610001,21.16
1982037,0.238632,-0.355264,0.874008,-34.439999,23.450001,-23.799999,21.12
1982049,0.257176,-0.230824,0.889136,-19.67,18.83,-21.209999,21.12
1982061,0.267912,-0.161528,0.944768,-14.0,18.41,-17.5,21.18
1982073,0.272304,-0.162504,0.975512,-11.97,17.15,-12.25,21.15
1982084,0.266936,-0.182512,0.972584,-5.46,14.91,-8.12,21.15
1982095,0.277672,-0.11712,0.98576,-3.71,9.59,-2.87,21.16
1982108,0.274744,0.004392,1.037976,-13.72,6.37,0.42,21.16
1982119,0.278648,-0.08052,1.057984,-23.66,7.35,1.96,21.19
1982131,0.286456,-0.162016,1.076528,-27.860001,7.14,2.73,21.18
1982143,0.287432,-0.221552,1.103856,-24.219999,6.23,1.19,21.18
1982154,0.282064,-0.208376,1.114592,-17.15,3.78,0.28,21.18
1982166,0.305,-0.232776,1.120448,-11.34,2.87,-0.49,21.12
1982177,0.302072,-0.21228,1.10776,-5.95,2.31,-0.28,21.12
1982189,0.299632,-0.232776,1.084824,-1.26,1.4,-0.63,21.21
1982200,0.278648,-0.186416,1.075064,-0.21,0.84,-0.56,21.21
1982212,0.269864,-0.194712,1.074088,-1.47,0.14,0.0,21.17
1982223,0.259128,-0.209352,1.045296,-2.87,-0.56,-0.21,21.21
1982235,0.263032,-0.1952,1.027728,-7.35,-1.12,0.84,21.21
1982246,0.26352,-0.20984,1.015528,-11.69,-0.21,1.05,21.18
1982258,0.244976,-0.26352,1.004304,-10.29,-0.98,1.12,21.18
1982270,0.247904,-0.261568,1.00284,-3.36,-2.52,1.05,21.16
1982282,0.24156,-0.269376,0.987712,2.1,-3.85,0.7,21.25
1982293,0.23668,-0.25864,0.96624,6.58,-4.83,0.42,21.25
1982305,0.241072,-0.248392,0.970144,10.43,-5.11,0.07,21.16
1982316,0.235216,-0.210328,0.96624,9.38,-5.32,0.7,21.15
1982327,0.244488,-0.191784,0.956968,4.55,-3.78,0.28,21.15
1982339,0.237656,-0.245464,0.953552,-0.42,-3.15,0.42,21.18
1982350,0.247416,-0.264984,0.965264,-0.98,-3.22,0.49,21.18
1982362,0.240096,-0.248392,0.970144,-0.14,-3.64,1.4,21.18
1982374,0.244,-0.265472,0.946232,1.4,-3.57,1.26,21.18
1982386,0.237656,-0.255712,0.940864,3.43,-3.57,1.12,21.18
1982398,0.243512,-0.247416,0.943304,3.78,-3.29,1.26,21.17
1982409,0.243024,-0.25132,0.925248,4.06,-3.22,1.19,21.15
1982422,0.247416,-0.25864,0.93696,3.78,-3.36,0.63,21.15
1982435,0.247904,-0.244,0.957456,1.4,-3.92,0.98,21.17
1982449,0.25132,-0.235216,0.959408,-1.47,-3.29,1.26,21.15
1982461,0.250832,-0.26108,0.951112,-2.1,-2.66,0.77,21.15
1982474,0.246928,-0.284016,0.931592,0.07,-2.31,-0.14,21.17
1982486,0.255712,-0.293288,0.937936,4.2,-2.1,-1.47,21.2
1982498,0.250832,-0.244,0.968192,7.07,-2.52,-1.75,21.2
1982509,0.2562,-0.201544,0.981856,5.25,-2.38,-0.77,21.21
1982521,0.256688,-0.201056,0.967704,1.33,-1.26,-0.42,21.16
1982532,0.250344,-0.227408,0.962824,-0.14,-0.91,0.14,21.16
1982543,0.252296,-0.238632,0.948672,-0.28,-0.42,0.98,21.19
1982555,0.249856,-0.262544,0.952088,1.4,-0.49,0.7,21.19
1982567,0.235704,-0.259128,0.955992,3.22,-1.61,0.49,21.2
1982579,0.247904,-0.250832,0.959896,3.43,-1.4,-0.21,21.16
1982592,0.248392,-0.21716,0.970632,1.4,-2.03,0.49,21.16
1982604,0.259128,-0.248392,0.95648,-0.7,-0.77,0.14,21.2
1982616,0.2562,-0.254736,0.987712,0.42,-1.33,0.21,21.14
1982627,0.249856,-0.247904,0.984784,1.89,-1.75,-0.14,21.14
1982639,0.25132,-0.260592,0.977952,4.9,-2.03,-0.77,21.19
1982650,0.264008,-0.227408,1.000888,5.46,-2.59,-0.14,21.13
1982662,0.259616,-0.21228,1.013576,3.15,-2.24,0.28,21.13
1982673,0.250344,-0.240096,0.996984,2.38,-2.59,0.42,21.18
1982684,0.24156,-0.262544,0.97112,3.78,-2.8,-0.42,21.18
1982696,0.235704,-0.24888,0.965264,5.18,-3.29,-0.7,21.16
1982708,0.239608,-0.243512,0.972584,5.53,-3.71,-0.84,21.15
1982719,0.244,-0.212768,0.976976,3.92,-4.06,-0.21,21.15
1982731,0.251808,-0.219112,0.984784,1.61,-3.85,0.35,21.15
1982742,0.250344,-0.231312,1.002352,0.77,-3.92,1.26,21.15
1982754,0.244,-0.257176,1.003328,2.24,-4.69,2.17,21.15
1982765,0.23424,-0.277672,0.989176,5.67,-5.88,2.38,21.14
1982777,0.225944,-0.276696,1.000888,12.74,-8.68,3.01,21.14
1982794,0.23424,-0.209352,1.02968,16.309999,-12.53,5.53,21.17
1982805,0.225456,-0.249368,1.057984,20.09,-15.05,7.7,21.18
1982816,0.204472,-0.361608,1.088728,35.630001,-21.209999,6.86,21.18
1982828,0.174704,-0.42944,1.061888,65.589996,-31.99,6.58,21.16
1982840,0.193248,-0.411872,1.031632,98.07,-41.23,5.95,21.15
1982851,0.20496,-0.38308,1.074576,133.419998,-49.84,5.39,21.15
1982863,0.223016,-0.22448,1.14924,153.369995,-62.650002,9.8,21.18
1982876,0.263032,-0.22936,1.238056,171.149994,-71.959999,7.56,21.16
1982889,0.22692,-0.138592,1.335168,196.979996,-86.730003,11.34,21.16
1982901,0.257176,0.039528,1.340048,211.119995,-101.220001,20.370001,21.14
1982913,0.304024,0.120536,1.306864,215.460007,-111.510002,27.790001,21.14
1982926,0.298168,0.155184,1.242448,215.669998,-121.029999,39.48,21.14
1982938,0.310856,0.143472,1.186816,218.679993,-129.779999,51.310001,21.17
1982950,0.327936,0.065392,1.137528,230.300003,-139.229996,61.669998,21.15
1982962,0.362584,0.156648,1.016016,251.860001,-142.940002,73.709999,21.15
1982973,0.405528,0.415288,0.977464,258.929993,-148.330002,87.360001,21.14
1982984,0.491416,0.742736,1.022848,251.229996,-147.419998,97.230003,21.14
1982996,0.519232,0.866688,1.160952,230.369995,-145.669998,104.860001,21.17
1983008,0.509472,0.977952,1.273192,195.020004,-147.559998,114.099998,21.17
1983019,0.500688,0.955016,1.295152,155.960007,-149.729996,122.57,21.17
1983031,0.497272,0.843264,1.189256,125.93,-152.809998,131.110001,21.16
1983042,0.503128,0.72956,1.062376,111.300003,-153.229996,143.009995,21.18
1983053,0.495808,0.594872,1.031632,114.660004,-152.949997,153.020004,21.18
1983065,0.466528,0.555832,1.057496,129.220001,-157.990005,162.470001,21.16
1983077,0.44408,0.651968,1.0492,132.720001,-164.710007,173.949997,21.16
1983090,0.46604,0.70028,1.010648,124.040001,-168.910004,185.009995,21.21
1983101,0.474336,0.671,0.958432,114.449997,-168.490005,190.820007,21.15
1983113,0.478728,0.65636,0.870592,100.449997,-169.960007,197.75,21.15
1983124,0.49776,0.60512,0.803248,82.599998,-168.0,203.979996,21.15
1983135,0.488488,0.598288,0.71736,68.459999,-164.990005,205.309998,21.17
1983147,0.586576,0.510448,0.620736,57.470001,-160.020004,217.839996,21.17
1983159,0.44896,0.473848,0.569496,54.459999,-155.330002,226.869995,21.13
1983170,0.417728,0.491904,0.539728,46.619999,-158.479996,234.009995,21.13
1983182,0.442616,0.404552,0.447496,34.720001,-155.75,236.949997,21.13
1983193,0.425536,0.338184,0.381128,22.4,-149.169998,239.679993,21.15
1983205,0.399184,0.221552,0.315736,14.0,-149.029999,244.789993,21.15
1983216,0.413336,0.131272,0.252296,3.43,-144.199997,248.360001,21.17
1983227,0.417728,0.076128,0.21472,-2.1,-137.410004,252.910004,21.17
1983238,0.33672,0.027816,0.14396,-1.19,-128.520004,245.630005,21.14
1983250,0.445056,-0.084912,0.082472,6.02,-126.349998,253.960007,21.13
1983260,0.33184,-0.203984,0.043432,12.25,-121.099998,260.540009,21.13
1983272,0.299144,-0.248392,-0.005368,11.76,-120.120003,257.109985,21.16
1983283,0.278648,-0.343552,-0.068808,10.57,-121.309998,253.960007,21.16
1983295,0.273768,-0.455304,-0.117608,13.16,-112.910004,253.399994,21.19
1983307,0.216184,-0.502152,-0.128344,19.879999,-109.129997,251.509995,21.12
1983318,0.182512,-0.483608,-0.12444,25.620001,-104.510002,251.160004,21.12
1983329,0.190808,-0.519232,-0.110288,31.01,-95.690002,251.229996,21.16
1983341,0.179096,-0.555832,-0.084912,39.759998,-88.199997,249.970001,21.12
1983352,0.1586,-0.5612,-0.077104,37.59,-81.059998,249.899994,21.12
1983364,0.141032,-0.529968,-0.083936,21.98,-75.389999,251.089996,21.16
1983376,0.103944,-0.61244,-0.066856,5.53,-66.989998,251.089996,21.16
1983387,0.039528,-0.691984,-0.057584,-11.62,-64.470001,251.580002,21.14
1983399,0.019032,-0.829112,-0.106384,-24.99,-60.48,248.5,21.16
1983410,-0.025376,-0.879376,-0.18544,-38.220001,-55.16,243.669998,21.16
1983422,-0.077592,-0.990152,-0.237168,-41.720001,-51.240002,235.130005,21.11
1983434,-0.133712,-1.0858,-0.255224,-38.57,-49.209999,227.570007,21.13
1983446,-0.155184,-1.13216,-0.262544,-37.240002,-50.470001,220.850006,21.13
1983457,-0.149328,-1.16876,-0.24888,-38.57,-48.23,209.089996,21.2
1983469,-0.171776,-1.26148,-0.27816,-40.25,-42.419998,194.740005,21.2
1983482,-0.201544,-1.458632,-0.306952,-36.889999,-40.32,180.529999,21.13
1983493,-0.196176,-1.47376,-0.34892,-43.189999,-38.849998,168.770004,21.12
1983505,-0.21716,-1.65676,-0.397232,-49.209999,-28.42,145.809998,21.12
1983518,-0.22448,-1.8422,-0.460184,-53.689999,-17.360001,114.449997,21.18
1983530,-0.240584,-2.098888,-0.523136,-51.380001,-10.57,85.610001,21.12
1983543,-0.28792,-2.207224,-0.502152,-47.669998,-4.27,52.709999,21.12
1983556,-0.27816,-2.168184,-0.455304,-46.549999,0.35,13.93,21.12
1983567,-0.24644,-2.016416,-0.408456,-43.610001,4.83,-10.71,21.13
1983579,-0.175192,-1.719712,-0.381128,-46.060001,10.15,-37.869999,21.13
1983591,-0.103456,-1.462048,-0.392352,-44.169998,14.07,-52.360001,21.14
1983603,-0.026352,-1.14924,-0.38064,-41.23,14.42,-59.919998,21.12
1983614,0.046848,-0.937448,-0.389424,-41.439999,12.95,-59.709999,21.12
1983626,0.123952,-0.842776,-0.362096,-47.25,8.33,-54.529999,21.12
1983638,0.145912,-0.826672,-0.308416,-50.470001,3.92,-48.860001,21.12
1983649,0.159088,-0.896456,-0.30988,-49.700001,0.98,-44.450001,21.15
1983661,0.142008,-1.042856,-0.320128,-45.080002,0.42,-44.52,21.16
1983673,0.103944,-1.209264,-0.406504,-31.08,-0.63,-51.169998,21.16
1983685,0.054656,-1.417152,-0.499224,-9.03,1.82,-67.129997,21.15
1983699,0.00488,-1.578192,-0.562664,13.79,4.55,-89.459999,21.13
1983712,-0.084912,-1.700192,-0.593408,36.959999,4.62,-113.120003,21.13
1983725,-0.192272,-1.83732,-0.575352,56.700001,-1.54,-141.610001,21.12
1983738,-0.293776,-1.83,-0.522648,63.84,-8.82,-175.490005,21.13
1983750,-0.360144,-1.797792,-0.572424,54.389999,-13.09,-205.309998,21.13
1983761,-0.424072,-1.85928,-0.630008,51.869999,-15.12,-239.470001,21.15
1983773,-0.512888,-1.845616,-0.744688,46.34,-18.48,-275.940002,21.18
1983785,-0.617808,-1.965176,-0.860832,50.330002,-18.059999,-316.820007,21.18
1983797,-0.752984,-2.035448,-0.989664,73.639999,-16.030001,-355.390015,21.13
1983808,-0.886696,-2.151104,-1.146312,106.190002,-13.51,-395.709991,21.11
1983821,-1.037488,-2.295552,-1.260016,178.429993,-13.51,-434.839996,21.11
1983832,-1.250744,-2.214544,-1.27856,260.820007,-24.43,-472.98999,21.14
1983845,-1.443992,-2.013488,-1.247816,344.540009,-39.830002,-517.159973,21.12
1983857,-1.583072,-1.830976,-1.24928,416.640015,-66.010002,-561.26001,21.12
1983868,-1.62504,-1.61284,-1.124352,475.160004,-103.599998,-590.659973,21.1
1983880,-1.696776,-0.865712,-0.935008,509.040009,-137.270004,-621.530029,21.1
1983892,-1.794376,-0.491416,-0.865224,561.820007,-185.990005,-633.919983,21.15
1983904,-2.063752,-0.103944,-0.754936,610.330017,-236.389999,-644.210022,21.08
1983916,-1.602104,0.00244,-0.720776,636.440002,-319.200012,-528.429993,21.08
1983927,-3.110512,0.495808,-0.930128,605.919983,-366.869995,-591.150024,21.11
1983939,-3.5502,1.111664,-1.74704,437.779999,-462.559998,-544.669983,21.1
1983951,-3.341336,1.725568,-1.93736,228.270004,-450.309998,-521.710022,21.1
1983963,-3.39892,2.88408,-1.919792,11.83,-414.820007,-524.580017,21.12
1983975,-2.92068,4.26024,-1.338584,-317.589996,-381.920013,-427.769989,21.12
1983987,-1.576728,4.251944,-0.909632,-497.700012,-312.619995,-378.700012,21.07
1983999,-1.063352,2.774768,-1.343952,-441.0,-196.139999,-320.809998,21.11
1984011,-0.623176,2.092544,-2.081808,-185.080002,-177.309998,-227.360001,21.11
1984023,0.5002,2.094984,-2.6596,28.77,-132.160004,-189.419998,21.13
1984035,0.962336,2.55468,-2.241872,90.650002,-82.879997,-160.580002,21.09
1984046,0.928176,2.95484,-1.235128,32.619999,-49.84,-142.449997,21.09
1984057,0.628544,2.653256,-0.651968,-20.790001,-21.91,-128.589996,21.12
1984068,0.513376,2.184288,-0.613904,-8.82,3.36,-105.629997,21.11
1984080,0.526552,2.267248,-0.616344,13.86,19.110001,-73.989998,21.11
1984091,0.350872,1.86904,-0.74664,37.029999,34.299999,-55.16,21.14
1984103,0.142496,1.936384,-0.740296,52.919998,24.5,-25.27,21.14
1984116,0.299144,1.9154,-0.587552,13.65,34.720001,10.78,21.12
1984127,0.193248,1.758752,-0.426512,-26.459999,31.219999,18.34,21.12
1984138,0.181048,1.487424,-0.340136,-46.619999,21.700001,19.32,21.12
1984150,0.198128,1.338584,-0.2684,-52.43,16.870001,17.709999,21.11
1984161,0.176656,1.231712,-0.183488,-48.509998,7.28,9.45,21.11
1984174,0.189344,1.21268,-0.299144,-43.540001,-0.42,7.56,21.1
1984186,0.182512,1.197064,-0.392352,-38.639999,-7.28,1.89,21.15
1984198,0.20252,1.14436,-0.433344,-27.93,-11.69,4.27,21.15
1984210,0.246928,1.193648,-0.412848,-26.74,-13.16,8.47,21.11
1984221,0.249368,1.162416,-0.38552,-36.189999,-11.9,14.63,21.11
1984233,0.24888,0.938912,-0.40016,-35.279999,-11.27,19.530001,21.11
1984244,0.250344,0.844728,-0.428464,-21.98,-14.77,24.85,21.16
1984256,0.278648,0.838872,-0.412848,-12.67,-14.42,24.780001,21.14
1984267,0.307928,0.845704,-0.369416,-14.63,-13.23,23.59,21.14
1984278,0.313784,0.822768,-0.377224,-19.879999,-11.62,24.360001,21.13
1984290,0.332328,0.853024,-0.4148,-28.07,-11.69,23.309999,21.13
1984302,0.315248,0.804224,-0.411872,-28.280001,-10.78,24.290001,21.11
1984313,0.272792,0.697352,-0.39284,-11.76,-14.07,24.57,21.09
1984325,0.255224,0.728096,-0.423096,2.17,-18.690001,27.65,21.09
1984337,0.313784,0.869616,-0.462136,-6.65,-17.639999,26.530001,21.14
1984349,0.291336,0.80032,-0.471896,-20.58,-13.58,23.1,21.09
1984360,0.302072,0.765672,-0.472384,-31.43,-11.48,23.940001,21.09
1984372,0.341112,0.823256,-0.453352,-48.299999,-4.62,22.68,21.13
1984383,0.326472,0.8174,-0.432368,-59.009998,0.7,20.65,21.13
1984395,0.271328,0.793,-0.413824,-60.41,1.47,17.85,21.11
1984407,0.282064,0.78324,-0.411384,-54.389999,0.98,15.61,21.09
1984418,0.291824,0.833504,-0.402112,-49.279999,2.17,14.98,21.09
1984430,0.298168,0.829112,-0.396256,-47.529999,2.1,15.89,21.12
1984441,0.314272,0.931104,-0.388936,-55.580002,2.31,17.85,21.12
1984452,0.339648,1.056032,-0.372832,-87.779999,4.2,20.790001,21.12
1984463,0.371856,1.186328,-0.325496,-143.850006,10.08,24.57,21.12
1984475,0.391864,1.257576,-0.27084,-210.770004,17.15,30.73,21.12
1984487,0.418216,1.214144,-0.236192,-261.730011,26.879999,32.900002,21.14
1984498,0.366,0.86132,-0.203984,-258.720001,33.32,32.619999,21.09
1984510,0.30256,0.833504,-0.16104,-235.619995,27.790001,31.780001,21.09
1984522,0.345016,0.961848,-0.12444,-226.589996,21.84,29.75,21.11
1984534,0.380152,1.034072,-0.093208,-240.240005,27.02,28.91,21.11
1984546,0.369904,1.087752,-0.06588,-265.089996,30.73,29.26,21.09
1984557,0.407968,1.13704,-0.02928,-291.549988,34.790001,32.27,21.1
1984569,0.425048,1.072624,0.039528,-308.700012,41.09,33.389999,21.1
1984580,0.42456,1.027728,0.10492,-319.410004,47.32,34.790001,21.09
1984591,0.416264,0.985272,0.130784,-326.619995,57.610001,33.810001,21.08
1984603,0.403088,0.899872,0.142496,-333.059998,70.980003,33.599998,21.08
1984614,0.355264,0.86376,0.162992,-336.630005,74.480003,27.93,21.07
1984626,0.399184,0.9028,0.22204,-351.049988,75.18,27.299999,21.07
1984637,0.425536,0.911096,0.313784,-354.339996,80.709999,24.92,21.07
1984649,0.374784,0.862296,0.438712,-353.149994,84.209999,24.709999,21.06
1984660,0.357216,0.779824,0.477264,-346.5,87.43,23.309999,21.06
1984671,0.34892,0.658312,0.496784,-334.390015,92.610001,9.73,21.12
1984682,0.347456,0.632448,0.518256,-324.869995,89.459999,-2.59,21.12
1984694,0.30744,0.639768,0.562176,-317.450012,53.830002,-2.87,21.13
1984705,0.231312,0.584624,0.638304,-307.720001,21.07,-3.5,21.14
1984717,0.298168,0.572912,0.671,-300.369995,-5.6,-3.29,21.14
1984729,0.320128,0.462136,0.701744,-290.359985,-13.37,-1.33,21.08
1984741,0.329888,0.364048,0.72468,-276.220001,-6.09,0.56,21.08
1984753,0.394792,0.400648,0.757376,-266.839996,2.66,0.49,21.08
1984764,0.271328,0.38064,0.791048,-257.390015,-5.6,-15.47,21.11
1984776,0.433344,0.2562,0.788608,-234.850006,-1.33,-7.49,21.11
1984788,0.427488,0.174704,0.800808,-214.059998,16.870001,-0.98,21.09
1984800,0.349408,0.166896,0.798368,-192.220001,16.030001,0.91,21.07
1984811,0.342576,0.00488,0.796904,-170.380005,12.39,2.8,21.07
1984822,0.335256,0.10492,0.840824,-152.460007,7.84,2.45,21.1
1984834,0.337208,0.123464,0.886208,-142.660004,3.64,3.08,21.03
1984845,0.355752,0.128344,0.899872,-137.759995,0.7,1.82,21.03
1984857,0.364536,0.110776,0.914512,-131.669998,2.31,-0.14,21.09
1984869,0.367464,0.06344,0.916952,-128.309998,3.57,0.56,21.09
1984880,0.368928,0.04636,0.896944,-124.389999,7.14,0.14,21.09
1984891,0.354288,0.0122,0.87596,-120.610001,12.81,-0.07,21.08
1984903,0.332328,-0.044408,0.872544,-110.25,15.61,-1.4,21.08
1984914,0.31964,-0.055144,0.88572,-102.550003,15.82,-2.52,21.07
1984926,0.325008,-0.022448,0.840336,-101.57,17.57,-2.31,21.07
1984938,0.329888,-0.0976,0.838872,-102.269997,20.440001,-3.92,21.08
1984949,0.321592,-0.120048,0.863272,-98.769997,20.299999,-1.05,21.11
1984961,0.316224,-0.110288,0.896944,-95.760002,19.950001,1.4,21.11
1984972,0.310368,-0.189832,0.940376,-92.610001,20.51,1.54,21.12
1984984,0.289384,-0.149816,0.926712,-87.43,19.809999,1.61,21.09
1984996,0.28792,-0.19764,0.917928,-83.370003,21.07,0.91,21.09
1985007,0.27328,-0.223504,0.921832,-73.989998,20.23,-0.56,21.1
1985018,0.27816,-0.224968,0.940376,-66.919998,18.41,-0.98,21.1
1985030,0.288896,-0.228872,0.964288,-60.970001,18.200001,-3.01,21.1
1985041,0.2806,-0.2806,0.990152,-53.200001,17.360001,-4.34,21.08
1985053,0.267912,-0.324032,1.000888,-40.810001,14.7,-5.88,21.08
1985065,0.26352,-0.286456,0.982832,-29.75,11.97,-6.86,21.06
1985077,0.262056,-0.266448,0.927688,-23.17,11.69,-6.93,21.07
1985089,0.249368,-0.274744,0.909632,-12.95,11.55,-7.98,21.07
1985100,0.24644,-0.24156,0.913048,-4.06,10.01,-7.98,21.06
1985112,0.246928,-0.191784,0.921344,-1.68,8.75,-7.07,21.06
1985123,0.260592,-0.200568,0.977952,-4.83,8.33,-6.09,21.09
1985135,0.24888,-0.228384,1.011624,-6.65,6.72,-5.39,21.06
1985146,0.25132,-0.242536,1.02724,-6.16,4.13,-3.64,21.06
1985158,0.259616,-0.256688,1.006744,-5.6,3.15,-2.87,21.08
1985170,0.256688,-0.267912,1.014552,-1.47,3.15,-2.17,21.04
1985181,0.266448,-0.250832,1.00528,1.26,1.47,-2.03,21.04
1985193,0.2684,-0.280112,0.989664,4.13,1.61,-2.03,21.07
1985204,0.26596,-0.261568,0.982344,7.56,0.98,-2.52,21.07
1985216,0.262544,-0.222528,0.989176,7.91,0.84,-2.24,21.08
1985227,0.262056,-0.223504,0.976976,5.25,0.98,-2.66,21.08
1985238,0.260104,-0.235704,0.989176,2.52,0.56,-2.52,21.08
1985250,0.256688,-0.263032,0.99308,1.47,0.42,-2.8,21.1
1985262,0.258152,-0.29036,0.984296,1.96,0.28,-3.71,21.1
1985273,0.254248,-0.2928,0.977952,3.29,-0.28,-4.13,21.08
1985285,0.25132,-0.275232,0.98088,5.88,-0.98,-3.78,21.07
1985297,0.253272,-0.2562,0.9638,7.91,-1.12,-3.5,21.07
1985309,0.244,-0.252784,0.945256,8.19,-0.84,-3.22,21.03
1985320,0.23668,-0.238632,0.948184,8.33,-0.84,-2.94,21.04
1985332,0.236192,-0.281576,0.9272,10.43,-0.56,-3.71,21.04
1985344,0.237168,-0.260104,0.943304,11.9,-0.77,-3.78,21.09
1985356,0.244,-0.23912,0.957944,9.59,-0.07,-3.64,21.09
1985367,0.242048,-0.215696,0.973072,7.0,-0.07,-3.01,21.05
1985378,0.246928,-0.205448,0.987712,4.34,0.14,-2.03,21.09
1985390,0.25376,-0.220088,0.969656,2.03,0.63,-0.98,21.09
1985402,0.244976,-0.256688,0.953064,1.75,1.26,-1.33,21.1
1985414,0.240096,-0.221552,0.975024,1.12,0.63,-0.49,21.04
1985425,0.242048,-0.227408,0.970632,-1.12,0.7,0.0,21.04
1985437,0.23912,-0.25132,0.966728,-0.28,0.07,0.21,21.04
1985449,0.236192,-0.277672,0.965752,1.33,-0.42,-0.21,21.04
1985460,0.237168,-0.270352,0.972096,4.06,-1.68,-0.07,21.04
1985472,0.245952,-0.262544,0.96624,6.44,-1.75,-0.49,21.03
1985484,0.242536,-0.223504,0.978928,6.09,-2.17,-0.14,21.03
1985496,0.251808,-0.2074,1.123864,4.27,-2.17,0.07,21.06
1985508,0.254248,-0.225456,0.982832,1.96,-1.54,0.14,21.06
1985521,0.243024,-0.246928,0.989664,1.12,-1.75,-0.56,21.06
1985533,0.236192,-0.238144,0.989176,-0.56,-2.03,-0.7,21.07
1985546,0.23424,-0.238632,0.993568,0.35,-2.52,-0.98,21.02
1985557,0.245464,-0.242536,0.984784,2.45,-3.08,-0.84,21.02
1985570,0.249368,-0.249856,0.975512,4.55,-3.43,-0.21,21.07
1985581,0.25132,-0.241072,0.969656,4.55,-3.29,0.56,21.06
1985593,0.243512,-0.229848,0.968192,4.76,-3.71,1.47,21.06
1985604,0.237656,-0.218624,0.969168,2.73,-3.92,2.03,21.1
1985616,0.242536,-0.237168,0.959408,0.0,-3.15,1.68,21.1
1985628,0.242536,-0.253272,0.976,0.21,-2.66,0.98,21.05
1985640,0.24156,-0.235704,1.000888,0.07,-2.94,0.91,21.04
1985652,0.238144,-0.242536,0.99308,0.21,-3.36,0.77,21.04
1985664,0.24644,-0.24644,0.97356,0.14,-4.06,0.35,21.06
1985676,0.240584,-0.228384,0.962336,-0.84,-3.85,0.98,21.09
1985688,0.2562,-0.2684,0.967216,-1.68,-2.73,0.7,21.09
1985700,0.243512,-0.255712,0.981856,-0.56,-3.22,0.84,21.06
1985711,0.243024,-0.252784,0.992592,-0.21,-3.5,0.7,21.02
1985723,0.235704,-0.245464,0.981368,1.12,-4.41,0.56,21.02
1985735,0.23912,-0.254736,0.966728,2.24,-4.69,0.07,21.06
1985746,0.240096,-0.232776,0.957944,2.73,-4.69,-0.28,21.06
1985758,0.244,-0.2196,0.964288,1.26,-4.48,0.14,21.07
1985770,0.249368,-0.227408,0.963312,-0.84,-4.06,0.42,21.07
1985783,0.249856,-0.240096,0.964776,-2.24,-3.85,0.7,21.07
1985794,0.254736,-0.264008,0.951112,-3.01,-3.78,0.7,21.05
1985810,0.245952,-0.2562,0.948672,-1.33,-3.64,0.35,21.05
1985821,0.238144,-0.244976,0.937936,-0.21,-3.15,-0.21,21.05
1985832,0.24156,-0.228872,0.955016,0.0,-3.01,0.0,21.04
1985844,0.25132,-0.22936,0.951112,-1.12,-2.38,0.14,21.02
1985856,0.25376,-0.24644,0.952088,-1.47,-2.24,0.14,21.02
1985868,0.250832,-0.246928,0.946232,-0.77,-2.1,0.28,21.12
1985880,0.25132,-0.245464,0.943304,0.0,-2.1,0.42,21.02
1985893,0.243512,-0.249368,0.953064,1.68,-2.24,0.14,21.02
1985904,0.248392,-0.254248,0.94916,3.43,-2.38,-0.14,21.07
1985916,0.248392,-0.257664,0.95404,5.18,-2.38,17.709999,21.05
1985928,0.252784,-0.233752,0.950136,4.13,-1.96,0.21,21.05
1985940,0.244488,-0.25376,0.930616,3.15,-1.47,0.07,21.07
1985952,0.246928,-0.244,0.936472,1.68,-0.84,0.14,21.07
1985964,0.252296,-0.25132,0.95892,0.98,-0.42,0.14,21.05
1985975,0.252784,-0.240584,0.986736,0.14,-0.63,0.56,21.01
1985987,0.245952,-0.236192,0.988688,-1.05,-1.12,0.7,21.01
1985999,0.243512,-0.257176,0.973072,-0.07,-1.4,-0.07,21.06
1986011,0.244976,-0.232288,0.970632,1.12,-1.82,0.49,21.01
1986022,0.255224,-0.251808,0.97112,0.49,-1.19,0.49,21.01
1986033,0.240584,-0.276696,0.974048,2.31,-1.54,0.07,21.09
1986045,0.239608,-0.248392,0.981368,3.15,-2.1,0.28,21.09
1986056,0.243512,-0.228872,0.987224,2.8,-2.52,0.42,21.14
1986068,0.243512,-0.215208,0.99308,1.26,-3.15,1.12,21.06
1986079,0.249856,-0.229848,0.998448,-0.98,-3.29,1.54,21.06
1986091,0.239608,-0.256688,0.998448,-0.63,-3.78,1.4,21.07
1986103,0.238144,-0.27328,0.991128,1.26,-4.34,1.33,21.06
1986114,0.226432,-0.321592,0.991128,7.0,-5.67,1.05,21.06
1986126,0.22936,-0.306952,1.009672,14.42,-8.61,0.98,21.08
1986137,0.211304,-0.320616,1.042368,24.85,-12.32,0.28,21.08
1986149,0.202032,-0.316712,1.040416,38.080002,-18.200001,0.42,21.05
1986161,0.20496,-0.316224,1.045296,52.709999,-23.940001,1.05,21.08
1986172,0.203496,-0.323056,1.077992,75.389999,-31.99,2.03,21.08
1986183,0.203984,-0.350384,1.125816,102.970001,-42.349998,2.52,21.08
1986195,0.19764,-0.407968,1.174616,150.710007,-56.349998,2.17,21.08
1986207,0.225456,-0.394792,1.175592,224.979996,-69.650002,2.31,21.06
1986219,0.25132,-0.266448,1.18096,265.929993,-77.209999,5.53,21.09
1986230,0.237656,-0.059048,1.259528,288.399994,-90.93,12.88,21.09
1986241,0.242048,0.05856,1.319552,313.320007,-104.230003,20.65,21.07
1986254,0.239608,0.29036,1.331264,334.950012,-121.730003,36.82,21.03
1986265,0.302072,0.432856,1.292712,344.119995,-136.220001,53.34,21.03
1986277,0.345504,0.603168,1.22488,344.049988,-142.309998,72.730003,21.09
1986288,0.340136,0.797392,1.194136,332.220001,-149.940002,97.160004,21.09
1986301,0.349896,0.841312,1.175592,325.640015,-154.0,121.940002,21.06
1986312,0.335744,0.9394,1.13948,323.399994,-158.059998,144.130005,21.06
1986324,0.308904,1.10288,1.097512,307.790009,-164.990005,163.800003,21.06
1986336,0.368928,1.270752,1.018944,273.350006,-166.740005,183.820007,21.04
1986348,0.450912,1.207312,0.934032,233.800003,-156.800003,200.550003,21.09
1986360,0.449936,1.010648,0.952576,196.559998,-149.100006,208.880005,21.09
1986371,0.452376,0.971608,0.986736,171.639999,-144.410004,216.440002,21.11
1986383,0.452376,0.8418,0.95404,156.240005,-143.850006,221.759995,21.07
1986395,0.457744,0.676368,0.880352,149.729996,-147.559998,228.830002,21.07
1986406,0.481656,0.651968,0.820328,139.020004,-150.220001,237.160004,21.1
1986418,0.470432,0.71736,0.825208,124.110001,-149.169998,243.809998,21.1
1986430,0.476776,0.74908,0.821304,102.269997,-149.729996,251.440002,21.07
1986441,0.5124,0.684664,0.770064,81.690002,-146.440002,255.289993,21.06
1986453,0.521672,0.559736,0.682224,63.77,-139.369995,257.950012,21.06
1986465,0.523136,0.477264,0.56852,49.77,-132.229996,261.100006,21.12
1986476,0.524112,0.44652,0.489952,39.970001,-122.709999,264.600006,21.07
1986488,0.50508,0.292312,0.428952,36.75,-113.540001,265.440002,21.07
1986500,0.467992,0.271328,0.40504,27.93,-107.589996,266.630005,21.04
1986511,0.442128,0.270352,0.370392,8.47,-101.150002,270.269989,21.04
1986523,0.390888,0.159576,0.4026,-7.77,-99.190002,274.470001,21.05
1986534,0.381616,0.115168,0.33672,-16.309999,-110.599998,271.73999,20.98
1986547,0.306464,0.032208,0.24644,-20.58,-106.330002,273.350006,20.98
1986559,0.299632,-0.062952,0.094672,-27.23,-104.440002,272.440002,21.02
1986572,0.293776,-0.133224,0.047336,-28.42,-97.089996,274.399994,21.0
1986584,0.216184,-0.215696,0.009272,-22.120001,-95.900002,263.829987,21.0
1986596,0.186904,-0.33672,0.030256,-15.47,-94.849998,265.019989,21.08
1986608,0.211304,-0.426512,0.071248,-4.62,-80.5,276.149994,21.02
1986620,0.134688,-0.482632,0.078568,7.91,-74.830002,269.98999,21.02
1986633,0.081496,-0.527528,0.031232,12.88,-69.93,252.699997,21.08
1986644,0.10248,-0.591944,-0.013664,13.65,-61.880001,249.550003,21.03
1986656,0.036112,-0.764696,-0.069296,21.209999,-60.41,252.559998,21.03
1986668,0.003904,-0.828136,-0.137128,31.92,-59.5,245.630005,21.05
1986680,0.032208,-0.850584,-0.159088,43.330002,-60.34,242.970001,21.05
1986693,0.029768,-0.865224,-0.15128,65.519997,-49.630001,234.220001,21.06
1986708,-0.020496,-0.894504,-0.115168,88.129997,-47.389999,226.869995,21.09
1986720,-0.022936,-0.925736,-0.043432,102.760002,-46.830002,222.179993,21.08
1986732,-0.034648,-0.950136,0.021472,101.779999,-45.57,217.419998,21.08
1986744,-0.03904,-1.002352,0.078568,84.910004,-42.98,213.850006,21.06
1986757,-0.071248,-1.079456,0.105408,58.799999,-38.849998,207.690002,21.07
1986770,-0.108824,-1.191208,0.132736,21.77,-37.52,199.639999,21.07
1986781,-0.144448,-1.342488,0.1464,-4.97,-33.810001,187.600006,21.03
1986793,-0.196664,-1.51036,0.138592,-26.74,-28.700001,171.570007,21.03
1986805,-0.244,-1.747528,0.061488,-37.029999,-18.9,137.899994,21.07
1986816,-0.184952,-1.970056,0.045872,-38.360001,-17.219999,130.199997,21.07
1986828,-0.223992,-2.1594,-0.025376,-33.529999,-10.92,96.110001,21.07
1986840,-0.215696,-2.282864,-0.083936,-26.530001,-7.98,55.23,21.04
1986851,-0.211792,-2.30092,-0.062464,-23.450001,-10.08,28.84,21.05
1986863,-0.215696,-2.135488,-0.039528,-31.360001,-11.9,-12.46,21.05
1986876,-0.164944,-1.895392,-0.076128,-45.779999,-8.89,-41.93,21.08
1986888,-0.1464,-1.82024,-0.08296,-59.639999,-5.46,-65.309998,21.03
1986900,-0.143472,-1.70312,-0.071248,-74.830002,-6.37,-82.599998,21.03
1986912,-0.07076,-1.597224,-0.118584,-83.860001,-9.73,-96.040001,21.09
1986924,0.00244,-1.55672,-0.188368,-83.790001,-7.07,-109.830002,21.03
1986936,-0.012688,-1.71532,-0.300608,-67.620003,-1.12,-127.959999,21.03
1986948,-0.080032,-1.799744,-0.342576,-48.720001,0.07,-144.339996,21.04
1986960,-0.111264,-1.792424,-0.280112,-33.040001,0.91,-165.130005,21.04
1986972,-0.154208,-1.829024,-0.244976,-19.74,1.75,-188.860001,21.05
1986984,-0.210816,-1.962248,-0.311832,-0.35,2.59,-215.179993,21.08
1986996,-0.289384,-2.131584,-0.403576,24.360001,2.66,-242.970001,21.08
1987008,-0.398208,-2.273104,-0.467016,46.549999,3.57,-276.079987,21.05
1987020,-0.521184,-2.240408,-0.433344,60.619999,0.0,-313.320007,21.04
1987031,-0.634888,-2.332152,-0.421144,75.739998,-0.56,-355.809998,21.04
1987044,-0.846192,-2.34484,-0.496296,105.209999,0.49,-409.149994,21.03
1987058,-1.010648,-2.186728,-0.528504,134.539993,-10.36,-457.170013,21.04
1987070,-1.109712,-1.88368,-0.501176,170.869995,-20.16,-494.410004,21.04
1987082,-1.248792,-1.623088,-0.621712,211.679993,-32.970001,-531.789978,21.03
1987094,-1.396168,-1.275632,-0.541192,283.850006,-61.25,-559.369995,21.04
1987106,-1.405928,-0.777872,-0.49776,331.869995,-103.669998,-579.390015,21.04
1987118,-1.402024,-0.1464,-0.450424,346.359985,-138.740005,-593.390015,21.04
1987130,-1.475224,0.048312,-0.384544,370.649994,-179.059998,-591.919983,21.04
1987141,-1.848056,0.351848,-0.430904,428.820007,-217.699997,-583.869995,21.04
1987153,-1.911496,0.191784,-0.57584,500.850006,-281.75,-543.059998,21.04
1987165,-2.745,0.489952,-0.903776,510.019989,-316.470001,-514.570007,21.04
1987177,-3.24764,0.515328,-1.314672,458.709991,-371.279999,-449.609985,21.04
1987189,-2.814784,1.570872,-2.049112,332.079987,-396.410004,-423.149994,20.98
1987201,-2.419992,2.973872,-2.29604,120.050003,-376.670013,-396.899994,20.98
1987213,-1.567944,4.159224,-1.753384,-136.850006,-360.5,-362.600006,21.0
1987225,-0.423096,3.21836,-1.422032,-359.23999,-273.0,-338.23999,21.01
1987237,-0.525088,1.89832,-1.51036,-378.630005,-175.770004,-271.670013,21.01
1987249,-0.06832,1.826096,-1.953952,-205.100006,-135.869995,-203.630005,21.01
1987262,0.776408,1.576728,-2.545896,69.230003,-57.330002,-160.229996,21.01
1987276,0.649528,2.04472,-1.48108,129.990005,-23.309999,-137.270004,21.01
1987288,0.811544,2.872856,-0.61244,33.110001,0.63,-139.720001,20.97
1987299,0.64416,2.44488,-0.528016,-61.599998,41.23,-117.25,21.03
1987311,0.50508,2.059848,-0.735416,-79.239998,42.209999,-83.860001,21.03
1987322,0.349408,1.390312,-0.796416,-17.219999,51.66,-84.910004,21.0
1987334,0.25376,1.409344,-0.546072,49.91,28.49,-25.9,20.95
1987346,0.215208,1.7812,-0.166896,51.029999,12.32,-12.32,20.95
1987358,0.249856,1.731424,-0.142496,4.55,-1.61,-1.82,21.01
1987369,0.164944,1.677744,-0.316712,-31.5,-13.44,-0.98,21.01
1987380,0.262544,1.474248,-0.455304,-49.700001,-10.78,0.56,21.02
1987392,0.190808,1.362984,-0.482144,-38.990002,-13.79,-0.63,20.99
1987404,0.23912,1.441552,-0.3782,-34.439999,-12.25,-0.21,20.99
1987416,0.265472,1.379088,-0.3172,-40.040001,-4.06,2.66,21.01
1987428,0.225456,1.247816,-0.342576,-36.540001,3.99,7.42,21.04
1987440,0.260104,1.172176,-0.34892,-30.940001,5.25,11.48,21.04
1987453,0.325496,1.067256,-0.343552,-28.700001,7.07,14.07,21.05
1987466,0.272304,0.984784,-0.282552,-25.200001,7.77,14.49,20.98
1987478,0.304024,0.961848,-0.266936,-26.389999,5.81,23.1,20.98
1987490,0.287432,0.901824,-0.277672,-29.120001,1.96,23.52,21.0
1987502,0.291336,0.814472,-0.244,-24.99,-1.47,24.85,21.0
1987514,0.294264,0.850096,-0.302072,-22.26,-6.37,23.24,21.01
1987526,0.320128,0.828624,-0.31476,-21.280001,-9.1,20.719999,21.06
1987538,0.291824,0.809592,-0.33672,-16.799999,-14.91,20.790001,21.06
1987549,0.315248,0.818376,-0.339648,-15.12,-17.639999,21.98,20.98
1987561,0.310856,0.787632,-0.369904,-13.44,-17.360001,23.24,21.02
1987574,0.35136,0.836432,-0.402112,-16.73,-13.65,23.1,21.02
1987586,0.351848,0.802272,-0.427,-24.709999,-7.7,22.959999,21.01
1987598,0.340624,0.859368,-0.40992,-31.780001,-3.08,22.120001,20.96
1987610,0.338672,0.846192,-0.413824,-34.790001,2.1,22.33,20.96
1987622,0.309392,0.814472,-0.4026,-29.469999,3.29,21.42,20.97
1987635,0.300608,0.817888,-0.393816,-25.48,4.34,20.16,20.96
1987647,0.331352,0.871568,-0.408456,-31.219999,5.25,18.34,20.96
1987658,0.35624,0.860832,-0.396256,-39.060001,7.63,15.12,21.04
1987669,0.353312,0.854488,-0.383568,-42.209999,9.1,16.799999,21.04
1987681,0.37576,0.938912,-0.369904,-48.580002,10.36,17.85,20.98
1987692,0.393816,0.911584,-0.355264,-54.669998,12.6,18.83,21.0
1987704,0.38796,0.91012,-0.348432,-58.939999,14.07,21.98,21.0
1987717,0.42212,1.053104,-0.322568,-79.870003,15.33,24.219999,21.03
1987730,0.416264,0.936472,-0.289384,-92.190002,16.940001,24.01,20.98
1987741,0.40016,0.948184,-0.27084,-100.379997,15.05,26.32,20.98
1987753,0.427488,1.07604,-0.272792,-125.790001,14.56,29.82,20.98
1987765,0.481656,1.145336,-0.252784,-174.440002,19.809999,31.92,21.0
1987777,0.466528,1.00284,-0.14884,-218.889999,26.110001,30.940001,21.0
1987789,0.421632,0.97844,-0.081496,-246.75,24.709999,33.389999,20.99
1987801,0.450912,0.954528,-0.081984,-266.0,26.950001,32.41,21.0
1987812,0.451888,0.908168,-0.081008,-281.26001,31.43,31.43,21.0
1987824,0.44896,0.959896,-0.076128,-300.440002,35.07,30.940001,20.98
1987835,0.469944,0.976488,-0.064416,-321.859985,39.970001,25.27,20.98
1987846,0.464576,0.938912,0.024888,-336.070007,44.799999,21.42,21.05
1987858,0.430904,0.928664,0.09516,-349.299988,45.220001,18.34,21.03
1987870,0.455792,0.944768,0.058072,-370.299988,44.799999,18.48,21.03
1987881,0.457256,0.835456,0.177144,-391.859985,40.880001,18.129999,21.0
1987892,0.443104,0.796904,0.23912,-408.519989,44.869999,16.24,21.0
1987904,0.421144,0.835456,0.317688,-422.519989,38.57,16.450001,20.98
1987915,0.430416,0.762744,0.330376,-429.100006,39.48,15.61,21.01
1987927,0.429928,0.715896,0.338184,-428.820007,40.32,15.89,21.01
1987939,0.42212,0.69296,0.36356,-435.820007,38.220001,15.75,21.01
1987952,0.374784,0.609512,0.446032,-443.309998,33.810001,11.13,20.97
1987964,0.388936,0.447496,0.576328,-445.76001,36.189999,18.41,20.97
1987975,0.389912,0.354776,0.601704,-414.609985,37.310001,19.950001,21.02
1987986,0.41724,0.304024,0.583648,-406.910004,37.59,20.860001,21.02
1987998,0.374296,0.25376,0.66368,-381.359985,32.48,23.52,21.0
1988010,0.525576,0.19764,0.777872,-354.76001,28.49,26.67,21.0
1988021,0.4636,0.058072,0.813008,-321.440002,41.16,23.52,21.0
1988034,0.359168,-0.038064,0.804712,-271.880005,35.349998,17.01,21.0
1988045,0.411872,-0.07564,0.77592,-232.119995,28.84,14.0,20.98
1988057,0.44652,-0.082472,0.746152,-203.210007,34.299999,17.15,20.98
1988069,0.430904,-0.093208,0.780312,-179.970001,37.450001,10.64,21.0
1988080,0.406016,-0.138104,0.825696,-155.75,36.889999,6.44,20.96
1988093,0.399672,-0.201544,0.804712,-132.089996,36.610001,0.63,20.96
1988105,0.388448,-0.23424,0.793488,-116.269997,36.400002,-2.94,21.02
1988117,0.38308,-0.244976,0.781288,-103.389999,37.73,-6.79,21.02
1988129,0.36112,-0.286944,0.82716,-88.690002,37.240002,-8.96,20.97
1988140,0.336232,-0.288896,0.879376,-75.32,34.790001,-12.11,21.0
1988151,0.306464,-0.259616,0.961848,-64.610001,30.24,-15.33,21.0
1988162,0.293288,-0.286456,0.968192,-53.900002,23.379999,-14.49,21.03
1988174,0.306952,-0.20008,0.970144,-48.299999,18.059999,-14.07,20.94
1988185,0.3172,-0.161528,0.9882,-46.549999,17.5,-14.14,20.94
1988196,0.311832,-0.182024,1.016992,-41.369999,15.47,-13.16,20.95
1988208,0.309392,-0.201056,1.028704,-35.630001,13.58,-13.09,20.95
1988218,0.312808,-0.229848,0.996496,-28.139999,11.69,-12.81,21.01
1988230,0.330864,-0.199592,0.963312,-24.780001,11.62,-11.97,20.96
1988242,0.337208,-0.2196,0.9638,-22.540001,13.37,-11.13,20.96
1988253,0.306464,-0.214232,0.99796,-16.24,11.62,-11.55,21.05
1988265,0.296216,-0.180072,1.002352,-13.79,9.73,-10.08,21.05
1988276,0.296704,-0.183976,0.997472,-12.39,8.89,-9.1,20.98
1988288,0.305488,-0.245952,0.963312,-9.24,9.17,-9.1,20.96
1988300,0.306464,-0.229848,0.95892,-5.81,8.12,-8.19,20.96
1988312,0.322568,-0.194224,0.961848,-7.0,8.26,-6.79,20.99
1988323,0.323544,-0.17324,1.003816,-11.13,8.26,-5.95,20.99
