timestamp_ms,ax,ay,az,gx,gy,gz,tempC
1140321,0.316224,-0.118584,0.874496,-22.959999,-7.84,-1.68,21.5
1140333,0.279136,-0.160064,0.926224,-24.57,-6.3,-3.36,21.5
1140344,0.26108,-0.183488,0.961848,-30.799999,-6.65,-3.85,21.55
1140356,0.244976,-0.271816,0.96868,-34.369999,-5.74,-9.94,21.55
1140367,0.224968,-0.371368,1.004792,-36.959999,-6.16,-16.66,21.52
1140379,0.200568,-0.48312,1.028216,-26.809999,-6.3,-26.950001,21.48
1140391,0.172752,-0.567544,0.991616,-11.13,-6.65,-39.970001,21.48
1140403,0.139568,-0.652456,0.90524,2.31,-7.14,-56.0,21.5
1140414,0.10492,-0.669048,0.867664,9.59,-8.05,-66.57,21.5
1140426,0.11224,-0.635376,0.842288,7.35,-7.42,-79.309998,21.5
1140438,0.120048,-0.622688,0.83448,0.07,-4.76,-92.260002,21.54
1140449,0.1098,-0.61244,0.860832,-10.99,-2.31,-105.980003,21.54
1140461,0.128832,-0.519232,0.891576,-33.040001,-2.66,-111.860001,21.51
1140472,0.14396,-0.44164,0.900848,-60.900002,-0.42,-118.230003,21.54
1140484,0.16104,-0.45384,0.894992,-83.440002,4.34,-126.629997,21.54
1140496,0.159088,-0.476288,0.898408,-96.739998,9.31,-135.729996,21.48
1140507,0.187392,-0.454328,0.898896,-105.629997,13.37,-140.910004,21.5
1140518,0.203984,-0.472384,0.88328,-112.699997,18.27,-146.580002,21.5
1140530,0.226432,-0.53192,0.877912,-106.400002,25.059999,-151.550003,21.51
1140542,0.223992,-0.433832,0.833016,-97.860001,28.700001,-153.720001,21.51
1140553,0.255224,-0.371368,0.740296,-93.449997,34.650002,-154.490005,21.5
1140565,0.260592,-0.377712,0.664168,-85.330002,41.720001,-153.649994,21.52
1140576,0.2684,-0.332816,0.665632,-76.230003,49.84,-147.979996,21.52
1140587,0.244488,-0.241072,0.777872,-66.080002,56.84,-140.699997,21.5
1140599,0.221552,0.022448,0.940864,-59.57,60.549999,-129.220001,21.5
1140611,0.20496,0.287432,1.089216,-62.369999,60.200001,-118.089996,21.54
1140623,0.2684,0.33916,1.127768,-75.879997,65.589996,-103.18,21.5
1140634,0.301584,0.27084,1.087752,-85.400002,70.629997,-90.650002,21.5
1140646,0.29524,0.153232,0.967216,-79.589996,76.580002,-78.470001,21.54
1140657,0.278648,0.084424,0.866688,-58.869999,78.050003,-70.0,21.52
1140669,0.267912,0.016104,0.8418,-44.240002,77.910004,-63.349998,21.52
1140680,0.283528,-0.066368,0.84912,-20.299999,82.809998,-61.32,21.49
1140692,0.322568,-0.082472,0.906704,0.07,80.080002,-51.73,21.49
1140703,0.209352,-0.008784,0.989664,34.23,73.919998,-45.220001,21.51
1140715,0.155672,0.325496,1.040904,47.32,63.77,-30.1,21.46
1140726,0.188856,0.501664,1.114104,37.799999,56.0,-16.17,21.46
1140737,0.219112,0.46604,1.158512,16.940001,54.389999,-9.87,21.52
1140748,0.226432,0.348432,1.17608,-6.16,54.32,-8.47,21.52
1140760,0.213256,0.139568,1.164856,-19.040001,49.91,-3.57,21.52
1140772,0.191296,0.03172,1.130208,-28.42,41.790001,1.26,21.52
1140783,0.20496,-0.114192,1.10288,-26.809999,36.400002,2.31,21.52
1140794,0.182024,-0.20496,1.0736,-16.52,30.66,2.38,21.49
1140805,0.164456,-0.171288,1.063352,-9.94,22.82,4.2,21.49
1140817,0.183488,-0.240096,1.065792,-7.14,18.549999,4.2,21.54
1140829,0.188856,-0.255224,1.042368,-3.29,16.1,2.66,21.5
1140840,0.173728,-0.192272,1.030168,-3.92,13.02,2.8,21.5
1140852,0.172752,-0.1708,0.991128,-10.36,10.92,2.73,21.5
1140863,0.171776,-0.222528,0.979904,-24.5,9.66,2.31,21.49
1140875,0.169824,-0.310368,0.984784,-25.969999,9.31,0.7,21.49
1140886,0.133712,-0.283528,1.004304,-23.66,6.65,0.0,21.51
1140897,0.128344,-0.282064,0.976,-17.780001,5.74,0.21,21.51
1140908,0.130296,-0.2806,0.949648,-7.91,5.81,0.21,21.51
1140920,0.12932,-0.242536,0.940376,-1.4,5.53,1.89,21.45
1140931,0.130296,-0.222528,0.947696,2.66,6.02,3.36,21.45
1140942,0.125416,-0.174216,0.96624,-0.35,5.88,5.67,21.49
1140954,0.126392,-0.189344,0.979416,-8.33,7.35,6.58,21.49
1140965,0.115656,-0.206912,0.999912,-19.74,8.19,7.42,21.52
1140977,0.102968,-0.225456,1.015528,-29.959999,7.84,8.75,21.5
1140988,0.086376,-0.278648,1.020408,-32.060001,7.91,8.82,21.5
1141000,0.061488,-0.307928,1.028216,-26.74,5.46,8.19,21.52
1141012,0.073688,-0.340624,1.00772,-18.969999,3.57,6.65,21.48
1141023,0.083936,-0.34648,0.98576,-11.55,2.73,4.76,21.48
1141035,0.10248,-0.338184,0.967216,-5.74,2.66,4.34,21.53
1141046,0.101016,-0.299144,0.95404,-6.72,3.57,4.41,21.53
1141057,0.096136,-0.33428,0.961848,-10.15,5.46,3.5,21.51
1141069,0.073688,-0.33184,0.9638,-15.89,6.16,3.71,21.43
1141081,0.067832,-0.35136,0.965264,-20.370001,5.67,4.62,21.43
1141092,0.071248,-0.374784,0.940376,-18.41,6.16,3.22,21.51
1141103,0.06832,-0.365024,0.921832,-15.4,6.58,2.24,21.51
1141115,0.08784,-0.38552,0.931592,-8.47,7.7,1.26,21.52
1141126,0.098576,-0.376736,0.928664,-2.03,8.54,0.07,21.46
1141137,0.088816,-0.377224,0.922808,1.54,10.01,-0.49,21.46
1141149,0.076616,-0.377224,0.926224,4.48,11.2,-1.89,21.5
1141160,0.072224,-0.38552,0.918904,8.82,11.76,-3.15,21.5
1141172,0.079544,-0.362584,0.928664,7.63,10.99,-3.71,21.5
1141183,0.08784,-0.364536,0.967704,3.85,11.48,-3.22,21.48
1141194,0.085888,-0.338672,0.999912,0.35,11.97,-3.78,21.48
1141206,0.069296,-0.2806,1.018456,-3.01,11.41,-2.73,21.53
1141217,0.049288,-0.276696,1.036024,-3.78,10.64,-2.8,21.5
1141229,0.03904,-0.287432,1.038952,-5.11,8.82,-2.8,21.5
1141240,0.03416,-0.325008,1.053592,-2.38,6.58,-2.73,21.5
1141252,0.042944,-0.298656,1.04432,-2.59,3.36,-2.38,21.5
1141263,0.071248,-0.279136,0.989664,-4.2,2.66,-0.21,21.53
1141275,0.086376,-0.27328,0.953064,-7.98,3.08,1.4,21.52
1141286,0.087352,-0.274256,0.94916,-10.64,3.99,3.71,21.52
1141297,0.084424,-0.289384,0.963312,-11.2,4.06,4.41,21.51
1141309,0.080032,-0.35136,0.979904,-9.03,4.06,3.78,21.51
1141321,0.067344,-0.388448,0.989664,-2.94,2.66,1.54,21.49
1141332,0.064416,-0.389424,0.986736,1.19,1.54,1.61,21.53
1141343,0.069784,-0.389912,0.980392,4.83,1.61,0.49,21.53
1141354,0.055144,-0.390888,0.976976,7.14,1.33,-0.07,21.5
1141365,0.052216,-0.39284,0.979904,10.01,0.7,-0.56,21.5
1141376,0.049776,-0.328912,0.97112,8.75,0.0,0.07,21.5
1141387,0.06832,-0.32696,0.935984,4.27,1.12,0.56,21.49
1141399,0.070272,-0.320616,0.931104,-4.62,2.03,1.75,21.49
1141410,0.074176,-0.393816,0.926224,-9.73,4.83,0.77,21.54
1141421,0.070272,-0.421144,0.92232,-6.44,6.58,-1.26,21.54
1141432,0.039528,-0.39284,0.938912,-1.19,6.65,-0.49,21.51
1141444,0.038064,-0.381616,0.972096,3.15,6.86,-0.91,21.48
1141455,0.033184,-0.32452,1.017968,5.81,5.67,0.07,21.48
1141466,0.077104,-0.319152,0.989664,5.46,6.44,1.61,21.51
1141478,0.086376,-0.328912,0.950136,5.67,7.07,3.29,21.51
1141489,0.073688,-0.384056,0.950136,1.47,9.52,2.59,21.52
1141499,0.040016,-0.40992,0.996984,2.8,10.5,2.17,21.47
1141511,0.007808,-0.394792,1.021384,10.01,10.43,-0.42,21.47
1141522,-0.000976,-0.374296,1.037,16.030001,8.33,-0.91,21.54
1141533,0.023912,-0.350872,1.065304,12.6,6.37,-1.33,21.54
1141545,0.043432,-0.34648,1.098,7.42,5.46,-1.75,21.52
1141556,0.052216,-0.409432,1.107272,0.35,4.69,-3.5,21.5
1141568,0.051728,-0.4392,1.125328,-6.86,2.03,-3.92,21.5
1141579,0.033672,-0.542656,1.121912,-4.13,1.47,-7.42,21.5
1141591,0.011712,-0.554368,1.128256,8.61,-0.91,-10.57,21.51
1141602,0.008784,-0.549,1.147776,24.57,-4.55,-14.7,21.51
1141614,0.006344,-0.481656,1.179984,30.59,-7.14,-16.799999,21.54
1141625,0.011712,-0.354776,1.229272,28.209999,-8.96,-17.01,21.54
1141637,0.013176,-0.288408,1.273192,18.549999,-11.62,-18.27,21.55
1141648,0.033184,-0.315736,1.306864,9.31,-14.84,-16.17,21.49
1141660,0.029768,-0.290848,1.345416,-3.15,-20.65,-13.23,21.49
1141671,0.033184,-0.476776,1.34444,-5.46,-23.799999,-15.61,21.53
1141683,0.033184,-0.526064,1.319064,4.76,-29.26,-18.27,21.46
1141695,0.030256,-0.455304,1.338096,13.44,-36.119999,-16.309999,21.46
1141707,0.045872,-0.369904,1.361032,14.56,-41.650002,-14.56,21.53
1141719,0.067832,-0.276208,1.396168,4.55,-46.41,-13.16,21.53
1141730,0.0976,-0.26108,1.40544,-11.83,-50.889999,-12.04,21.5
1141742,0.105896,-0.282552,1.374696,-29.190001,-55.16,-10.57,21.47
1141753,0.11224,-0.350384,1.374208,-36.259998,-59.5,-11.62,21.47
1141765,0.122976,-0.413336,1.375672,-36.540001,-65.099998,-13.86,21.52
1141776,0.113704,-0.404064,1.38104,-34.509998,-71.190002,-14.77,21.52
1141787,0.12688,-0.31476,1.365424,-36.68,-77.209999,-13.09,21.48
1141799,0.154696,-0.294264,1.311744,-43.889999,-81.199997,-11.48,21.5
1141811,0.193248,-0.302072,1.255136,-51.099998,-83.160004,-10.08,21.5
1141822,0.206424,-0.300608,1.21512,-56.84,-84.839996,-9.59,21.49
1141833,0.215696,-0.35136,1.219024,-62.439999,-87.150002,-9.45,21.48
1141845,0.219112,-0.377224,1.197552,-63.349998,-89.949997,-10.78,21.48
1141857,0.22204,-0.403088,1.183888,-61.669998,-93.800003,-12.18,21.48
1141868,0.243024,-0.415288,1.179984,-61.110001,-97.93,-13.65,21.48
1141880,0.26596,-0.425048,1.187304,-62.299999,-102.129997,-15.61,21.46
1141891,0.259128,-0.438224,1.139968,-61.18,-105.699997,-18.690001,21.48
1141903,0.250344,-0.443104,1.059448,-59.849998,-109.550003,-21.629999,21.48
1141914,0.255224,-0.40748,1.01748,-59.849998,-113.260002,-22.68,21.52
1141926,0.275232,-0.364536,0.984296,-66.43,-116.480003,-23.799999,21.46
1141937,0.297192,-0.423584,0.967704,-70.629997,-117.669998,-26.950001,21.46
1141948,0.290848,-0.41236,0.930128,-71.68,-119.839996,-30.309999,21.5
1141960,0.303048,-0.47336,0.848632,-69.019997,-120.540001,-33.18,21.5
1141971,0.298168,-0.425536,0.737856,-61.32,-120.050003,-34.790001,21.51
1141983,0.298168,-0.345016,0.64416,-58.66,-118.650002,-33.25,21.49
1141994,0.320128,-0.327448,0.571936,-57.82,-114.870003,-32.34,21.49
1142006,0.330376,-0.33916,0.514352,-57.82,-110.459999,-31.43,21.51
1142017,0.343552,-0.396256,0.463112,-48.509998,-104.580002,-33.389999,21.51
1142029,0.367464,-0.381128,0.47336,-40.950001,-100.379997,-31.92,21.5
1142041,0.395768,-0.349408,0.404064,-33.599998,-94.57,-30.309999,21.48
1142053,0.402112,-0.342088,0.319152,-27.23,-86.660004,-29.33,21.48
1142064,0.387472,-0.318176,0.22936,-20.93,-79.099998,-27.16,21.52
1142076,0.391376,-0.269864,0.19276,-17.99,-72.379997,-21.84,21.5
1142087,0.420656,-0.194712,0.185928,-21.07,-64.540001,-17.08,21.5
1142098,0.441152,-0.221552,0.217648,-28.209999,-55.720001,-10.85,21.52
1142109,0.458232,-0.288408,0.230336,-30.1,-46.830002,-8.61,21.52
1142121,0.45628,-0.355264,0.20984,-30.17,-39.689999,-6.58,21.53
1142133,0.433344,-0.408944,0.203984,-24.709999,-34.93,-4.76,21.53
1142145,0.425536,-0.35624,0.215696,-21.139999,-32.200001,-2.87,21.53
1142156,0.433832,-0.350872,0.245952,-24.01,-28.0,-0.49,21.49
1142168,0.442616,-0.349896,0.2562,-24.709999,-23.309999,0.14,21.49
1142179,0.464576,-0.389912,0.26108,-25.620001,-19.459999,1.12,21.48
1142190,0.48556,-0.433344,0.264496,-23.1,-16.66,1.89,21.48
1142202,0.499712,-0.449936,0.286944,-19.809999,-13.58,1.68,21.48
1142213,0.499712,-0.45628,0.313784,-16.73,-11.34,3.15,21.5
1142225,0.51484,-0.453352,0.330376,-13.93,-9.45,4.55,21.5
1142236,0.538752,-0.457744,0.337696,-11.9,-7.21,5.81,21.5
1142247,0.555344,-0.477264,0.335256,-10.92,-4.06,6.51,21.46
1142258,0.55388,-0.504104,0.333304,-9.03,-2.17,6.86,21.46
1142270,0.56608,-0.519232,0.34648,-4.97,-0.77,6.65,21.5
1142281,0.559248,-0.506544,0.379664,-1.4,-0.7,6.3,21.49
1142292,0.575352,-0.50508,0.42456,-1.47,-0.7,6.51,21.49
1142304,0.593896,-0.51972,0.435296,0.28,0.14,5.25,21.5
1142315,0.599264,-0.527528,0.43676,0.77,0.7,4.34,21.5
1142326,0.60512,-0.540704,0.4392,1.61,1.82,3.85,21.46
1142337,0.5978,-0.530944,0.438712,3.15,2.31,4.06,21.48
1142349,0.610488,-0.538752,0.471896,3.01,1.96,4.41,21.48
1142360,0.630496,-0.537776,0.49288,3.43,2.38,4.06,21.53
1142371,0.642208,-0.543632,0.492392,2.73,3.22,3.99,21.53
1142382,0.63684,-0.558272,0.490928,4.06,4.27,3.36,21.5
1142393,0.63196,-0.552416,0.49532,6.44,4.62,3.71,21.47
1142405,0.638792,-0.549,0.5124,7.63,4.27,4.55,21.47
1142416,0.65148,-0.54168,0.53192,6.44,4.62,4.76,21.5
1142427,0.660264,-0.535336,0.560712,5.39,5.32,4.9,21.5
1142438,0.664656,-0.536312,0.572424,2.31,5.88,4.62,21.55
1142449,0.662704,-0.550464,0.577792,0.07,6.16,4.13,21.53
1142460,0.650992,-0.601216,0.587064,1.96,5.32,3.08,21.53
1142471,0.645136,-0.57828,0.584624,5.74,3.36,3.64,21.49
1142482,0.654408,-0.550952,0.580232,6.93,2.45,4.69,21.49
1142494,0.657336,-0.50264,0.591944,5.04,2.03,5.95,21.5
1142505,0.659776,-0.521672,0.597312,0.28,2.1,6.51,21.46
1142516,0.653432,-0.54656,0.599264,-3.29,2.24,5.95,21.46
1142528,0.641232,-0.59048,0.590968,-3.92,1.26,6.09,21.52
1142539,0.638304,-0.589504,0.575352,-1.05,0.42,5.95,21.52
1142550,0.632448,-0.550464,0.5612,1.26,0.0,6.72,21.46
1142561,0.634888,-0.533384,0.552416,-0.49,0.21,7.98,21.49
1142572,0.647576,-0.543144,0.556808,-2.73,1.61,8.4,21.49
1142583,0.624152,-0.554856,0.550952,-2.52,2.45,8.4,21.55
1142594,0.61,-0.576328,0.543632,-0.7,2.38,8.12,21.55
1142606,0.601216,-0.577792,0.528992,0.63,2.1,8.26,21.53
1142616,0.599752,-0.588528,0.520208,3.5,2.24,8.19,21.46
1142628,0.591944,-0.554368,0.517768,3.99,2.45,8.61,21.46
1142639,0.582184,-0.554368,0.506056,4.27,3.71,8.54,21.49
1142650,0.57584,-0.554368,0.503128,6.58,4.76,7.84,21.49
1142661,0.553392,-0.54412,0.498736,8.75,5.67,8.12,21.49
1142673,0.553392,-0.538264,0.49776,9.1,6.09,8.82,21.47
1142683,0.554856,-0.524112,0.484096,8.33,7.0,9.1,21.47
1142695,0.557296,-0.550464,0.477264,8.89,8.54,9.45,21.52
1142706,0.55144,-0.507032,0.480192,8.12,9.52,10.15,21.52
1142717,0.540216,-0.512888,0.4636,6.02,11.06,10.5,21.51
1142728,0.528504,-0.53436,0.44896,7.0,12.81,10.22,21.47
1142739,0.51728,-0.540216,0.45628,6.51,13.51,10.85,21.47
1142750,0.527528,-0.567056,0.461648,9.1,14.28,10.43,21.53
1142762,0.528504,-0.562664,0.469944,12.32,15.4,9.31,21.53
1142773,0.519232,-0.545096,0.45628,13.65,16.940001,8.89,21.52
1142784,0.508496,-0.530456,0.446032,12.81,19.25,8.68,21.52
1142795,0.498736,-0.525576,0.44408,12.46,21.280001,8.68,21.52
1142806,0.491416,-0.534848,0.442128,13.58,22.469999,8.68,21.47
1142817,0.508008,-0.533384,0.44164,15.68,24.219999,9.1,21.47
1142828,0.515328,-0.509472,0.44408,16.52,27.23,9.73,21.51
1142840,0.519232,-0.499224,0.449448,14.49,31.01,10.57,21.51
1142851,0.38064,-0.503128,0.443592,14.84,34.369999,11.13,21.52
1142862,0.474336,-0.498736,0.456768,14.63,36.259998,12.25,21.45
1142873,0.462624,-0.513376,0.471896,17.99,37.450001,11.97,21.45
1142885,0.45384,-0.521184,0.473848,22.26,38.080002,11.69,21.47
1142896,0.472872,-0.507032,0.508008,23.1,39.970001,12.25,21.52
1142907,0.488,-0.475312,0.532896,20.58,43.119999,13.09,21.52
1142918,0.486048,-0.479704,0.522648,19.040001,46.759998,12.81,21.48
1142930,0.457744,-0.498736,0.519232,21.209999,49.84,13.37,21.48
1142941,0.436272,-0.489464,0.552904,23.1,50.400002,14.91,21.46
1142952,0.426512,-0.503128,0.584624,24.99,49.630001,14.7,21.51
1142963,0.426512,-0.51972,0.582184,28.139999,49.560001,14.42,21.51
1142975,0.444568,-0.506056,0.619272,28.280001,51.169998,14.35,21.48
1142985,0.427976,-0.474336,0.637816,27.860001,51.869999,15.05,21.48
1142997,0.430416,-0.455792,0.6344,25.620001,55.23,15.19,21.49
1143008,0.393328,-0.492392,0.647088,24.15,55.860001,15.05,21.5
1143019,0.250344,-0.484584,0.686128,22.889999,54.459999,14.21,21.5
1143030,0.354776,-0.510448,0.709064,22.82,53.48,13.79,21.47
1143041,0.357704,-0.516792,0.743224,24.08,52.360001,13.72,21.47
1143052,0.37332,-0.521184,0.74664,24.780001,52.150002,14.21,21.52
1143064,0.37332,-0.530456,0.745664,27.65,53.060001,12.88,21.52
1143075,0.354776,-0.52948,0.735904,30.309999,53.619999,12.04,21.5
1143087,0.332328,-0.530456,0.759816,30.1,53.060001,11.62,21.5
1143098,0.321104,-0.512888,0.796416,29.120001,51.869999,10.64,21.5
1143109,0.323544,-0.521672,0.828136,26.110001,51.799999,9.66,21.56
1143120,0.325008,-0.542168,0.840336,26.18,52.5,9.24,21.49
1143131,0.330376,-0.560712,0.850584,28.77,52.709999,9.24,21.49
1143143,0.322568,-0.543144,0.85644,31.01,52.990002,8.68,21.49
1143154,0.301584,-0.553392,0.856928,33.040001,52.57,7.42,21.49
1143165,0.267912,-0.513864,0.851072,36.68,50.540001,5.74,21.55
1143176,0.2684,-0.467016,0.873032,32.34,50.540001,5.67,21.52
1143187,0.263032,-0.474336,0.907192,26.530001,51.380001,6.16,21.52
1143199,0.282552,-0.487512,0.948672,21.42,51.450001,7.21,21.49
1143210,0.284016,-0.53436,0.9638,18.620001,51.939999,6.72,21.49
1143221,0.261568,-0.548024,0.95892,22.68,51.029999,5.04,21.47
1143233,0.227408,-0.510448,0.950624,26.389999,48.439999,4.2,21.5
1143244,0.21472,-0.479216,0.960384,24.57,47.389999,4.62,21.5
1143256,0.208376,-0.450912,1.009184,19.950001,47.32,5.46,21.52
1143267,0.202032,-0.421144,1.034072,11.69,46.549999,7.0,21.52
1143278,0.190808,-0.486048,0.999424,9.52,46.41,6.44,21.47
1143289,0.1708,-0.504104,0.98576,13.16,43.610001,6.16,21.46
1143300,0.189832,-0.474336,0.996984,13.3,42.419998,3.36,21.46
1143311,-0.003904,-0.520208,1.009672,14.91,28.84,3.08,21.48
1143322,0.22204,-0.432368,1.056032,8.75,34.16,5.6,21.48
1143334,0.179096,-0.45384,1.069208,1.12,39.970001,7.0,21.49
1143345,0.123464,-0.535336,1.039928,5.39,37.73,8.26,21.42
1143356,0.155184,-0.550952,1.025288,10.71,35.98,8.19,21.42
1143366,0.145424,-0.534848,1.023336,15.19,33.389999,8.96,21.46
1143378,0.152256,-0.505568,1.046272,16.73,32.41,9.03,21.46
1143389,0.140056,-0.47092,1.041392,14.49,32.27,9.17,21.5
1143400,0.108336,-0.429928,1.031144,7.77,30.73,9.8,21.48
1143411,0.107848,-0.455792,1.043832,0.84,28.700001,11.76,21.48
1143422,0.127856,-0.498248,1.079456,-1.33,27.440001,11.69,21.48
1143434,0.12688,-0.54412,1.109224,-0.77,25.969999,10.5,21.48
1143445,0.122976,-0.570472,1.109712,3.64,24.43,8.82,21.5
1143456,0.101016,-0.545584,1.10776,6.86,20.93,8.33,21.47
1143467,0.092232,-0.518256,1.092632,7.49,18.129999,7.35,21.47
1143478,0.082472,-0.466528,1.048712,8.75,17.15,6.02,21.52
1143490,0.079544,-0.427488,1.026264,5.04,16.59,6.79,21.52
1143501,0.082472,-0.438712,1.028704,-0.91,15.68,8.33,21.5
1143511,0.09028,-0.486048,1.020896,-0.84,14.91,8.4,21.5
1143523,0.083448,-0.5124,1.007232,2.17,13.79,8.12,21.47
1143534,0.083448,-0.49776,1.018944,7.42,12.53,8.4,21.47
1143544,0.084912,-0.446032,1.038464,5.95,11.2,9.66,21.47
1143556,0.089304,-0.44896,1.009184,2.03,11.83,10.22,21.47
1143567,0.081496,-0.487024,0.99552,0.7,12.18,9.87,21.47
1143578,0.072712,-0.511912,0.986248,4.97,11.83,9.1,21.5
1143588,0.062952,-0.501176,0.979904,8.82,10.5,9.03,21.45
1143599,0.074176,-0.503616,0.95892,9.1,10.36,9.24,21.45
1143610,0.06344,-0.49044,0.962336,8.68,9.66,8.96,21.45
1143622,0.057096,-0.43676,0.98088,4.69,8.54,9.38,21.45
1143633,0.056608,-0.472384,0.986736,1.05,8.33,8.68,21.51
1143644,0.059048,-0.490928,0.99064,0.84,6.79,7.56,21.5
1143655,0.05612,-0.504104,0.994544,-0.42,6.02,5.88,21.5
1143667,0.058072,-0.538264,0.96868,3.92,5.25,3.22,21.46
1143678,0.040504,-0.489952,0.957456,9.38,3.64,2.73,21.46
1143689,0.052216,-0.44896,0.952576,10.15,2.94,3.78,21.49
1143701,0.061,-0.407968,0.931592,7.63,4.41,4.48,21.44
1143712,0.05368,-0.401624,0.907192,4.97,6.37,5.32,21.44
1143724,0.05612,-0.425048,0.891576,4.55,7.84,6.16,21.49
1143735,0.045384,-0.399672,0.894016,2.03,8.4,8.4,21.49
1143746,0.050752,-0.43676,0.90036,0.7,10.01,9.38,21.5
1143758,0.047336,-0.445544,0.915976,-0.07,11.13,10.15,21.47
1143769,0.02928,-0.476776,0.942816,0.91,11.48,9.8,21.47
1143781,0.01708,-0.46604,0.93696,3.71,11.69,10.08,21.49
1143792,0.021472,-0.462624,0.920368,5.67,12.04,9.38,21.46
1143803,0.0244,-0.431392,0.926224,2.52,11.62,10.92,21.46
1143814,0.01464,-0.464088,0.955016,-3.85,12.46,10.01,21.51
1143826,0.00732,-0.487024,0.95892,-2.45,11.2,9.45,21.51
1143837,0.027328,-0.449936,0.955016,-1.4,12.39,9.1,21.5
1143849,-0.00976,-0.487024,0.983808,-0.28,12.18,6.65,21.46
1143860,-0.02684,-0.476288,0.999424,3.57,10.5,6.16,21.46
1143871,-0.004392,-0.44408,0.995032,3.71,9.03,6.02,21.48
1143883,-0.003416,-0.403088,1.046272,-5.6,6.86,5.6,21.48
1143895,-0.02684,-0.75884,1.04676,16.52,7.0,-0.91,21.51
1143906,-0.064904,-0.327448,1.0004,-0.14,2.38,0.7,21.48
1143918,-0.081496,-0.545096,1.137528,-3.78,-4.34,4.06,21.48
1143930,0.023424,-0.396744,1.062864,-12.04,-5.53,5.04,21.46
1143941,0.022936,-0.40748,0.951112,-18.48,-3.08,3.57,21.49
1143953,0.030744,-0.41968,0.83204,-21.42,1.12,4.69,21.49
1143964,0.003904,-0.529968,0.845216,-15.4,3.85,3.08,21.49
1143976,-0.019032,-0.547536,0.903776,-12.6,4.06,4.06,21.49
1143988,-0.0244,-0.63684,0.955504,-5.11,4.83,0.14,21.48
1143999,-0.022936,-0.648064,0.988688,1.47,4.13,-3.43,21.48
1144011,-0.030744,-0.62708,0.965752,21.559999,3.15,-7.84,21.48
1144023,-0.046848,-0.434808,0.993568,22.049999,-0.28,-6.3,21.45
1144035,-0.015128,-0.394304,1.033096,11.34,-2.87,-5.04,21.46
1144046,-0.000488,-0.333792,1.051152,-13.23,-4.62,-4.76,21.46
1144059,0.030256,-0.466528,0.9394,-31.08,-2.94,-1.96,21.5
1144070,0.008296,-0.581696,0.792512,-22.82,-0.07,-6.44,21.5
1144083,-0.035136,-0.49044,0.777872,-2.03,-0.49,-5.95,21.48
1144095,-0.028792,-0.357216,0.87352,5.25,-2.24,-2.17,21.54
1144108,0.001464,-0.549488,0.876448,9.45,0.35,-5.04,21.54
1144119,-0.035624,-0.515328,0.923296,30.59,-0.56,-9.66,21.48
1144131,-0.025376,-0.411872,0.962336,35.0,-2.52,-8.33,21.5
1144142,-0.009272,-0.337208,1.00528,27.370001,-7.35,-0.84,21.5
1144153,0.004392,-0.284992,0.990152,17.639999,-8.47,0.49,21.5
1144165,0.026352,-0.243024,0.925736,3.78,-7.35,2.94,21.5
1144176,0.03416,-0.122976,0.948184,-23.870001,-9.17,8.82,21.48
1144188,0.035624,-0.255712,0.962336,-48.790001,-7.14,12.11,21.49
1144200,0.020496,-0.597312,0.845704,-35.419998,-1.89,7.49,21.49
1144212,-0.028792,-0.691008,0.759816,-3.5,-1.33,-0.63,21.51
1144223,-0.023912,-0.547536,0.77104,7.98,-4.97,3.29,21.47
1144236,-0.014152,-0.579256,0.774456,13.3,-4.55,3.01,21.47
1144249,-0.029768,-0.426512,0.854976,6.44,-3.36,2.45,21.47
1144261,0.000976,-0.417728,0.915976,-7.42,-1.05,3.15,21.47
1144272,-0.022448,-0.48312,0.964776,-12.25,-1.33,1.47,21.47
1144284,-0.021472,-0.529968,0.974048,-10.92,-2.87,-0.49,21.49
1144296,-0.025864,-0.53192,0.969656,-8.33,-3.71,-1.82,21.47
1144308,-0.020984,-0.541192,0.984296,-3.5,-6.09,-2.59,21.47
1144320,-0.014152,-0.532408,0.975512,5.53,-7.98,-3.99,21.49
1144332,-0.024888,-0.452864,0.951112,11.48,-10.08,-4.13,21.49
1144344,0.003416,-0.465552,0.89304,11.83,-8.33,-5.11,21.47
1144356,-0.010736,-0.484096,0.861808,12.32,-7.28,-5.6,21.46
1144367,-0.019032,-0.434808,0.892552,11.83,-7.28,-3.85,21.46
1144379,-0.010248,-0.397232,0.944768,8.26,-6.79,-1.68,21.48
1144390,-0.010736,-0.396744,0.943304,1.19,-5.88,-0.7,21.48
1144402,-0.004392,-0.457256,0.923784,-0.91,-4.41,-0.77,21.48
1144414,-0.004392,-0.440176,0.918904,0.21,-5.04,0.42,21.46
1144425,-0.000976,-0.421144,0.89548,-1.54,-4.13,2.03,21.46
1144437,0.002928,-0.462136,0.870592,1.05,-1.89,1.75,21.48
1144449,-0.015128,-0.43188,0.846192,5.74,-0.35,2.38,21.46
1144460,-0.014152,-0.4514,0.85156,5.25,0.42,3.15,21.46
1144472,-0.010736,-0.464088,0.88328,-0.91,0.91,4.41,21.51
1144484,-0.020984,-0.481168,0.91744,-3.85,1.12,4.13,21.48
1144495,-0.02928,-0.481168,0.945744,-2.8,0.98,3.08,21.48
1144507,-0.032696,-0.485072,0.964288,-0.63,-0.49,2.59,21.48
1144519,-0.020984,-0.500688,0.97356,0.91,-2.24,2.38,21.48
1144531,-0.010248,-0.473848,0.95404,1.33,-3.29,1.89,21.46
1144544,-0.00244,-0.476288,0.911584,2.52,-3.22,0.35,21.48
1144556,-0.001464,-0.48556,0.893528,3.99,-2.94,-1.05,21.48
1144567,-0.008784,-0.5002,0.89304,5.95,-3.15,-1.54,21.47
1144579,-0.006832,-0.488488,0.901336,5.67,-3.99,-1.75,21.53
1144591,-0.00732,-0.45384,0.908168,3.29,-3.64,-1.89,21.53
1144603,-0.001464,-0.453352,0.925736,0.77,-3.01,-1.89,21.5
1144615,-0.004392,-0.447008,0.9272,1.89,-2.45,-2.66,21.49
1144626,-0.004392,-0.443592,0.928664,1.12,-2.66,-1.96,21.49
1144638,0.006344,-0.477264,0.904264,3.01,-1.05,-2.24,21.5
1144650,0.006832,-0.492392,0.889624,12.6,-1.05,-3.15,21.5
1144662,0.00488,-0.488976,0.871568,25.27,-0.77,-3.78,21.48
1144673,-0.004392,-0.371368,0.894992,28.42,-1.75,-1.96,21.46
1144684,0.020008,-0.345504,0.928664,19.18,-0.77,0.56,21.46
1144696,0.01708,-0.352824,0.90768,10.99,1.82,0.84,21.48
1144707,0.002928,-0.370392,0.888648,3.85,2.87,2.1,21.47
1144719,-0.001464,-0.39528,0.886208,-0.21,3.08,3.64,21.47
1144730,-0.007808,-0.417728,0.898408,-0.42,2.03,4.06,21.49
1144742,-0.021472,-0.413824,0.9516,-1.26,0.21,5.25,21.49
1144754,-0.014152,-0.442128,0.974536,-0.63,-0.84,4.48,21.49
1144765,-0.019032,-0.413336,0.953064,-1.47,-1.26,4.27,21.5
1144777,-0.025376,-0.398208,0.953064,-8.26,-2.52,4.76,21.5
1144788,-0.013664,-0.489952,0.919392,-9.59,-1.89,3.22,21.49
1144801,-0.033672,-0.520696,0.926224,-5.39,-3.22,2.03,21.47
1144813,-0.0366,-0.505568,0.96136,2.8,-6.3,2.17,21.47
1144825,-0.028304,-0.488976,1.0004,6.09,-8.47,0.49,21.46
1144838,-0.000488,-0.484584,1.016992,8.61,-9.45,-2.45,21.45
1144849,0.001952,-0.451888,1.008696,8.19,-10.36,-3.92,21.45
1144862,0.00732,-0.461648,0.996496,5.25,-10.78,-3.85,21.46
1144874,0.010248,-0.469944,0.972584,4.83,-10.71,-3.57,21.46
1144885,0.011224,-0.462136,0.933056,6.86,-9.87,-3.29,21.49
1144896,0.022448,-0.475312,0.887672,9.38,-8.75,-3.64,21.45
1144908,0.01708,-0.452376,0.83448,12.11,-5.81,-3.43,21.45
1144920,0.004392,-0.451888,0.855464,12.88,-4.62,-2.73,21.46
1144931,0.006832,-0.406016,0.925736,8.89,-4.2,-1.4,21.42
1144943,0.005368,-0.391864,0.975024,1.68,-3.22,-0.56,21.42
1144954,0.004392,-0.391376,0.982832,-4.06,-2.38,-0.07,21.5
1144965,0.001952,-0.424072,0.943792,-6.65,-1.89,0.21,21.5
1144977,-0.001464,-0.471896,0.915488,-3.85,-2.17,0.21,21.49
1144989,-0.000488,-0.479704,0.898896,3.01,-2.66,-0.49,21.52
1145001,0.007808,-0.460184,0.859856,7.63,-2.03,-1.68,21.52
1145013,0.001464,-0.463112,0.839848,13.23,-0.21,-3.01,21.5
1145024,-0.016592,-0.39284,0.910608,13.02,-1.26,-1.89,21.43
1145036,0.00244,-0.369416,0.970144,5.53,-1.75,-0.77,21.43
1145047,-0.001952,-0.365512,0.983808,-2.45,-1.47,-0.63,21.48
1145059,0.000976,-0.411384,0.969656,-6.44,-1.47,-0.56,21.48
1145070,-0.005368,-0.460672,0.921832,-2.66,-2.45,-0.56,21.53
1145082,-0.007808,-0.464576,0.904752,3.64,-3.85,-0.56,21.46
1145094,0.005368,-0.413336,0.871568,7.84,-2.94,-1.26,21.46
1145105,0.004392,-0.366,0.864736,5.25,-1.61,-0.91,21.47
1145117,0.000488,-0.40504,0.901824,0.91,-0.84,-0.21,21.47
1145128,-0.001464,-0.430904,0.95404,-1.19,-1.47,1.33,21.47
1145140,-0.000976,-0.416752,0.971608,-1.47,-1.68,1.12,21.46
1145151,-0.00488,-0.43432,0.974048,-1.68,-2.17,0.49,21.46
1145163,-0.005368,-0.44408,0.952576,0.14,-2.59,0.63,21.45
1145174,0.002928,-0.4514,0.930128,1.12,-2.59,-0.21,21.45
1145186,-0.000976,-0.437248,0.935496,1.33,-2.73,0.0,21.45
1145198,0.0,-0.436272,0.9272,1.96,-2.52,0.14,21.5
1145209,-0.001952,-0.418216,0.909144,3.29,-1.96,0.07,21.5
1145221,0.0,-0.39528,0.92476,0.21,-1.75,0.56,21.49
1145233,-0.003416,-0.463112,0.94428,-0.84,-1.47,-0.49,21.5
1145245,-0.009272,-0.45384,0.950624,1.61,-2.31,-1.19,21.5
1145257,-0.005368,-0.438712,0.943792,1.75,-2.38,-1.54,21.49
1145269,-0.000976,-0.440176,0.934032,1.54,-2.1,-1.89,21.44
1145281,-0.005856,-0.421144,0.922808,2.52,-2.31,-1.61,21.44
1145292,-0.00732,-0.404064,0.908168,1.68,-2.45,-0.84,21.47
1145304,-0.004392,-0.408944,0.915,0.49,-2.24,-0.7,21.51
1145316,-0.002928,-0.436272,0.93452,0.84,-2.1,-0.91,21.51
1145328,-0.00244,-0.411872,0.938912,0.84,-2.03,-0.35,21.48
1145340,-0.000976,-0.420168,0.94184,-0.28,-1.61,0.14,21.48
1145352,-0.001952,-0.433344,0.937936,0.56,-1.89,0.28,21.48
1145364,0.0,-0.437248,0.938424,1.82,-2.45,0.21,21.48
1145376,0.0,-0.424072,0.945744,2.17,-2.87,0.35,21.48
1145387,0.004392,-0.416752,0.948184,1.61,-2.73,0.35,21.47
1145398,0.006832,-0.420656,0.957944,0.28,-2.45,0.35,21.46
1145410,0.003904,-0.437248,0.957944,-1.05,-2.73,0.35,21.46
1145421,-0.000976,-0.443592,0.931592,0.63,-3.08,0.21,21.45
1145433,-0.001464,-0.432856,0.94184,0.35,-3.5,0.42,21.45
1145444,0.00244,-0.459696,0.94428,1.33,-3.36,-0.7,21.45
1145456,0.000976,-0.423584,0.940864,1.82,-3.85,-0.49,21.43
1145467,0.013176,-0.426512,0.937936,0.35,-3.71,-0.77,21.43
1145479,0.011712,-0.442128,0.927688,0.14,-3.22,-0.91,21.47
1145492,0.006832,-0.430416,0.921344,0.42,-3.15,-0.56,21.45
1145504,0.005368,-0.4392,0.931104,0.35,-2.94,-0.49,21.45
1145515,-0.003904,-0.423584,0.933544,1.47,-3.29,-0.14,21.49
1145527,0.003416,-0.401624,0.931104,0.07,-2.8,0.28,21.49
1145539,0.005368,-0.419192,0.930616,-1.75,-2.24,0.07,21.46
1145550,-0.003904,-0.427976,0.935984,-1.89,-2.73,0.35,21.47
1145562,0.003904,-0.42212,0.924272,-2.03,-3.01,0.84,21.47
1145573,-0.000488,-0.435296,0.920856,0.0,-3.5,0.84,21.47
1145585,0.008296,-0.415776,0.907192,1.12,-3.08,1.33,21.46
1145596,0.011712,-0.406016,0.898408,0.49,-2.17,1.33,21.46
1145608,0.008296,-0.42212,0.921832,-1.68,-2.03,1.61,21.44
1145620,0.005856,-0.416752,0.921832,-2.73,-1.4,1.61,21.44
1145632,-0.000488,-0.410408,0.912072,-5.39,-1.61,3.15,21.45
1145644,0.006344,-0.41968,0.896456,-7.07,-1.26,4.34,21.5
1145655,0.004392,-0.38552,0.880352,-9.38,-0.28,5.04,21.5
1145667,0.005856,-0.424072,0.88084,-13.02,0.7,5.81,21.46
1145678,0.005856,-0.461648,0.887672,-9.03,1.4,4.62,21.47
1145693,0.004392,-0.459208,0.874008,-3.15,1.61,4.62,21.47
1145705,0.005856,-0.467016,0.85156,2.24,2.66,3.29,21.47
1145717,-0.000488,-0.43188,0.842776,1.61,3.57,3.85,21.46
1145728,0.001464,-0.440664,0.865224,-1.47,4.41,3.57,21.46
1145740,0.001464,-0.42944,0.879376,-5.6,5.67,3.43,21.45
1145751,0.006344,-0.449936,0.887672,-8.68,6.93,1.89,21.45
1145762,0.011224,-0.450424,0.853024,-7.21,9.52,0.42,21.49
1145773,0.002928,-0.445056,0.809104,-5.74,12.32,-0.84,21.48
1145785,0.000976,-0.497272,0.765672,2.03,16.24,-2.38,21.48
1145797,0.001464,-0.5002,0.790072,7.98,18.059999,-2.52,21.46
1145808,-0.001464,-0.4514,0.831552,9.03,19.809999,-1.19,21.45
1145819,0.001952,-0.44652,0.821792,7.49,23.1,-1.61,21.45
1145831,-0.015616,-0.484584,0.815448,4.62,28.07,-3.15,21.48
1145842,-0.049776,-0.793976,0.940376,27.09,26.6,-8.96,21.48
1145854,-0.272792,-1.058472,1.360544,97.510002,11.97,-28.77,21.47
1145865,-0.130296,-0.131272,1.491816,99.120003,-12.81,-10.15,21.46
1145877,0.020496,-0.101992,1.360056,44.029999,-9.94,-4.13,21.46
1145888,0.084424,-0.303048,1.092144,19.6,-2.24,-12.74,21.5
1145900,0.011712,-0.296704,0.996984,-4.34,-0.49,-5.25,21.5
1145911,0.031232,-0.451888,0.8784,-6.02,3.71,2.45,21.48
1145922,0.000976,-0.478728,0.823744,9.38,7.7,-1.33,21.47
1145934,-0.0122,-0.350872,0.911584,16.1,9.38,5.46,21.47
1145945,-0.027328,-0.447008,1.045784,5.39,14.7,4.2,21.53
1145956,-0.016592,-0.404552,1.108736,-1.26,17.85,8.33,21.46
1145968,-0.032696,-0.32696,1.221952,-10.29,17.290001,9.24,21.46
1145980,-0.060024,-0.384056,1.253672,-33.669998,18.34,8.54,21.5
1145991,-0.129808,-0.646112,1.313696,-33.880001,13.79,3.78,21.5
1146002,-0.152256,-0.877912,1.278072,-10.5,8.05,-7.91,21.49
1146013,-0.182024,-0.791048,1.321016,15.47,-0.91,-11.97,21.41
1146025,-0.134688,-0.745176,1.405928,32.759998,-10.5,-17.639999,21.41
1146036,-0.147864,-0.590968,1.500112,21.35,-17.43,-21.700001,21.45
1146048,-0.130784,-0.492392,1.52256,-4.34,-25.129999,-23.1,21.45
1146060,-0.14884,-0.570472,1.470344,-24.01,-31.290001,-27.58,21.49
1146072,-0.167872,-0.657824,1.464976,-31.43,-41.23,-31.290001,21.48
1146084,-0.151768,-0.770552,1.47132,-24.01,-52.150002,-37.73,21.48
1146096,-0.131272,-0.748104,1.501088,-6.51,-62.580002,-43.189999,21.42
1146108,-0.122976,-0.618296,1.506456,-3.29,-72.029999,-45.150002,21.48
1146120,-0.0854,-0.537288,1.480592,-11.9,-79.449997,-45.009998,21.48
1146132,-0.051728,-0.502152,1.453752,-23.309999,-84.489998,-45.779999,21.47
1146144,-0.01464,-0.52948,1.416176,-32.200001,-88.339996,-47.950001,21.48
1146156,-0.015616,-0.561688,1.423008,-31.15,-92.75,-50.889999,21.48
1146168,-0.005856,-0.51972,1.409344,-31.85,-99.260002,-51.450001,21.46
1146179,0.004392,-0.516304,1.409832,-36.259998,-107.239998,-53.759998,21.46
1146191,0.025376,-0.534848,1.375672,-37.240002,-112.839996,-58.099998,21.45
1146202,0.04636,-0.484584,1.331752,-37.73,-118.720001,-60.619999,21.44
1146214,0.071248,-0.469456,1.304912,-41.790001,-123.690002,-63.0,21.44
1146226,0.08296,-0.440176,1.274168,-45.080002,-128.660004,-65.660004,21.46
1146238,0.091256,-0.406504,1.241472,-50.82,-132.300003,-66.989998,21.43
1146249,0.101016,-0.422608,1.13216,-52.709999,-135.380005,-68.879997,21.43
1146261,0.101504,-0.419192,1.045784,-49.490002,-139.020004,-69.720001,21.47
1146273,0.149816,-0.403088,0.95648,-45.849998,-142.169998,-69.790001,21.47
1146284,0.20252,-0.376248,0.88572,-45.080002,-141.330002,-69.089996,21.47
1146296,0.224968,-0.365512,0.856928,-44.240002,-137.339996,-68.529999,21.46
1146308,0.22204,-0.32208,0.796416,-40.740002,-135.169998,-67.690002,21.46
1146320,0.216184,-0.285968,0.709064,-38.150002,-134.330002,-66.919998,21.43
1146331,0.260592,-0.31476,0.596336,-32.48,-131.25,-67.900002,21.45
1146343,0.284992,-0.337208,0.484584,-21.91,-125.93,-69.440002,21.45
1146355,0.290848,-0.257176,0.408456,-9.45,-121.449997,-67.339996,21.47
1146367,0.345992,-0.122,0.371856,-13.3,-113.75,-62.09,21.47
1146378,0.369904,-0.044408,0.313296,-21.139999,-104.510002,-54.32,21.44
1146389,0.36112,-0.057584,0.267424,-26.809999,-94.43,-47.18,21.44
1146401,0.379664,-0.021472,0.203984,-32.759998,-86.870003,-41.23,21.44
1146413,0.330376,-0.058072,0.155672,-30.940001,-78.82,-33.810001,21.52
1146425,0.348432,-0.051728,0.101016,-25.48,-68.529999,-27.16,21.44
1146436,0.365512,-0.082472,0.08296,-19.459999,-58.169998,-21.77,21.44
1146448,0.498248,-0.096136,0.045384,-12.18,-49.630001,-14.07,21.48
1146460,0.387472,-0.081496,0.0122,-8.19,-43.68,-6.3,21.48
1146471,0.429928,-0.059536,0.040504,-16.52,-37.240002,2.66,21.5
1146483,0.454816,-0.104432,0.066856,-23.799999,-30.379999,7.28,21.51
1146494,0.481656,-0.169824,0.118584,-26.950001,-25.48,11.2,21.51
1146505,0.492392,-0.237168,0.1342,-24.639999,-19.74,12.95,21.46
1146517,0.515816,-0.308904,0.122976,-21.07,-15.61,14.7,21.46
1146528,0.484584,-0.402112,0.172752,-11.69,-14.63,18.27,21.46
1146540,0.543144,-0.344528,0.235704,-7.84,-10.85,18.059999,21.48
1146552,0.535336,-0.298656,0.293288,-10.01,-8.33,19.809999,21.48
1146563,0.555344,-0.308416,0.311832,-14.42,-5.81,19.950001,21.49
1146575,0.562176,-0.351848,0.292312,-18.620001,-4.34,21.07,21.44
1146587,0.590968,-0.484584,0.294752,-15.82,-2.52,20.16,21.44
1146598,0.5856,-0.50264,0.310856,-10.43,-3.22,20.02,21.48
1146610,0.610976,-0.548512,0.330376,-2.73,-3.15,17.08,21.5
1146622,0.642208,-0.566568,0.39284,3.71,-2.94,15.54,21.5
1146633,0.665632,-0.53924,0.4148,6.37,-1.47,13.72,21.49
1146645,0.674416,-0.55876,0.410408,5.6,1.33,10.99,21.49
1146656,0.660752,-0.530456,0.407968,2.8,4.62,9.31,21.5
1146668,0.662704,-0.541192,0.4026,1.19,7.21,7.84,21.46
1146679,0.662704,-0.564616,0.434808,2.45,9.24,6.23,21.46
1146690,0.662216,-0.554856,0.482632,3.71,10.08,5.04,21.47
1146702,0.665632,-0.562664,0.525088,3.92,11.34,3.92,21.47
1146713,0.65636,-0.541192,0.56608,3.43,12.25,3.22,21.48
1146724,0.635376,-0.537776,0.5734,2.73,11.76,3.85,21.48
1146735,0.649528,-0.540704,0.571448,2.59,10.99,4.62,21.48
1146747,0.650504,-0.510936,0.572912,0.91,10.92,5.39,21.45
1146758,0.6466,-0.519232,0.57828,-0.21,11.13,5.32,21.45
1146769,0.643184,-0.506056,0.597312,-0.49,11.13,6.23,21.45
1146781,0.64416,-0.524112,0.613904,-1.68,10.5,6.23,21.48
1146792,0.634888,-0.527528,0.620248,-3.22,10.01,6.44,21.48
1146804,0.630008,-0.530944,0.630008,-5.11,9.03,7.0,21.5
1146815,0.627568,-0.52216,0.640256,-8.33,7.63,8.33,21.43
1146827,0.621712,-0.537776,0.641232,-9.66,6.65,9.17,21.43
1146838,0.620248,-0.531432,0.625616,-9.52,5.39,9.8,21.48
1146849,0.620248,-0.569008,0.61244,-6.51,4.69,9.17,21.48
1146861,0.62708,-0.528992,0.615368,-4.2,4.06,9.52,21.44
1146872,0.635376,-0.51728,0.62952,-5.39,3.78,10.22,21.49
1146883,0.638792,-0.523136,0.624152,-6.72,4.2,10.64,21.49
1146895,0.624152,-0.51972,0.630496,-7.35,4.06,11.27,21.46
1146906,0.619272,-0.571936,0.61976,-3.99,3.15,10.85,21.46
1146917,0.618784,-0.57584,0.618296,-0.7,1.61,10.36,21.46
1146928,0.616344,-0.600728,0.593896,3.85,1.26,8.75,21.5
1146939,0.617808,-0.593408,0.58316,7.0,1.26,7.91,21.5
1146951,0.623176,-0.574864,0.599752,8.12,1.33,7.42,21.45
1146963,0.624152,-0.547536,0.5978,5.39,1.4,7.35,21.45
1146974,0.615368,-0.565104,0.584136,3.99,2.31,6.58,21.45
1146985,0.608536,-0.589016,0.589504,4.83,2.17,5.53,21.43
1146997,0.599264,-0.578768,0.598288,4.9,1.54,4.97,21.43
1147009,0.60512,-0.585112,0.594384,4.69,1.33,4.34,21.46
1147020,0.599752,-0.588528,0.596824,5.53,1.4,3.08,21.46
1147031,0.596824,-0.589016,0.594384,7.28,1.96,2.17,21.43
1147042,0.596336,-0.554368,0.599264,9.17,2.17,1.61,21.42
1147053,0.578768,-0.50996,0.605608,7.14,1.61,2.8,21.42
1147065,0.582184,-0.519232,0.603656,4.34,1.54,3.36,21.47
1147076,0.584624,-0.539728,0.604144,4.13,1.4,3.5,21.47
1147087,0.589016,-0.541192,0.609512,3.36,0.7,3.92,21.43
1147098,0.587064,-0.545096,0.62464,2.73,0.56,3.99,21.46
1147110,0.59292,-0.548024,0.62708,2.52,0.63,3.22,21.46
1147121,0.579256,-0.53192,0.603656,1.75,0.84,3.57,21.45
1147132,0.577304,-0.551928,0.58804,3.01,1.19,3.57,21.4
1147144,0.573888,-0.51972,0.579744,4.97,0.77,4.76,21.4
1147155,0.578768,-0.518256,0.564616,5.11,1.33,5.25,21.43
1147166,0.57828,-0.520696,0.5368,6.3,2.45,5.46,21.43
1147177,0.57828,-0.5246,0.531432,7.42,3.99,5.74,21.47
1147188,0.566568,-0.479704,0.541192,4.2,5.39,6.93,21.42
1147200,0.55876,-0.479704,0.55388,0.63,6.51,8.12,21.42
1147211,0.559736,-0.491904,0.541192,0.21,7.7,8.75,21.45
1147223,0.555344,-0.508008,0.508984,3.08,9.45,9.38,21.45
1147234,0.556808,-0.516792,0.50264,6.86,11.62,10.5,21.47
1147245,0.555344,-0.469944,0.5124,9.8,13.16,11.97,21.45
1147257,0.549,-0.484096,0.5002,9.31,15.47,12.95,21.45
1147269,0.523136,-0.47336,0.50264,10.64,16.450001,13.79,21.47
1147280,0.512888,-0.43676,0.503128,8.33,16.799999,15.4,21.47
1147291,0.50264,-0.455792,0.504104,6.09,17.57,16.379999,21.5
1147303,0.499224,-0.464576,0.520208,5.88,18.41,16.940001,21.46
1147314,0.491904,-0.464088,0.523136,5.81,19.25,17.85,21.46
1147326,0.477264,-0.495808,0.514352,8.19,20.370001,17.5,21.43
1147337,0.460184,-0.512888,0.50508,14.84,20.93,17.5,21.43
1147348,0.447984,-0.494832,0.50508,20.93,20.440001,17.360001,21.43
1147359,0.452864,-0.474824,0.519232,25.129999,19.809999,18.969999,21.4
1147371,0.47336,-0.447008,0.525088,22.540001,20.370001,21.280001,21.4
1147382,0.486048,-0.42456,0.533384,18.41,23.52,22.75,21.43
1147393,0.479216,-0.434808,0.529968,14.91,26.950001,23.73,21.43
1147404,0.455792,-0.469456,0.513864,15.82,29.75,24.219999,21.42
1147415,0.435784,-0.491416,0.501664,20.02,30.450001,24.360001,21.46
1147427,0.425048,-0.527528,0.511912,26.950001,30.870001,23.940001,21.46
1147438,0.428952,-0.521184,0.548024,31.5,30.52,25.129999,21.5
1147449,0.460672,-0.463112,0.593408,28.98,32.41,27.02,21.44
1147461,0.462624,-0.4514,0.597312,27.16,36.470001,27.299999,21.44
1147473,0.44652,-0.48068,0.567056,27.370001,40.599998,26.950001,21.48
1147484,0.413824,-0.500688,0.567056,28.84,43.119999,26.67,21.48
1147496,0.381128,-0.479216,0.576816,28.49,44.169998,26.389999,21.49
1147508,0.34892,-0.481656,0.619272,28.629999,42.560001,26.6,21.43
1147519,0.360144,-0.458232,0.653432,28.629999,42.209999,27.58,21.43
1147531,0.375272,-0.45384,0.659776,28.49,43.049999,27.719999,21.44
1147541,0.378688,-0.500688,0.652944,28.77,45.919998,26.25,21.44
1147553,0.354288,-0.515328,0.650504,31.08,47.18,24.57,21.46
1147564,0.328912,-0.549976,0.650992,36.049999,46.900002,21.629999,21.49
1147575,0.305976,-0.50264,0.656848,38.360001,47.529999,21.209999,21.49
1147586,0.308416,-0.438712,0.718336,34.509998,49.279999,22.4,21.46
1147597,0.323056,-0.432856,0.73688,28.559999,51.380001,23.379999,21.46
1147608,0.318176,-0.479704,0.732488,25.48,54.529999,22.75,21.44
1147619,0.292312,-0.51484,0.730048,28.0,55.860001,22.4,21.46
1147631,0.267912,-0.542656,0.72712,33.740002,55.93,20.51,21.46
1147642,0.244,-0.452376,0.770552,36.75,54.810001,20.51,21.42
1147653,0.232288,-0.399672,0.823744,32.48,55.16,22.540001,21.42
1147665,0.26108,-0.421144,0.846192,27.790001,57.470001,23.450001,21.45
1147676,0.257176,-0.487024,0.826184,29.889999,59.360001,23.52,21.48
1147687,0.252296,-0.529968,0.816912,37.310001,60.830002,22.4,21.48
1147699,0.2318,-0.530456,0.854488,41.860001,60.830002,20.790001,21.46
1147710,0.203984,-0.46848,0.894504,41.720001,60.130001,20.370001,21.46
1147722,0.205936,-0.442616,0.918904,34.790001,60.900002,20.23,21.51
1147733,0.20252,-0.468968,0.94428,30.940001,62.790001,20.93,21.46
1147745,0.195688,-0.446032,0.966728,25.83,64.050003,21.49,21.46
1147757,0.180072,-0.459208,0.991128,21.559999,64.190002,21.91,21.45
1147768,0.16836,-0.502152,1.050664,19.6,61.950001,20.93,21.43
1147780,0.142496,-0.542168,1.08092,19.530001,60.41,18.129999,21.43
1147792,0.120536,-0.559248,1.109224,22.540001,58.310001,15.4,21.48
1147803,0.130296,-0.508008,1.116056,23.66,57.330002,13.37,21.48
1147815,0.081008,-0.515816,1.11508,11.9,46.200001,14.7,21.44
1147827,0.142496,-0.472872,1.160952,16.379999,39.759998,15.05,21.43
1147838,0.149816,-0.487024,1.199992,6.72,46.41,13.86,21.43
1147850,0.020008,-0.54168,1.204384,5.25,39.34,13.16,21.49
1147861,0.05856,-0.546072,1.181448,5.18,37.029999,12.67,21.43
1147873,0.035624,-0.536312,1.174128,5.81,31.85,12.18,21.43
1147885,0.040992,-0.526552,1.175104,6.23,28.700001,11.13,21.46
1147896,0.059048,-0.545096,1.175104,5.88,27.370001,10.36,21.46
1147908,0.047824,-0.546072,1.157048,7.63,24.219999,9.38,21.39
1147919,0.054168,-0.54656,1.106784,10.57,21.98,8.05,21.44
1147931,0.038064,-0.5124,1.073112,14.7,20.370001,8.47,21.44
1147942,0.019032,-0.449448,1.065304,15.05,18.83,10.01,21.46
1147953,0.037088,-0.443592,1.057008,10.64,20.719999,9.8,21.46
1147965,0.038552,-0.486048,1.06384,7.7,20.790001,10.22,21.48
1147976,0.027328,-0.511424,1.086776,9.73,18.690001,10.22,21.45
1147988,0.032696,-0.503128,1.0614,10.64,17.290001,8.68,21.45
1147999,0.027328,-0.525088,1.010648,15.4,17.57,6.16,21.46
1148010,0.009272,-0.449936,0.984296,19.67,17.5,6.3,21.45
1148022,0.011712,-0.411872,1.035536,14.63,17.08,9.45,21.45
1148033,0.018056,-0.428952,1.059936,7.98,17.219999,10.15,21.48
1148045,0.00732,-0.475312,1.046272,3.71,16.030001,10.29,21.48
1148056,0.000488,-0.52948,1.024312,4.76,14.28,8.75,21.46
1148067,-0.00732,-0.518744,1.018944,7.56,12.11,7.63,21.46
1148079,-0.007808,-0.497272,1.012112,9.03,10.71,5.81,21.46
1148090,-0.010248,-0.452376,1.031632,7.7,9.38,5.53,21.44
1148102,-0.0122,-0.450912,1.055544,3.36,7.84,4.97,21.44
1148113,-0.016104,-0.445544,1.060912,-0.35,5.25,4.27,21.44
1148125,-0.013664,-0.472872,1.018944,-3.71,4.41,3.01,21.39
1148137,-0.01708,-0.479704,0.970632,1.54,3.64,0.77,21.39
1148148,-0.011224,-0.426512,0.9516,3.15,3.08,1.05,21.44
1148160,0.005368,-0.45628,0.968192,2.38,4.62,0.98,21.41
1148172,-0.01952,-0.472872,1.006744,4.48,3.29,0.63,21.41
1148183,-0.019032,-0.440176,1.020408,6.23,2.66,1.4,21.45
1148195,-0.011712,-0.454816,0.974536,9.38,3.22,0.42,21.45
1148207,-0.027816,-0.421632,0.937448,10.5,2.59,0.77,21.4
1148218,-0.071736,-0.511912,1.035048,10.92,2.66,-3.01,21.39
1148231,-0.0244,-0.284992,0.928664,9.8,2.24,-0.14,21.39
1148242,-0.016104,-0.406992,0.928176,4.76,3.36,2.52,21.41
1148254,-0.02684,-0.365024,0.937448,2.17,4.69,3.64,21.41
1148265,-0.044896,-0.442616,0.97356,4.2,4.34,3.36,21.41
1148277,-0.015128,-0.39528,0.93452,5.53,4.27,3.01,21.43
1148289,-0.03904,-0.481168,0.937448,10.57,4.97,0.07,21.43
1148301,-0.049776,-0.421632,0.940376,12.88,4.48,-0.28,21.43
1148313,-0.067344,-0.24156,0.993568,0.77,1.47,5.6,21.43
1148324,-0.032696,-0.532408,1.090192,5.18,2.59,1.12,21.43
1148336,-0.083936,-0.571448,1.204872,12.25,-3.5,-4.2,21.43
1148348,-0.016592,-0.31476,1.12728,1.54,-9.87,3.15,21.39
1148360,0.035136,-0.383568,0.976488,-4.69,-4.9,-17.57,21.39
1148372,-0.001464,-0.447984,0.890112,-1.68,-0.35,-1.05,21.45
1148383,-0.036112,-0.416264,0.928176,2.17,-0.42,1.75,21.43
1148395,-0.033184,-0.386984,0.979904,1.68,-1.05,4.41,21.43
1148406,-0.037088,-0.35868,1.019432,-2.94,-0.28,5.11,21.45
1148418,-0.047824,-0.411872,1.008696,-1.19,1.12,2.59,21.45
1148429,-0.062952,-0.364536,0.99796,-7.98,-1.26,4.06,21.45
1148441,-0.042456,-0.423096,0.97844,-12.39,-3.78,5.53,21.41
1148453,-0.013664,-0.521672,0.915,-11.2,-3.99,0.63,21.41
1148465,0.001952,-0.501176,0.889624,-2.38,-1.82,-0.56,21.43
1148477,-0.00732,-0.481656,0.863272,11.13,-2.24,-0.49,21.46
1148489,-0.00976,-0.376736,0.91012,23.24,-2.73,-2.73,21.46
1148502,-0.028792,-0.34892,0.9638,20.09,-2.94,-0.91,21.44
1148513,-0.028792,-0.33428,0.928664,15.54,-1.33,-0.49,21.37
1148526,-0.042456,-0.335744,0.94916,8.61,-2.8,0.49,21.37
1148537,-0.0244,-0.404064,0.978928,7.21,-3.99,-17.780001,21.44
1148549,-0.030744,-0.42944,1.013088,11.76,-5.67,-0.98,21.44
1148560,-0.017568,-0.406992,1.026264,14.98,-8.75,-0.98,21.4
1148572,0.007808,-0.401624,0.998448,13.3,-8.68,-1.68,21.42
1148583,0.011224,-0.42212,0.95404,14.98,-7.49,-3.01,21.42
1148595,0.00732,-0.424072,0.901336,17.639999,-6.3,-2.87,21.46
1148607,0.003416,-0.411872,0.884256,18.620001,-4.48,-2.17,21.4
1148618,-0.020984,-0.352336,0.896944,18.059999,-4.48,-0.56,21.4
1148630,-0.023424,-0.338672,0.918416,16.309999,-3.5,-0.21,21.43
1148642,-0.011712,-0.36112,0.954528,17.57,-2.03,-0.21,21.43
1148653,-0.03172,-0.333792,0.992592,15.54,-2.38,0.49,21.41
1148666,-0.025376,-0.369904,1.016016,9.45,-1.89,1.89,21.43
1148677,-0.040504,-0.338184,1.038464,5.74,-2.73,2.52,21.43
1148689,-0.045384,-0.324032,1.045296,-2.03,-5.74,4.34,21.45
1148701,-0.037576,-0.32696,1.060424,-12.95,-8.75,4.48,21.43
1148713,-0.027328,-0.457744,1.018944,-15.75,-9.45,3.01,21.43
1148724,-0.015128,-0.569008,0.92232,-0.21,-7.77,-1.26,21.44
1148736,-0.038064,-0.44408,0.901336,14.35,-7.98,-2.31,21.44
1148748,-0.033672,-0.345504,0.901824,17.5,-7.63,-2.31,21.42
1148760,-0.020496,-0.315248,0.93208,4.34,-6.58,-0.28,21.42
1148773,-0.036112,-0.388448,0.96868,-1.61,-5.6,-0.91,21.42
1148785,-0.039528,-0.379176,0.986736,-2.17,-6.51,-0.49,21.45
1148797,-0.01952,-0.372832,0.977952,-0.21,-6.65,-0.63,21.43
1148809,-0.025376,-0.373808,0.974048,0.49,-6.51,0.07,21.43
1148820,-0.028304,-0.387472,0.97356,3.85,-6.65,0.28,21.43
1148832,-0.04148,-0.321104,0.967704,6.93,-7.7,1.33,21.42
1148843,-0.027328,-0.310856,0.965752,2.17,-7.98,2.31,21.42
1148855,-0.020984,-0.337208,0.970632,-4.2,-7.42,1.61,21.45
1148866,-0.020008,-0.397232,0.970632,-4.76,-7.49,0.98,21.45
1148878,-0.021472,-0.37332,0.960384,-1.33,-8.19,1.61,21.46
1148890,-0.01708,-0.34404,0.957944,1.54,-8.26,2.31,21.42
1148901,-0.003904,-0.332816,0.931592,1.47,-7.21,2.73,21.42
1148913,-0.001464,-0.355752,0.905728,-0.98,-5.18,2.8,21.42
1148924,-0.00244,-0.366488,0.874008,-2.8,-3.36,3.08,21.41
1148936,-0.017568,-0.3782,0.86864,-5.32,-2.52,3.92,21.41
1148948,-0.015616,-0.427,0.901336,-2.66,-2.73,3.71,21.41
1148960,-0.010736,-0.362096,0.947696,0.63,-2.52,3.08,21.41
1148972,-0.006344,-0.360144,0.970144,-0.56,-1.61,1.96,21.43
1148983,-0.009272,-0.383568,0.959408,-2.31,-0.84,1.05,21.41
1148995,-0.015616,-0.418216,0.94672,-3.15,-1.05,0.49,21.41
1149007,-0.013664,-0.42212,0.9394,-1.33,-1.33,-0.07,21.43
1149018,-0.018544,-0.368928,0.929152,0.84,-1.54,0.14,21.43
1149030,-0.0122,-0.372344,0.909632,0.0,-0.84,-0.63,21.43
1149042,-0.016592,-0.374784,0.933544,-1.26,-0.77,-0.35,21.45
1149053,-0.020496,-0.381128,0.963312,-1.89,-0.77,-0.35,21.45
1149065,-0.023912,-0.383568,0.991616,-1.75,-0.98,-0.7,21.41
1149077,-0.026352,-0.392352,0.996496,-1.12,-1.68,-0.98,21.42
1149089,-0.025376,-0.382592,0.972096,-0.91,-2.03,-0.98,21.42
1149101,-0.022448,-0.389424,0.954528,1.54,-2.52,-1.12,21.44
1149113,-0.021472,-0.359656,0.948672,1.54,-3.01,-1.26,21.4
1149125,-0.00732,-0.376248,0.937936,0.56,-2.38,-0.91,21.4
1149136,-0.014152,-0.378688,0.9394,1.54,-1.4,-1.54,21.41
1149148,-0.0244,-0.365512,0.96136,1.19,-1.75,-0.84,21.45
1149160,-0.02196,-0.368928,0.982344,-1.19,-2.17,-0.56,21.45
1149172,-0.02196,-0.3782,0.970632,-2.24,-2.1,-0.91,21.44
1149184,-0.02196,-0.386984,0.957944,-1.33,-2.73,-0.56,21.44
1149196,-0.01464,-0.381128,0.941352,0.0,-2.52,-0.42,21.4
1149207,-0.011224,-0.394304,0.918904,0.14,-1.47,-0.28,21.4
1149219,-0.0244,-0.385032,0.931592,3.15,-1.54,-0.56,21.4
1149231,-0.02196,-0.347944,0.956968,2.66,-2.03,0.28,21.45
1149243,-0.011712,-0.34648,0.965264,0.63,-1.82,-0.21,21.41
1149255,-0.012688,-0.375272,0.967216,-1.33,-1.4,-0.63,21.41
1149267,-0.016104,-0.390888,0.967704,-1.61,-1.54,-0.21,21.43
1149279,-0.018056,-0.38552,0.955504,0.07,-2.03,17.85,21.39
1149291,-0.016592,-0.367464,0.94672,-0.35,-2.38,0.56,21.39
1149303,-0.00488,-0.40016,0.935984,-0.98,-1.68,0.14,21.39
1149314,-0.010736,-0.40504,0.942328,0.98,-1.12,-0.42,21.39
1149326,-0.021472,-0.372344,0.95648,2.03,-1.33,0.21,21.45
1149337,-0.01708,-0.359656,0.964288,0.42,-1.19,0.28,21.41
1149349,-0.023912,-0.364536,0.969168,-1.47,-1.47,0.35,21.41
1149361,-0.01952,-0.377712,0.953552,-2.31,-1.61,0.42,21.43
1149373,-0.018056,-0.393816,0.94428,-1.33,-1.96,0.14,21.43
1149385,-0.015128,-0.381128,0.953064,0.84,-2.52,-0.28,21.43
1149397,-0.014152,-0.38064,0.973072,0.84,-2.66,-0.56,21.43
1149409,-0.01464,-0.376736,0.976,0.0,-2.66,-0.63,21.38
1149421,-0.019032,-0.387472,0.963312,-1.47,-2.94,-0.28,21.38
1149434,-0.022936,-0.375272,0.94672,-2.73,-3.22,0.28,21.4
1149445,-0.016104,-0.406992,0.918904,-0.42,-2.73,0.0,21.4
1149457,-0.022936,-0.378688,0.936472,3.43,-2.59,-0.49,21.41
1149469,-0.01708,-0.36112,0.954528,4.13,-2.52,-0.14,21.43
1149481,-0.016104,-0.350872,0.965752,0.42,-2.17,0.42,21.43
1149493,-0.019032,-0.389912,0.963312,-0.84,-1.54,0.14,21.37
1149505,-0.025376,-0.389424,0.959896,-0.98,-1.96,0.98,21.36
1149516,-0.01952,-0.408944,0.94916,1.47,-2.17,0.14,21.36
1149528,-0.018544,-0.385032,0.951112,1.75,-2.52,17.85,21.43
1149540,-0.013176,-0.381616,0.944768,-0.07,-2.03,0.07,21.41
1149552,-0.020008,-0.382592,0.9516,-1.89,-1.68,0.21,21.41
1149563,-0.031232,-0.39772,0.959408,-0.56,-2.17,-0.21,21.45
1149576,-0.029768,-0.393328,0.959896,2.31,-2.73,-0.84,21.45
1149587,-0.025376,-0.377712,0.957944,3.29,-3.08,-1.54,21.39
1149599,-0.016592,-0.38308,0.957944,1.96,-3.36,-1.68,21.39
1149611,-0.014152,-0.381616,0.953064,0.56,-3.22,-1.82,21.39
1149623,-0.016592,-0.393816,0.951112,-0.07,-3.22,-1.89,21.44
1149635,-0.01708,-0.396744,0.942816,0.84,-3.08,-1.96,21.39
1149647,-0.023912,-0.37576,0.938424,2.24,-3.08,-1.82,21.39
1149659,-0.016104,-0.363072,0.939888,1.82,-2.66,-1.47,21.43
1149671,-0.018544,-0.3782,0.933544,2.52,-2.17,-1.82,21.43
1149683,-0.021472,-0.364536,0.960872,2.87,-2.24,-0.98,21.43
1149695,-0.017568,-0.36112,0.970632,1.47,-2.03,-0.49,21.37
1149707,-0.017568,-0.372344,0.952576,0.7,-1.82,-0.42,21.37
1149719,-0.019032,-0.378688,0.944768,0.7,-1.68,0.35,21.41
1149731,-0.021472,-0.370392,0.94428,1.82,-2.1,0.35,21.39
1149743,-0.019032,-0.368928,0.958432,0.7,-2.31,0.07,21.39
1149754,-0.018544,-0.38064,0.97112,-0.7,-1.96,-0.07,21.39
1149767,-0.018056,-0.393816,0.970144,-0.56,-2.1,-0.21,21.41
1149779,-0.025376,-0.389912,0.955992,0.84,-2.8,-0.42,21.41
1149791,-0.018056,-0.39284,0.94916,2.24,-2.94,-0.56,21.4
1149802,-0.012688,-0.377224,0.954528,2.24,-3.15,-0.63,21.39
1149815,-0.01464,-0.367952,0.955016,0.07,-2.87,-0.42,21.39
1149826,-0.011712,-0.381616,0.9516,-0.63,-2.38,-0.35,21.41
1149838,-0.01708,-0.38796,0.943792,0.42,-2.45,-0.07,21.43
1149850,-0.016104,-0.386984,0.944768,1.54,-2.31,-0.14,21.43
1149861,-0.011712,-0.376248,0.957456,0.56,-2.17,0.07,21.39
1149873,-0.0122,-0.379176,0.953552,-0.42,-1.89,0.0,21.39
1149884,-0.011224,-0.394792,0.950624,-2.1,-1.47,0.21,21.39
1149896,-0.020496,-0.399672,0.945744,0.49,-1.05,-0.21,21.43
1149908,-0.021472,-0.378688,0.949648,1.75,-1.82,0.35,21.43
1149919,-0.02196,-0.372344,0.950136,1.05,-1.82,0.28,21.44
1149931,-0.020008,-0.365024,0.951112,-0.49,-1.61,0.42,21.44
1149943,-0.023912,-0.371368,0.961848,-0.49,-1.82,0.0,21.39
1149955,-0.020008,-0.381616,0.951112,0.14,-2.1,0.0,21.4
1149966,-0.016104,-0.39528,0.953064,1.19,-2.17,-0.21,21.4
1149978,-0.013664,-0.390888,0.952576,1.47,-2.1,0.07,21.42
1149990,-0.019032,-0.386984,0.947208,2.03,-2.38,0.28,21.43
1150002,-0.011224,-0.37576,0.942328,1.47,-2.03,0.0,21.43
1150014,-0.020496,-0.376736,0.935496,1.33,-1.54,-0.07,21.43
1150026,-0.020496,-0.36356,0.961848,-0.7,-1.82,0.7,21.38
1150037,-0.015128,-0.394792,0.97112,-1.47,-1.61,0.28,21.38
1150049,-0.02196,-0.397232,0.963312,0.14,-2.1,0.56,21.39
1150061,-0.0244,-0.379664,0.948672,1.12,-2.66,0.63,21.39
1150073,-0.015128,-0.38796,0.9394,0.35,-2.52,0.63,21.41
1150085,-0.013664,-0.397232,0.94672,1.26,-2.45,0.49,21.4
1150097,-0.016592,-0.374784,0.957944,0.77,-2.45,0.77,21.4
1150109,-0.016104,-0.359656,0.956968,-2.52,-2.38,0.84,21.41
1150121,-0.019032,-0.390888,0.950624,-4.2,-1.61,0.98,21.41
1150133,-0.020496,-0.369904,0.945744,-4.41,-1.47,1.75,21.41
1150145,-0.01952,-0.36356,0.9516,-4.76,-1.12,1.68,21.41
1150156,-0.019032,-0.396744,0.9638,-2.73,-0.35,0.35,21.43
1150168,-0.018056,-0.422608,0.957456,0.35,0.21,-0.84,21.43
1150180,-0.030744,-0.4026,0.958432,2.59,-1.05,-0.63,21.36
1150191,-0.023424,-0.423096,0.959408,2.52,-1.96,-0.56,21.36
1150203,-0.027328,-0.379664,0.926712,3.64,-1.68,-0.56,21.45
1150215,-0.026352,-0.353312,0.916464,0.63,-0.91,0.0,21.44
1150227,-0.024888,-0.406016,0.931592,-2.31,-0.49,0.35,21.44
1150238,-0.03172,-0.435784,0.941352,1.89,-1.26,0.14,21.39
1150250,-0.0244,-0.404552,0.94916,6.23,-1.96,0.0,21.4
1150262,-0.023424,-0.367464,0.9638,6.09,-1.61,-0.35,21.4
1150273,-0.0244,-0.376248,0.994056,4.76,-2.38,-0.14,21.43
1150285,-0.020496,-0.352824,1.000888,0.35,-2.87,0.35,21.43
1150297,-0.017568,-0.405528,0.953064,-1.33,-2.52,0.0,21.34
1150309,-0.025376,-0.39528,0.94916,0.14,-2.52,-0.91,21.41
1150321,-0.020984,-0.392352,0.952088,1.75,-3.22,-0.49,21.41
1150333,-0.019032,-0.371368,0.945256,2.66,-2.73,-0.98,21.44
1150345,-0.015128,-0.367464,0.933544,0.7,-2.1,-0.7,21.43
1150356,-0.025376,-0.404552,0.925248,0.91,-1.54,-0.98,21.43
1150368,-0.025376,-0.395768,0.927688,2.8,-2.1,0.63,21.41
1150380,-0.020984,-0.352336,0.944768,2.73,-1.54,0.7,21.45
1150391,-0.020984,-0.33428,0.962336,-1.05,-1.12,1.47,21.45
1150403,-0.018544,-0.366,0.95648,-4.76,-0.35,2.03,21.42
1150415,-0.027328,-0.366,0.947208,-6.58,-0.84,2.45,21.42
1150427,-0.027816,-0.38796,0.935008,-7.91,-1.19,2.31,21.41
1150439,-0.02684,-0.403576,0.889624,-7.28,-1.19,2.24,21.38
1150451,-0.033672,-0.445056,0.846192,-5.67,-0.77,1.89,21.38
1150463,-0.042944,-0.377224,0.868152,-9.31,-2.45,4.83,21.39
1150475,-0.02928,-0.348432,0.884256,-20.440001,-3.08,7.42,21.42
1150486,-0.013664,-0.404552,0.924272,-34.23,-3.08,9.94,21.42
1150498,0.002928,-0.485072,0.887184,-39.27,-1.19,11.97,21.41
1150510,-0.01464,-0.450912,0.864736,-34.580002,-2.17,14.63,21.41
1150521,-0.032696,-0.411384,0.855464,-12.39,1.89,11.41,21.4
1150533,-0.05612,-0.218624,0.794952,11.41,5.25,10.5,21.39
1150545,-0.137128,0.09516,0.833016,-27.719999,10.08,5.46,21.39
1150556,0.092232,-0.53924,0.862296,-50.540001,14.28,10.92,21.42
1150567,0.000488,-0.599752,0.84912,-48.720001,23.24,-1.4,21.4
1150579,-0.023912,-0.391864,0.92476,-41.509998,22.4,3.92,21.4
1150591,-0.035624,-1.39324,1.1102,90.650002,35.419998,-20.58,21.41
1150603,-0.243024,-0.801296,1.306376,141.820007,7.35,-28.35,21.41
1150614,-0.05368,0.260104,1.336144,87.360001,-9.31,10.01,21.38
1150626,0.106384,-0.355264,1.131184,43.330002,10.64,-6.65,21.4
1150638,-0.016592,-0.220576,1.225856,19.32,9.73,-3.71,21.4
1150650,0.077592,-0.403088,1.2322,3.29,13.93,0.21,21.44
1150661,0.108824,-0.591456,1.115568,5.88,14.84,-2.24,21.38
1150673,0.140056,-0.698816,1.016504,6.3,18.549999,0.98,21.38
1150684,-0.00488,-0.251808,1.247816,-28.280001,21.35,19.25,21.43
1150696,0.062952,-0.565104,0.9638,-46.900002,26.809999,19.25,21.43
1150708,-0.011224,-0.669536,0.994056,-54.18,42.98,15.4,21.4
1150720,-0.13176,-0.20252,1.333704,-80.360001,37.450001,24.639999,21.43
1150731,-0.203008,-0.810568,1.382992,-54.950001,44.310001,11.06,21.43
1150743,-0.238632,-1.257088,1.360056,-9.52,40.810001,-8.68,21.41
1150755,-0.289872,-1.072624,1.522072,20.23,22.889999,-19.389999,21.39
1150766,-0.356728,-0.806176,1.774856,20.719999,1.33,-24.15,21.39
1150778,-0.421144,-0.630008,1.975912,6.16,-14.35,-30.59,21.4
1150789,-0.40504,-0.688568,1.99348,-14.91,-32.619999,-38.990002,21.4
1150801,-0.369904,-0.957456,1.906128,-21.91,-47.810001,-52.150002,21.41
1150813,-0.377224,-1.012112,1.84708,-8.61,-67.620003,-59.290001,21.45
1150825,-0.386008,-0.896456,1.836832,6.86,-87.709999,-64.610001,21.45
1150837,-0.39772,-0.647576,1.80072,11.76,-105.839996,-68.25,21.45
1150849,-0.332816,-0.577304,1.706048,1.26,-120.260002,-69.300003,21.43
1150861,-0.276208,-0.546072,1.547936,-11.48,-130.199997,-72.169998,21.43
1150873,-0.216672,-0.574376,1.512312,-21.98,-137.339996,-76.230003,21.41
1150885,-0.197152,-0.57828,1.579168,-24.99,-146.369995,-82.459999,21.41
1150897,-0.205936,-0.494344,1.567456,-27.02,-157.990005,-87.5,21.41
1150909,-0.160552,-0.459696,1.465952,-33.040001,-167.229996,-91.0,21.43
1150920,-0.137128,-0.470432,1.3664,-35.84,-173.039993,-96.18,21.32
1150932,-0.11224,-0.40748,1.253672,-34.16,-179.410004,-98.769997,21.32
1150944,-0.077592,-0.27572,1.15412,-41.16,-185.289993,-97.720001,21.4
1150956,-0.04636,-0.25376,1.009184,-50.610001,-187.110001,-97.440002,21.4
1150968,0.00732,-0.284504,0.911584,-52.5,-186.199997,-99.050003,21.39
1150980,0.022448,-0.210816,0.797392,-51.450001,-184.309998,-98.910004,21.36
1150992,0.037576,-0.184952,0.689056,-47.740002,-179.619995,-97.510002,21.36
1151004,0.08784,-0.147376,0.58316,-40.950001,-174.509995,-92.959999,21.41
1151016,0.11468,-0.128832,0.468968,-32.27,-168.419998,-88.059998,21.39
1151027,0.133224,-0.057584,0.34892,-25.48,-161.070007,-83.230003,21.39
1151040,0.18544,0.018056,0.202032,-26.950001,-154.210007,-74.410004,21.41
1151051,0.177144,0.04636,0.10736,-28.84,-147.0,-67.550003,21.39
1151063,0.211304,0.07808,0.036112,-31.15,-134.539993,-62.16,21.39
1151074,0.240096,0.057096,-0.01464,-32.900002,-121.169998,-55.860001,21.44
1151086,0.28792,-0.02684,-0.02196,-29.75,-109.410004,-48.860001,21.44
1151098,0.355264,-0.033672,-0.06832,-23.1,-97.510002,-40.529999,21.43
1151109,0.376248,-0.000976,-0.086376,-19.74,-86.169998,-31.92,21.36
1151122,0.38308,-0.006832,-0.148352,-13.65,-76.650002,-23.73,21.36
1151134,0.42212,0.013664,-0.113704,-11.69,-65.169998,-17.43,21.38
1151146,0.409432,-0.008784,-0.07808,-19.18,-50.75,-12.11,21.39
1151158,0.428464,-0.154208,-0.046848,-21.07,-48.93,1.54,21.39
1151169,0.501664,-0.176168,-0.04148,-16.66,-43.959999,7.21,21.4
1151181,0.529968,-0.203984,-0.025864,-14.98,-35.91,11.48,21.4
1151192,0.374784,-0.23424,0.028792,-10.36,-29.4,10.57,21.41
1151204,0.533384,-0.244,0.085888,-10.15,-22.75,8.68,21.41
1151216,0.549,-0.271328,0.111752,-7.56,-21.209999,11.55,21.41
1151228,0.586088,-0.259128,0.101504,-9.8,-18.129999,14.63,21.43
1151239,0.59048,-0.331352,0.110288,-12.6,-16.379999,18.34,21.38
1151251,0.603656,-0.365024,0.15372,-10.08,-18.129999,21.77,21.38
1151263,0.629032,-0.388448,0.211792,-8.96,-21.42,24.780001,21.39
1151274,0.684176,-0.495808,0.217648,-3.99,-20.16,21.209999,21.39
1151286,0.731512,-0.508984,0.22204,-0.14,-13.86,14.84,21.4
1151298,0.762744,-0.47824,0.267912,-2.17,-5.67,9.45,21.4
1151310,0.763232,-0.458232,0.3294,-7.63,0.84,5.88,21.4
1151321,0.742736,-0.44164,0.327936,-10.71,4.83,4.97,21.4
1151333,0.706136,-0.502152,0.3172,-8.05,6.44,6.16,21.38
1151345,0.716384,-0.567056,0.32696,1.75,6.72,5.81,21.38
1151356,0.726632,-0.5124,0.389912,5.95,6.23,6.3,21.38
1151367,0.73444,-0.468968,0.431392,5.18,6.44,6.16,21.38
1151379,0.7198,-0.442616,0.44408,-1.19,9.8,6.51,21.41
1151390,0.734928,-0.456768,0.45872,-8.47,12.95,7.7,21.41
1151401,0.728096,-0.487024,0.442616,-7.42,12.46,9.17,21.41
1151414,0.758352,-0.546072,0.435296,-4.69,14.7,5.6,21.41
1151425,0.728096,-0.55388,0.454328,-1.47,15.68,4.2,21.36
1151437,0.709552,-0.567056,0.49044,5.11,13.93,2.59,21.36
1151449,0.724192,-0.439688,0.546072,1.26,12.81,3.71,21.36
1151460,0.730048,-0.428952,0.586576,-6.3,11.48,5.74,21.36
1151472,0.728584,-0.478728,0.580232,-10.36,10.5,8.33,21.4
1151484,0.716384,-0.533872,0.545096,-7.7,8.54,9.1,21.36
1151496,0.696864,-0.541192,0.543632,0.77,6.37,8.96,21.36
1151508,0.705648,-0.501176,0.563152,3.15,4.48,8.82,21.43
1151525,0.712968,-0.462624,0.571936,-0.42,3.36,9.31,21.39
1151536,0.711504,-0.468968,0.578768,-4.69,3.71,9.94,21.39
1151548,0.701256,-0.469944,0.579744,-5.25,3.22,10.64,21.42
1151560,0.704672,-0.5124,0.554856,-2.73,2.52,10.01,21.41
1151572,0.716872,-0.599264,0.54412,3.99,1.47,7.84,21.41
1151583,0.711016,-0.57096,0.543632,12.18,0.07,5.18,21.41
1151594,0.713944,-0.543144,0.540704,12.88,-0.63,5.39,21.41
1151606,0.730536,-0.515328,0.530944,9.52,0.21,6.23,21.41
1151617,0.730536,-0.499224,0.537288,4.55,2.03,6.65,21.41
1151628,0.728096,-0.512888,0.545096,-0.77,2.87,6.93,21.41
1151640,0.711016,-0.506056,0.562664,-3.5,3.36,7.07,21.43
1151652,0.717848,-0.565592,0.572912,-4.97,3.01,5.95,21.37
1151663,0.716384,-0.590968,0.59048,-0.77,3.78,3.5,21.37
1151675,0.691984,-0.536312,0.601216,2.17,1.47,3.78,21.43
1151687,0.681736,-0.50508,0.592432,1.82,0.35,3.71,21.42
1151698,0.66612,-0.462624,0.58316,-0.21,-0.7,4.76,21.42
1151710,0.677344,-0.489952,0.561688,-1.54,-1.61,4.76,21.42
1151721,0.678808,-0.515328,0.546072,-0.21,-1.89,4.48,21.42
1151733,0.672952,-0.514352,0.550952,1.96,-2.38,4.62,21.41
1151746,0.681248,-0.518256,0.562176,1.89,-2.59,4.48,21.38
1151757,0.676368,-0.51728,0.560224,1.54,-2.45,4.48,21.38
1151769,0.677344,-0.511424,0.537776,1.19,-2.45,4.62,21.44
1151781,0.671976,-0.495808,0.515816,1.05,-1.96,5.04,21.37
1151792,0.680272,-0.501664,0.500688,-0.35,-0.91,5.81,21.37
1151804,0.684176,-0.51484,0.50508,-0.35,-0.21,6.16,21.39
1151815,0.679296,-0.528016,0.520208,0.0,0.21,5.95,21.39
1151826,0.676368,-0.552904,0.537776,1.61,0.35,5.04,21.39
1151837,0.669048,-0.558272,0.54168,5.11,0.56,3.15,21.36
1151849,0.659776,-0.525576,0.534848,7.14,-0.35,2.73,21.36
1151860,0.676856,-0.497272,0.531432,5.53,-1.05,3.15,21.37
1151872,0.687592,-0.488488,0.511424,3.71,-0.28,2.73,21.37
1151883,0.68564,-0.48556,0.513376,0.91,0.98,2.8,21.36
1151894,0.686616,-0.510448,0.52704,-2.1,1.61,2.87,21.33
1151906,0.665632,-0.53192,0.55388,-1.12,1.05,2.59,21.33
1151917,0.66368,-0.52704,0.54412,1.75,-0.28,2.73,21.39
1151929,0.667096,-0.534848,0.524112,5.74,-0.35,2.1,21.42
1151940,0.669048,-0.492392,0.5246,5.81,-0.28,2.73,21.42
1151951,0.670024,-0.467992,0.525576,3.08,0.0,3.36,21.39
1151963,0.659776,-0.454816,0.510936,-0.84,0.35,4.41,21.39
1151974,0.650992,-0.467016,0.501176,-2.24,0.7,5.25,21.39
1151986,0.65392,-0.504104,0.494832,-1.96,0.63,5.67,21.4
1151997,0.663192,-0.533384,0.502152,1.68,0.84,5.11,21.4
1152009,0.66124,-0.511912,0.5002,5.04,0.7,5.88,21.39
1152020,0.667584,-0.500688,0.488488,7.14,1.89,5.95,21.39
1152031,0.649528,-0.462136,0.473848,6.09,3.15,7.07,21.36
1152044,0.647088,-0.451888,0.462624,3.15,4.76,8.75,21.4
1152054,0.634888,-0.44164,0.456768,0.63,6.09,9.8,21.4
1152065,0.624152,-0.470432,0.458232,0.98,7.35,10.78,21.42
1152076,0.621712,-0.496296,0.45628,2.17,8.05,11.34,21.42
1152087,0.62464,-0.538264,0.451888,7.7,9.45,10.71,21.36
1152098,0.612928,-0.489952,0.464576,10.64,10.22,10.78,21.39
1152110,0.5978,-0.46848,0.458232,10.15,11.06,11.34,21.39
1152121,0.584136,-0.447008,0.441152,8.47,12.53,12.74,21.4
1152132,0.572912,-0.450424,0.44408,7.63,14.0,14.0,21.4
1152144,0.56364,-0.439688,0.437248,7.14,15.12,15.68,21.39
1152155,0.559736,-0.472384,0.432856,9.52,16.24,16.59,21.37
1152166,0.554368,-0.456768,0.423584,11.2,16.59,17.57,21.37
1152178,0.548024,-0.461648,0.42456,12.32,17.15,18.969999,21.37
1152189,0.543144,-0.422608,0.42944,11.48,17.99,20.51,21.36
1152201,0.544608,-0.418704,0.44164,9.38,20.370001,22.959999,21.36
1152212,0.540216,-0.450912,0.433344,10.57,23.309999,23.1,21.39
1152224,0.51484,-0.4392,0.416264,12.39,25.129999,24.01,21.39
1152236,0.508008,-0.437248,0.411872,15.68,26.040001,24.780001,21.39
1152247,0.503616,-0.426024,0.403088,16.450001,26.879999,26.530001,21.38
1152259,0.5002,-0.405528,0.40504,16.799999,28.280001,28.91,21.38
1152270,0.491416,-0.388936,0.4148,16.52,30.450001,31.08,21.43
1152281,0.49044,-0.388936,0.418216,13.79,33.110001,33.880001,21.43
1152292,0.495808,-0.445056,0.431392,15.89,37.450001,33.740002,21.4
1152304,0.480192,-0.479704,0.437736,21.77,40.389999,33.25,21.39
1152316,0.467992,-0.473848,0.450424,26.389999,40.810001,33.880001,21.39
1152327,0.467992,-0.467504,0.452864,28.35,41.509998,35.490002,21.43
1152339,0.469456,-0.454816,0.46848,29.540001,43.75,35.91,21.38
1152350,0.445056,-0.420168,0.462624,28.139999,47.810001,36.049999,21.38
1152362,0.431392,-0.404552,0.483608,23.73,50.75,37.59,21.38
1152373,0.417728,-0.405528,0.493856,20.65,53.41,39.34,21.38
1152384,0.40504,-0.471896,0.49044,22.469999,55.369999,39.689999,21.39
1152396,0.418216,-0.52704,0.513864,27.16,57.540001,38.709999,21.39
1152407,0.399184,-0.508984,0.56608,29.33,58.73,38.990002,21.39
1152419,0.394792,-0.491416,0.625616,31.219999,62.509998,38.5,21.41
1152430,0.375272,-0.439688,0.635864,29.540001,64.68,39.689999,21.41
1152442,0.320616,-0.4758,0.623176,31.99,63.139999,39.830002,21.4
1152453,0.345504,-0.490928,0.634888,31.709999,65.099998,41.16,21.4
1152465,0.34648,-0.509472,0.647088,33.110001,66.639999,39.970001,21.4
1152476,0.33916,-0.506056,0.678808,29.540001,68.879997,38.5,21.38
1152488,0.32452,-0.53924,0.73688,25.41,70.349998,36.68,21.38
1152500,0.293776,-0.551928,0.752008,25.200001,71.260002,34.720001,21.31
1152511,0.245952,-0.567056,0.774944,29.049999,70.769997,32.130001,21.39
1152523,0.23912,-0.559248,0.807152,31.57,69.300003,30.17,21.39
1152534,0.24888,-0.589504,0.853024,31.5,69.370003,28.42,21.4
1152546,0.239608,-0.568032,0.90036,30.17,69.019997,27.719999,21.4
1152557,0.235216,-0.589016,0.93696,32.34,69.230003,25.34,21.4
1152568,0.218136,-0.584624,0.945744,33.810001,68.879997,22.610001,21.4
1152580,0.182512,-0.55876,0.943792,30.59,67.550003,21.139999,21.4
1152590,0.154208,-0.552904,0.938424,23.870001,65.449997,19.32,21.38
1152602,0.154696,-0.607072,0.987712,18.969999,64.959999,18.620001,21.33
1152613,0.153232,-0.604632,1.048712,18.129999,63.700001,17.290001,21.33
1152625,0.154208,-0.63196,1.073112,20.440001,61.529999,15.26,21.4
1152636,0.1464,-0.617808,1.052616,29.26,59.779999,12.74,21.4
1152648,0.122976,-0.566568,1.036024,34.93,58.099998,11.69,21.41
1152659,0.102968,-0.564128,1.062376,34.580002,56.07,10.43,21.38
1152670,0.06588,-0.44652,1.127768,28.209999,66.360001,0.56,21.38
1152682,-0.013176,-0.499224,1.135088,28.07,39.900002,10.5,21.37
1152693,0.201544,-0.456768,1.132648,15.33,47.950001,7.0,21.37
1152704,0.096624,-0.498248,1.111664,7.84,52.849998,9.73,21.37
1152715,0.070272,-0.567544,1.149728,9.24,49.07,15.61,21.37
1152727,0.081984,-0.552416,1.197552,12.18,48.369999,16.379999,21.37
1152739,0.042944,-0.624152,1.177056,17.08,43.259998,13.02,21.36
1152750,0.030744,-0.637816,1.158024,24.709999,38.43,10.57,21.34
1152761,0.01464,-0.601704,1.142896,22.540001,32.970001,11.76,21.34
1152773,0.044408,-0.559736,1.089216,19.459999,30.73,10.43,21.42
1152785,0.040992,-0.50996,1.062376,16.030001,30.379999,9.24,21.42
1152796,0.027328,-0.462136,1.075064,6.44,30.030001,10.08,21.35
1152807,0.017568,-0.52216,1.120448,-0.14,26.459999,12.18,21.39
1152820,0.033184,-0.571936,1.118984,-0.56,22.959999,10.64,21.39
1152832,0.037088,-0.598288,1.0858,6.23,21.42,8.12,21.36
1152843,0.02928,-0.559248,1.058472,12.18,20.09,6.72,21.36
1152855,0.03172,-0.540216,1.061888,16.17,19.67,6.51,21.36
1152866,0.038552,-0.527528,1.078968,15.96,20.23,6.09,21.38
1152878,0.023912,-0.476776,1.077504,11.48,19.459999,6.65,21.38
1152889,0.003904,-0.501176,1.048712,8.82,17.99,5.81,21.39
1152900,0.0,-0.471896,1.01504,5.46,14.91,6.51,21.38
1152911,0.010736,-0.49288,1.012112,0.56,14.35,8.19,21.38
1152923,0.013664,-0.532408,1.015528,-3.99,15.33,6.02,21.39
1152934,0.004392,-0.586576,1.054568,-0.7,16.1,4.27,21.39
1152946,-0.033672,-0.567056,1.09312,6.23,14.07,3.15,21.34
1152957,-0.036112,-0.550952,1.074576,12.46,11.06,2.31,21.37
1152969,-0.037088,-0.498736,1.026752,16.870001,8.19,1.82,21.37
1152980,-0.027816,-0.438224,0.989664,17.43,6.79,1.54,21.41
1152992,-0.003416,-0.386008,0.953552,12.32,7.28,2.66,21.41
1153004,0.00244,-0.414312,0.929152,7.7,10.22,4.55,21.36
1153016,0.0,-0.419192,0.92964,2.87,11.55,7.0,21.37
1153027,-0.009272,-0.469944,0.94184,0.42,12.95,7.84,21.37
1153039,-0.028304,-0.484096,0.960384,4.76,13.16,6.79,21.39
1153051,-0.050264,-0.474336,0.97844,5.95,12.74,6.51,21.39
1153062,-0.052216,-0.621224,1.007232,15.26,12.74,2.17,21.39
1153073,-0.079544,-0.528992,1.018944,22.959999,7.98,0.0,21.36
1153085,-0.01952,-0.432368,0.987224,18.41,5.74,3.5,21.36
1153097,-0.010736,-0.43188,0.972584,11.41,7.21,1.96,21.39
1153108,-0.020496,-0.3904,0.95404,4.41,8.54,2.59,21.34
1153120,-0.04148,-0.625616,0.926712,21.42,9.31,-0.35,21.34
1153132,-0.135176,-0.724192,1.176568,36.82,-0.7,-14.28,21.37
1153143,-0.08296,-0.281088,1.225856,17.01,-12.46,-2.66,21.33
1153155,0.045384,-0.18788,1.082384,-6.02,-8.61,2.73,21.33
1153167,-0.000488,-0.374784,0.988688,-25.34,-1.19,0.07,21.37
1153178,-0.052216,-0.515328,0.967216,-22.4,0.49,-0.14,21.37
1153190,-0.049776,-0.578768,0.944768,-4.13,-0.84,-1.89,21.42
1153202,-0.05124,-0.5368,0.964776,15.19,-1.96,-3.64,21.39
1153214,-0.0488,-0.516304,0.993568,27.370001,-2.94,-5.25,21.39
1153226,-0.052216,-0.450912,1.010648,34.580002,-3.01,-5.32,21.37
1153238,-0.043432,-0.396256,1.01016,40.669998,-5.88,-7.7,21.35
1153250,-0.006344,-0.366,0.954528,28.629999,-8.68,-6.79,21.35
1153261,0.021472,-0.394304,0.864248,7.63,-4.13,-2.31,21.39
1153273,-0.007808,-0.486536,0.823744,11.76,-2.1,-4.69,21.4
1153285,-0.042456,-0.352824,0.87596,17.709999,-3.15,-4.27,21.4
1153297,-0.018056,-0.367464,0.916464,20.440001,-2.31,-2.52,21.36
1153309,-0.010248,-0.415288,0.928176,28.84,-0.56,-3.78,21.4
1153321,-0.036112,-0.325984,0.970144,32.830002,-2.17,-2.1,21.4
1153333,-0.043432,-0.3172,1.028704,31.01,-3.99,-1.68,21.36
1153344,-0.035624,-0.296704,1.049688,22.610001,-7.07,-0.49,21.36
1153356,-0.0122,-0.262544,1.049688,3.71,-8.54,1.4,21.4
1153367,0.008296,-0.353312,1.02236,-6.65,-7.98,2.17,21.37
1153379,0.006344,-0.388448,1.006744,-7.63,-7.42,0.35,21.37
1153391,0.01708,-0.45628,0.910608,-2.1,-4.9,-1.26,21.35
1153402,-0.023424,-0.4636,0.86864,7.35,-4.13,-2.31,21.35
1153414,-0.033184,-0.445544,0.843752,23.799999,-4.34,-2.17,21.34
1153426,-0.04636,-0.297192,0.884744,22.049999,-4.48,-0.56,21.39
1153438,-0.031232,-0.286944,0.940864,9.45,-2.73,0.49,21.39
1153449,-0.035624,-0.358192,1.009184,0.7,-1.4,-0.7,21.37
1153461,-0.045384,-0.397232,1.060424,-2.31,-1.82,-0.77,21.34
1153473,-0.04636,-0.409432,1.045296,0.56,-4.13,-0.56,21.34
1153484,-0.035136,-0.388936,1.003816,5.11,-5.6,-0.77,21.32
1153496,-0.028304,-0.403088,0.9516,9.31,-5.81,-1.54,21.3
1153507,-0.022936,-0.4148,0.881328,11.9,-4.55,-2.52,21.3
1153519,-0.031232,-0.391864,0.85888,12.25,-2.94,-3.29,21.36
1153530,-0.032696,-0.381128,0.903288,8.96,-1.68,-3.71,21.36
1153542,-0.043432,-0.33916,0.971608,4.83,-0.91,-2.73,21.32
1153553,-0.03904,-0.353312,0.981856,0.42,-0.77,-2.52,21.36
1153565,-0.055144,-0.366488,1.014064,-2.73,-1.96,-1.68,21.36
1153577,-0.04636,-0.40504,1.005768,-0.63,-2.52,-2.03,21.37
1153588,-0.051728,-0.366976,1.00528,4.06,-3.85,-1.96,21.37
1153600,-0.03172,-0.325984,0.972584,2.87,-3.99,-0.49,21.37
1153612,-0.021472,-0.35868,0.876936,3.29,-1.61,-0.63,21.34
1153624,-0.035624,-0.391376,0.859856,5.53,-0.49,-0.77,21.34
1153636,-0.047824,-0.386984,0.934032,5.53,-0.84,0.42,21.39
1153647,-0.04636,-0.358192,0.967704,3.85,-0.84,1.05,21.32
1153659,-0.056608,-0.299632,1.018456,-17.92,-2.17,1.19,21.32
1153670,-0.040992,-0.336232,1.040416,-3.29,-2.45,0.35,21.38
1153682,-0.037088,-0.389424,1.008208,-2.73,-2.94,-0.91,21.38
1153694,-0.027816,-0.406504,0.970144,1.68,-3.64,-1.12,21.38
1153706,-0.025376,-0.367464,0.939888,4.97,-4.13,-0.7,21.36
1153717,-0.011712,-0.374784,0.907192,6.72,-3.22,-0.91,21.36
1153729,-0.022448,-0.360144,0.897432,5.18,-2.8,-0.21,21.35
1153742,-0.025864,-0.327448,0.931104,1.4,-2.66,1.12,21.34
1153753,-0.023424,-0.318176,0.955504,-4.13,-1.54,1.68,21.34
1153765,-0.020984,-0.340624,0.976488,-7.49,-1.05,1.4,21.38
1153776,-0.025864,-0.367952,0.992104,-7.14,-1.61,1.19,21.37
1153788,-0.025864,-0.399184,0.989176,-2.59,-2.66,0.35,21.37
1153800,-0.022936,-0.363072,0.959408,0.84,-3.64,0.28,21.36
1153812,-0.01708,-0.364048,0.922808,2.8,-2.66,-0.21,21.36
1153824,-0.013176,-0.364048,0.895968,4.62,-1.68,-0.77,21.37
1153836,-0.016592,-0.318664,0.92964,1.54,-1.54,0.56,21.37
1153848,-0.016104,-0.343552,0.97112,-3.71,-0.84,1.26,21.37
1153860,-0.02684,-0.366488,0.98576,-4.76,-0.84,0.7,21.34
1153872,-0.031232,-0.39284,0.965752,-3.64,-1.19,0.7,21.32
1153883,-0.035136,-0.399184,0.967704,0.07,-1.75,0.63,21.32
1153895,-0.027816,-0.362096,0.975024,0.63,-2.24,0.77,21.34
1153907,-0.023424,-0.368928,0.97112,-0.49,-2.1,0.63,21.35
1153919,-0.02684,-0.364048,0.947208,-1.47,-1.68,0.7,21.35
1153930,-0.026352,-0.376248,0.929152,-1.33,-1.26,0.0,21.37
1153943,-0.03904,-0.394304,0.956968,0.42,-2.45,-0.28,21.37
1153954,-0.038552,-0.38796,0.987712,1.96,-3.36,-1.12,21.34
1153967,-0.03904,-0.363072,1.004792,2.87,-3.99,-1.54,21.35
1153978,-0.034648,-0.366976,0.996496,2.59,-4.48,-1.82,21.35
1153990,-0.031232,-0.372832,0.971608,2.73,-4.62,-1.68,21.38
1154002,-0.0366,-0.359656,0.955016,1.89,-5.04,-1.12,21.4
1154014,-0.036112,-0.354776,0.95404,0.35,-5.32,-0.91,21.4
1154026,-0.028792,-0.359656,0.9516,-0.14,-4.62,-0.7,21.38
1154038,-0.033184,-0.367952,0.947208,-0.7,-3.71,-0.07,21.36
1154050,-0.035624,-0.378688,0.957456,2.66,-3.85,-0.21,21.36
1154061,-0.03416,-0.346968,0.962336,3.85,-4.27,0.28,21.39
1154073,-0.028792,-0.357704,0.959408,3.01,-3.92,0.07,21.39
1154085,-0.022936,-0.352824,0.948672,0.84,-2.87,0.07,21.37
1154097,-0.023424,-0.371856,0.956968,-2.17,-2.38,0.21,21.32
1154109,-0.024888,-0.379176,0.951112,-3.57,-2.03,0.63,21.32
1154121,-0.033184,-0.389912,0.942328,-0.28,-1.82,-0.07,21.32
1154133,-0.04148,-0.34648,0.957456,0.49,-2.59,1.05,21.35
1154145,-0.030256,-0.359168,0.959896,-0.7,-2.45,1.26,21.35
1154156,-0.037576,-0.355264,0.955016,-1.19,-2.03,0.77,21.38
1154168,-0.037088,-0.355752,0.945256,-0.91,-2.1,0.91,21.35
1154180,-0.031232,-0.366,0.936472,0.14,-1.54,0.91,21.35
1154192,-0.030256,-0.364536,0.94184,0.28,-1.54,1.12,21.37
1154204,-0.027816,-0.379664,0.947208,-0.42,-1.4,1.26,21.37
1154215,-0.026352,-0.36112,0.94184,-1.68,-1.47,1.26,21.37
1154227,-0.028304,-0.379664,0.94428,-3.29,-1.05,0.84,21.38
1154239,-0.031232,-0.396256,0.94672,-1.61,-0.98,-0.07,21.38
1154251,-0.03416,-0.36356,0.941352,-0.49,-1.26,0.14,21.37
1154263,-0.028792,-0.371856,0.929152,-1.33,-0.56,0.28,21.37
1154274,-0.027816,-0.364536,0.921344,-0.98,0.28,0.56,21.37
1154285,-0.030256,-0.357216,0.92964,-2.87,0.56,1.12,21.38
1154297,-0.030744,-0.367952,0.943792,-3.29,0.84,1.33,21.38
1154309,-0.033672,-0.369904,0.959408,-2.45,1.33,1.4,21.35
1154321,-0.034648,-0.373808,0.971608,-1.4,1.26,1.19,21.36
1154332,-0.038064,-0.376248,0.975512,-1.33,0.7,1.05,21.36
1154344,-0.033184,-0.390888,0.9638,-1.26,0.42,0.35,21.37
1154355,-0.036112,-0.392352,0.95892,-0.84,0.07,-0.07,21.33
1154367,-0.030256,-0.39528,0.960384,0.14,0.21,-0.35,21.33
1154379,-0.038064,-0.372344,0.95648,0.98,-0.21,-0.07,21.35
1154390,-0.041968,-0.364536,0.973072,-0.35,-1.12,0.42,21.35
1154402,-0.045384,-0.3904,0.984296,0.28,-1.54,-0.42,21.36
1154414,-0.045872,-0.385032,0.982344,1.47,-2.31,-0.98,21.39
1154425,-0.043432,-0.385032,0.975024,2.38,-3.29,-1.05,21.39
1154437,-0.033672,-0.499224,0.95892,2.87,-3.29,-0.98,21.34
1154448,-0.032696,-0.362584,0.95648,2.59,-3.01,-0.91,21.31
1154460,-0.020984,-0.370392,0.955992,-0.42,-2.59,-0.42,21.31
1154471,-0.025376,-0.401624,0.945744,0.42,-1.89,-1.26,21.37
1154483,-0.034648,-0.385032,0.953064,1.26,-1.89,-0.98,21.37
1154495,-0.034648,-0.376736,0.959896,2.45,-2.1,-0.98,21.33
1154507,-0.038064,-0.34892,0.965752,0.42,-1.96,-0.21,21.35
1154518,-0.033184,-0.362584,0.959408,-0.63,-1.19,-0.21,21.35
1154530,-0.035624,-0.378688,0.949648,-0.7,-1.26,0.21,21.37
1154542,-0.037576,-0.379664,0.953552,0.56,-1.47,0.49,21.32
1154554,-0.040016,-0.37332,0.9638,1.26,-1.75,0.84,21.32
1154566,-0.037088,-0.381616,0.96868,1.82,-1.82,0.7,21.34
1154577,-0.043432,-0.37332,0.9638,1.89,-1.96,0.63,21.34
1154589,-0.040504,-0.393328,0.941352,-0.35,-2.03,0.56,21.31
1154600,-0.048312,-0.425536,0.952576,1.68,-3.01,-0.56,21.3
1154612,-0.055632,-0.344528,0.96868,0.56,-4.55,0.0,21.3
1154624,-0.053192,-0.33916,0.971608,-2.66,-5.67,-0.21,21.33
1154636,-0.057584,-0.347456,0.974536,-5.81,-6.44,-0.14,21.34
1154648,-0.054656,-0.346968,0.915,-6.86,-5.74,0.07,21.34
1154659,-0.048312,-0.347944,0.8784,-10.29,-5.6,1.82,21.34
1154671,-0.025864,-0.41968,0.855464,-13.51,-2.8,3.08,21.34
1154682,-0.004392,-0.469944,0.81008,-10.36,1.68,4.34,21.36
1154694,-0.005856,-0.494344,0.714432,0.21,6.51,4.41,21.35
1154705,-0.064904,-0.112728,0.782752,-14.7,7.07,12.25,21.35
1154716,0.011712,-0.162016,0.75396,-39.130001,12.88,18.83,21.34
1154728,0.025376,-0.46848,0.843752,-49.07,24.639999,10.71,21.35
1154739,-0.064904,-0.639768,0.943304,-42.700001,29.82,5.25,21.35
1154751,-0.114192,-1.36396,1.082384,78.050003,28.280001,-20.16,21.34
1154762,-0.068808,-0.290848,1.224392,95.059998,13.02,-8.61,21.34
1154774,0.066368,-0.003416,1.276608,42.77,6.93,15.26,21.32
1154786,0.103456,0.155184,1.523048,-38.220001,17.08,24.92,21.34
1154797,0.209352,-0.280112,1.319064,-68.669998,34.580002,25.76,21.34
1154808,0.150304,-0.667584,1.371768,-88.620003,48.509998,19.040001,21.34
1154820,-0.095648,-0.800808,1.344928,-66.080002,48.720001,19.040001,21.34
1154831,-0.137616,-0.91256,1.277096,-29.4,41.02,13.37,21.32
1154843,-0.171776,-0.72468,1.264408,-4.2,33.389999,17.360001,21.34
1154855,-0.206424,-0.565592,1.280512,-7.7,31.15,14.49,21.34
1154866,-0.282552,-0.7076,1.469368,-10.5,29.68,3.64,21.32
1154877,-0.374296,-0.885232,1.593808,4.34,25.200001,-14.49,21.35
1154889,-0.396256,-0.807152,1.76412,14.21,3.99,-19.6,21.35
1154900,-0.383568,-0.835944,1.893928,17.290001,-19.25,-28.84,21.33
1154912,-0.41236,-0.880352,1.950536,30.1,-46.48,-34.509998,21.33
1154924,-0.452376,-0.771528,1.804624,44.52,-71.610001,-40.529999,21.35
1154935,-0.447496,-0.528016,1.66408,39.900002,-95.550003,-41.439999,21.32
1154946,-0.378688,-0.509472,1.600152,26.879999,-111.650002,-44.869999,21.32
1154958,-0.318176,-0.571936,1.571848,20.09,-123.129997,-50.610001,21.35
1154970,-0.332328,-0.464576,1.561112,12.88,-136.779999,-52.990002,21.3
1154982,-0.288408,-0.460672,1.453264,6.23,-150.080002,-53.619999,21.3
1154994,-0.235704,-0.384544,1.366888,-4.41,-159.320007,-54.459999,21.34
1155005,-0.18788,-0.337696,1.363472,-22.82,-165.059998,-54.740002,21.34
1155017,-0.171776,-0.259616,1.325896,-44.450001,-170.449997,-55.299999,21.37
1155029,-0.14152,-0.233752,1.236592,-66.290001,-174.509995,-57.049999,21.34
1155041,-0.118096,-0.227408,1.170712,-87.290001,-179.550003,-57.470001,21.34
1155053,-0.048312,-0.352336,1.05896,-99.050003,-182.979996,-60.619999,21.33
1155065,0.006832,-0.4636,0.965264,-97.160004,-183.820007,-66.43,21.32
1155076,0.003416,-0.42212,0.841312,-85.959999,-184.100006,-70.209999,21.32
1155088,0.02196,-0.382104,0.774944,-76.720001,-183.889999,-71.260002,21.36
1155100,0.092232,-0.349408,0.78568,-70.349998,-182.139999,-70.980003,21.36
1155111,0.14152,-0.304512,0.749568,-66.639999,-179.690002,-70.839996,21.34
1155122,0.164944,-0.258152,0.666608,-64.889999,-176.050003,-71.540001,21.36
1155134,0.183488,-0.25864,0.538264,-57.610001,-170.449997,-70.699997,21.36
1155146,0.220576,-0.274256,0.445056,-47.389999,-165.899994,-66.5,21.34
1155158,0.311832,-0.28304,0.471896,-36.75,-160.580002,-62.509998,21.34
1155170,0.384056,-0.224968,0.472872,-32.130001,-155.119995,-57.470001,21.34
1155182,0.433832,-0.164456,0.442128,-37.310001,-147.490005,-54.25,21.37
1155194,0.445056,-0.245952,0.362584,-35.490002,-136.149994,-54.040001,21.37
1155205,0.438712,-0.259128,0.275232,-28.07,-126.910004,-53.34,21.31
1155217,0.460672,-0.294264,0.21472,-19.040001,-118.300003,-49.630001,21.32
1155229,0.507032,-0.30744,0.165432,-4.97,-109.830002,-47.18,21.32
1155240,0.528016,-0.17324,0.142984,-4.34,-100.660004,-41.860001,21.36
1155252,0.552904,-0.083936,0.140544,-15.75,-89.32,-36.330002,21.3
1155264,0.564128,-0.112728,0.142008,-30.1,-77.139999,-31.709999,21.3
1155275,0.571448,-0.189832,0.122488,-33.459999,-67.690002,-28.139999,21.3
1155287,0.578768,-0.315736,0.06588,-26.74,-59.779999,-25.059999,21.27
1155299,0.581696,-0.355752,0.020008,-9.94,-51.310001,-25.620001,21.27
1155310,0.564128,-0.290848,-0.00488,4.48,-44.73,-23.309999,21.37
1155322,0.559736,-0.191784,-0.01464,6.3,-38.5,-18.129999,21.37
1155333,0.580232,-0.188368,0.015128,2.17,-31.99,-11.06,21.37
1155345,0.599752,-0.132736,0.101504,-8.26,-23.73,-4.55,21.34
1155356,0.61732,-0.090768,0.147376,-17.290001,-21.84,1.47,21.34
1155368,0.636352,-0.22448,0.134688,-23.24,-14.98,1.89,21.32
1155380,0.630984,-0.32452,0.137128,-19.32,-10.57,2.17,21.32
1155392,0.640256,-0.377224,0.162992,-12.6,-6.65,1.54,21.34
1155403,0.62464,-0.371856,0.223992,-7.56,-5.67,4.9,21.36
1155415,0.625616,-0.318664,0.264008,-5.25,-5.88,7.91,21.36
1155426,0.623664,-0.2928,0.288408,-7.98,-6.44,11.76,21.36
1155438,0.630008,-0.258152,0.276208,-13.93,-7.77,15.33,21.36
1155449,0.62952,-0.313296,0.261568,-19.040001,-8.05,17.360001,21.36
1155461,0.641232,-0.422608,0.260104,-15.61,-8.05,15.96,21.34
1155472,0.66612,-0.449448,0.288896,-10.15,-8.47,15.61,21.34
1155484,0.70516,-0.476288,0.320128,-5.32,-9.17,16.030001,21.35
1155495,0.732976,-0.470432,0.316224,-1.47,-7.7,14.49,21.35
1155507,0.731024,-0.473848,0.315248,0.56,-4.48,12.95,21.35
1155518,0.714432,-0.520208,0.313296,3.15,-2.66,11.34,21.38
1155530,0.738344,-0.533384,0.284016,5.39,-1.61,9.45,21.38
1155541,0.760304,-0.493368,0.30012,5.32,-0.7,8.26,21.33
1155552,0.757376,-0.489952,0.316224,2.8,0.56,8.96,21.33
1155564,0.772992,-0.49532,0.357216,-0.49,3.85,7.07,21.33
1155575,0.77104,-0.507032,0.382104,-3.85,6.72,5.46,21.32
1155587,0.752008,-0.591944,0.414312,-1.05,6.58,3.43,21.34
1155598,0.752008,-0.585112,0.432368,6.44,5.46,1.61,21.34
1155610,0.752496,-0.538752,0.43188,10.64,5.32,-0.14,21.3
1155621,0.742736,-0.481168,0.438224,9.73,5.18,0.91,21.3
1155633,0.747616,-0.435296,0.467504,5.25,5.04,2.8,21.35
1155644,0.752008,-0.41724,0.474824,-0.98,4.69,5.6,21.31
1155655,0.750056,-0.496784,0.488,-1.96,4.97,6.02,21.31
1155667,0.740296,-0.5368,0.49044,1.75,3.85,5.11,21.32
1155678,0.73688,-0.556808,0.472384,9.03,2.52,2.87,21.32
1155689,0.726144,-0.523136,0.462136,13.02,0.14,2.38,21.35
1155700,0.749568,-0.481168,0.442128,11.69,-0.63,2.59,21.31
1155711,0.767136,-0.452864,0.46116,7.28,0.84,3.01,21.31
1155722,0.754448,-0.411384,0.472872,-0.77,2.31,4.83,21.3
1155734,0.744688,-0.455304,0.494344,-7.07,3.15,5.67,21.3
1155746,0.723704,-0.53192,0.498736,-8.68,1.96,6.16,21.34
1155757,0.731512,-0.584624,0.494832,-2.73,0.56,5.04,21.33
1155769,0.738832,-0.564616,0.478728,3.92,-1.26,4.62,21.33
1155780,0.75152,-0.537288,0.460184,7.63,-1.12,5.04,21.32
1155791,0.74176,-0.482144,0.454816,6.16,0.84,4.55,21.35
1155802,0.735416,-0.468968,0.462136,0.42,2.8,5.39,21.35
1155814,0.723704,-0.484096,0.462136,-1.75,2.1,6.58,21.34
1155825,0.727608,-0.494832,0.464576,-4.06,2.03,6.65,21.34
1155836,0.72468,-0.503616,0.468968,-4.27,1.89,6.72,21.31
1155847,0.73444,-0.5368,0.477752,-2.03,1.89,6.44,21.32
1155858,0.738344,-0.54168,0.47336,0.63,1.96,5.39,21.32
1155870,0.728584,-0.532896,0.464088,2.17,2.1,5.04,21.34
1155881,0.719312,-0.511424,0.451888,3.08,1.89,4.76,21.34
1155892,0.7198,-0.494344,0.443104,2.73,1.89,5.53,21.33
1155904,0.732976,-0.490928,0.437736,1.12,2.73,5.67,21.31
1155915,0.725168,-0.508984,0.455792,0.07,3.36,5.32,21.31
1155926,0.725168,-0.534848,0.464088,1.12,3.92,4.9,21.36
1155937,0.713944,-0.521184,0.482144,1.96,3.43,4.76,21.36
1155949,0.721752,-0.5002,0.487512,2.45,2.59,4.41,21.32
1155960,0.721752,-0.523624,0.476776,2.24,2.66,4.13,21.29
1155971,0.7198,-0.520208,0.45384,2.87,2.8,3.99,21.29
1155982,0.723216,-0.544608,0.42456,5.67,3.99,2.94,21.31
1155994,0.714432,-0.533384,0.426024,6.58,4.62,2.73,21.31
1156005,0.711504,-0.506056,0.446032,6.58,4.9,2.24,21.34
1156016,0.71004,-0.4758,0.471896,2.31,4.41,3.22,21.26
1156028,0.71736,-0.487512,0.486536,-1.26,4.2,3.43,21.26
1156039,0.726632,-0.505568,0.476776,-2.66,5.11,3.36,21.35
1156051,0.733952,-0.515328,0.47336,-2.87,5.74,3.71,21.35
1156062,0.725168,-0.532896,0.465064,-0.49,6.86,3.36,21.32
1156074,0.709064,-0.5246,0.455304,2.8,7.07,3.29,21.32
1156086,0.703208,-0.512888,0.445056,5.18,7.35,3.29,21.32
1156097,0.706624,-0.466528,0.443592,2.59,7.49,4.27,21.34
1156108,0.711016,-0.455792,0.472872,-1.54,8.47,5.53,21.34
1156119,0.7076,-0.473848,0.496296,-5.39,8.89,5.74,21.3
1156130,0.697352,-0.489464,0.50752,-8.4,8.19,6.16,21.31
1156141,0.691984,-0.55388,0.497272,-5.04,7.07,5.11,21.31
1156153,0.693936,-0.5734,0.487024,1.89,6.37,3.5,21.33
1156164,0.688568,-0.531432,0.48556,7.14,5.04,2.66,21.33
1156175,0.694424,-0.501664,0.482632,9.17,4.9,3.36,21.3
1156186,0.694912,-0.481168,0.479704,7.7,5.32,4.2,21.3
1156198,0.686616,-0.469456,0.477264,5.25,6.09,5.04,21.3
1156209,0.683688,-0.479216,0.469944,4.13,6.58,5.67,21.32
1156220,0.68808,-0.494832,0.46116,4.48,7.07,5.6,21.33
1156232,0.682224,-0.500688,0.469944,5.25,6.93,5.81,21.33
1156243,0.694912,-0.513864,0.476288,6.44,7.14,5.88,21.36
1156254,0.69296,-0.508008,0.480192,6.58,7.7,5.81,21.36
1156266,0.682712,-0.516304,0.479704,6.79,8.4,5.81,21.3
1156277,0.671,-0.500688,0.472384,8.4,8.89,6.3,21.31
1156288,0.660264,-0.486536,0.464088,10.08,8.89,6.72,21.31
1156299,0.654408,-0.457744,0.454816,9.38,9.24,7.7,21.35
1156310,0.648064,-0.4636,0.449936,9.38,10.01,8.26,21.35
1156322,0.64172,-0.452376,0.4514,8.26,10.99,9.24,21.36
1156333,0.637328,-0.464088,0.462624,7.07,12.11,10.01,21.34
1156345,0.629032,-0.459696,0.474824,7.77,12.95,11.27,21.34
1156356,0.632448,-0.49044,0.476288,9.87,12.67,12.46,21.34
1156367,0.64904,-0.521672,0.46116,16.1,12.81,12.04,21.34
1156378,0.65392,-0.516792,0.452376,19.74,13.3,11.76,21.34
1156390,0.647088,-0.465064,0.447496,21.0,13.93,12.18,21.29
1156401,0.634888,-0.41724,0.459208,15.96,14.7,13.65,21.29
1156413,0.63684,-0.424072,0.45872,10.36,16.1,14.98,21.34
1156424,0.63928,-0.449448,0.452864,6.79,18.41,15.68,21.34
1156435,0.631472,-0.476776,0.452864,6.3,20.23,16.379999,21.33
1156446,0.62464,-0.484096,0.467016,6.93,21.700001,17.99,21.31
1156458,0.602192,-0.486048,0.487512,12.11,22.120001,18.48,21.31
1156469,0.56364,-0.452864,0.488976,15.4,21.280001,19.32,21.3
1156481,0.556808,-0.451888,0.459208,18.969999,21.559999,20.09,21.3
1156492,0.560224,-0.473848,0.428952,21.280001,23.24,20.09,21.3
1156503,0.55632,-0.484096,0.427976,21.84,25.129999,20.790001,21.36
1156514,0.581208,-0.50508,0.443104,21.49,25.969999,22.75,21.36
1156525,0.597312,-0.486536,0.464088,19.879999,28.559999,23.59,21.31
1156537,0.586088,-0.480192,0.486048,17.99,30.940001,23.379999,21.31
1156548,0.547048,-0.476776,0.508496,17.360001,31.5,22.540001,21.31
1156559,0.521672,-0.476776,0.494832,16.52,32.130001,22.4,21.32
1156571,0.513864,-0.513376,0.467992,19.879999,33.669998,21.35,21.32
1156582,0.512888,-0.525576,0.45628,25.48,35.0,21.139999,21.31
1156594,0.526064,-0.49776,0.464576,30.030001,37.169998,21.98,21.31
1156604,0.529968,-0.43432,0.507032,29.889999,39.549999,23.450001,21.31
1156616,0.509472,-0.420168,0.54656,25.9,42.630001,24.290001,21.3
1156627,0.465552,-0.438712,0.550464,23.450001,43.400002,22.959999,21.3
1156638,0.42456,-0.476776,0.528992,25.9,43.470001,21.35,21.34
1156650,0.418704,-0.466528,0.534848,29.610001,43.119999,21.49,21.35
1156661,0.44408,-0.4636,0.528992,32.689999,44.099998,22.190001,21.35
1156673,0.468968,-0.454816,0.532408,31.780001,47.18,23.59,21.3
1156684,0.455304,-0.478728,0.570472,32.970001,48.860001,24.5,21.3
1156695,0.442616,-0.518256,0.603656,35.490002,51.59,22.540001,21.32
1156707,0.39528,-0.468968,0.604632,38.849998,51.939999,19.809999,21.32
1156719,0.357704,-0.418216,0.609024,37.450001,51.869999,19.32,21.32
1156730,0.382592,-0.418704,0.640744,34.02,52.220001,20.93,21.3
1156741,0.411384,-0.414312,0.647576,32.27,54.040001,23.66,21.3
1156753,0.430416,-0.432368,0.65636,29.4,58.240002,26.459999,21.29
1156765,0.42212,-0.457744,0.700768,28.35,63.0,26.809999,21.32
1156776,0.38308,-0.487024,0.732,31.01,64.540001,24.57,21.32
1156788,0.343552,-0.5124,0.71736,35.77,63.139999,21.77,21.3
1156799,0.335256,-0.447008,0.72956,35.91,63.209999,23.1,21.33
1156811,0.362096,-0.410408,0.760304,33.040001,66.989998,24.639999,21.33
1156822,0.34404,-0.376248,0.81496,24.5,69.440002,28.49,21.3
1156834,0.323544,-0.367952,0.88816,16.799999,70.699997,30.450001,21.3
1156845,0.296216,-0.4514,0.91256,11.62,71.260002,29.540001,21.31
1156856,0.262056,-0.550952,0.90768,12.6,69.370003,25.83,21.27
1156868,0.237656,-0.573888,0.887672,20.58,67.410004,23.030001,21.27
1156879,0.254736,-0.549976,0.904752,28.629999,66.709999,22.4,21.28
1156891,0.25864,-0.455304,0.964288,29.469999,67.199997,23.73,21.28
1156902,0.229848,-0.39284,1.006744,21.139999,66.5,26.25,21.32
1156914,0.203008,-0.415288,1.034072,11.83,66.150002,25.83,21.28
1156925,0.162504,-0.475312,1.042368,7.21,63.209999,24.709999,21.28
1156936,0.146888,-0.538752,1.025288,6.65,60.41,22.889999,21.29
1156948,0.148352,-0.569496,1.07848,9.1,58.59,21.35,21.29
1156959,0.181536,-0.529968,1.13216,10.08,53.200001,17.43,21.27
1156970,0.011224,-0.641232,1.12484,13.16,42.419998,16.309999,21.32
1156982,0.181536,-0.543144,1.1346,13.02,39.830002,14.49,21.32
1156993,0.213256,-0.572424,1.134112,6.58,52.919998,13.23,21.3
1157004,0.0488,-0.59292,1.111664,12.11,42.490002,12.67,21.27
1157016,0.101504,-0.55388,1.084824,15.82,38.709999,14.7,21.27
1157027,0.101016,-0.506056,1.050664,17.639999,39.130001,14.07,21.31
1157038,0.09272,-0.492392,1.031144,14.14,39.619999,14.0,21.31
1157050,0.065392,-0.501664,1.04432,7.49,37.169998,14.7,21.31
1157061,0.086864,-0.52216,1.052616,3.01,35.84,15.75,21.29
1157072,0.095648,-0.538752,1.036512,1.61,34.650002,18.129999,21.29
1157084,0.098576,-0.555344,1.057984,-0.35,35.419998,17.360001,21.28
1157095,0.09516,-0.581208,1.084824,-0.07,36.119999,16.870001,21.28
1157107,0.076128,-0.56608,1.104832,0.35,34.580002,16.66,21.33
1157118,0.052216,-0.58316,1.087752,1.12,32.759998,14.91,21.24
1157130,0.043432,-0.585112,1.06628,-1.12,29.540001,14.07,21.24
1157142,0.038064,-0.598776,1.055056,-3.29,27.51,11.27,21.3
1157153,0.020496,-0.610488,1.048712,-1.75,25.48,8.05,21.3
1157165,0.016104,-0.5734,1.051152,0.91,23.309999,6.09,21.29
1157177,0.013664,-0.525088,1.076528,-0.07,21.49,5.53,21.27
1157188,0.008784,-0.540704,1.064328,-0.28,18.83,3.71,21.27
1157199,0.013176,-0.582672,1.040904,2.03,16.59,1.47,21.32
1157211,0.021472,-0.582672,1.00528,3.99,15.26,0.21,21.26
1157222,0.02928,-0.576328,1.001376,6.23,15.26,-0.07,21.26
1157233,0.026352,-0.545584,1.016016,8.89,14.98,0.0,21.33
1157245,0.011224,-0.492392,1.04188,8.54,13.72,0.28,21.33
1157256,0.008296,-0.443104,1.030656,5.32,12.81,1.47,21.26
1157267,0.005368,-0.474824,0.998448,5.18,11.97,1.61,21.32
1157278,0.005368,-0.475312,0.979904,6.51,10.78,1.26,21.32
1157290,0.016592,-0.521184,0.964776,8.68,10.15,1.4,21.27
1157301,0.030744,-0.507032,0.976,11.06,10.57,1.82,21.27
1157312,0.017568,-0.485072,1.00528,11.41,10.29,2.24,21.32
1157324,-0.011712,-0.553392,1.026752,11.48,11.34,-0.63,21.31
1157335,-0.027328,-0.507032,1.050664,26.950001,6.23,0.56,21.31
1157347,0.055144,-0.443104,1.01504,26.459999,5.04,1.26,21.34
1157358,0.022936,-0.443104,0.967704,25.9,5.74,0.98,21.34
1157369,0.015128,-0.379176,0.924272,22.469999,6.02,3.71,21.31
1157380,0.035136,-0.355752,0.884744,14.84,8.47,5.88,21.28
1157390,0.001952,-0.528504,0.986248,10.5,9.59,3.36,21.28
1157402,0.00976,-0.382592,0.960872,13.93,9.73,5.18,21.32
1157413,0.040504,-0.427976,0.909632,12.25,13.16,3.85,21.32
1157425,-0.005856,-0.491904,0.904264,17.219999,15.19,2.87,21.33
1157436,-0.045872,-0.495808,1.067744,13.23,12.67,2.45,21.28
1157447,-0.059536,-0.57828,1.269288,10.92,4.41,-1.33,21.28
1157459,-0.047336,-0.338672,1.351272,-3.78,-4.41,3.78,21.29
1157471,0.030744,-0.374784,1.240496,-16.450001,-6.86,4.27,21.27
1157483,0.001952,-0.617808,0.953552,-7.28,-4.41,-2.1,21.27
1157495,-0.027816,-0.577792,0.836432,5.88,-5.39,-4.55,21.28
1157506,-0.021472,-0.5978,0.808616,24.290001,-3.78,-6.02,21.28
1157518,-0.00976,-0.535824,0.840336,38.990002,-3.15,-6.3,21.27
1157529,-0.002928,-0.391864,0.91744,38.57,-2.52,-5.11,21.25
1157541,-0.005368,-0.369416,0.966728,28.84,-1.4,-6.02,21.25
1157552,0.013664,-0.308416,0.987224,15.47,-3.01,-3.15,21.29
1157564,0.040504,-0.293776,0.977952,-10.08,-0.84,-1.05,21.29
1157575,0.020008,-0.436272,0.926224,-15.75,3.78,-0.21,21.29
1157586,0.030744,-0.491416,0.840336,-5.81,5.25,-3.92,21.27
1157598,-0.003904,-0.419192,0.853512,2.73,2.38,-1.89,21.27
1157610,0.006344,-0.370392,0.931592,7.77,1.47,-0.84,21.32
1157621,0.011712,-0.388448,0.976488,13.16,2.45,-2.94,21.29
1157632,-0.0122,-0.371856,1.008208,16.17,2.87,-4.9,21.29
1157644,-0.033672,-0.357704,1.04188,13.37,-1.12,-3.64,21.36
1157655,-0.025376,-0.334768,1.052616,3.15,-4.55,-1.68,21.36
1157667,-0.020496,-0.373808,1.037488,-1.54,-6.65,-1.12,21.3
1157679,-0.007808,-0.375272,0.97356,-0.42,-8.4,-1.61,21.26
1157691,0.00244,-0.35624,0.942328,-1.12,-8.82,-0.07,21.26
1157703,0.020496,-0.432856,0.9516,-3.15,-8.12,-0.63,21.27
1157714,0.00732,-0.474336,0.995032,1.26,-7.84,-1.61,21.22
1157726,-0.00488,-0.391864,0.996496,5.6,-8.47,-0.42,21.22
1157738,-0.00488,-0.366976,0.975024,7.07,-8.96,0.42,21.33
1157749,0.007808,-0.365512,0.935008,4.55,-8.05,0.63,21.33
1157761,0.00488,-0.390888,0.897432,-0.84,-5.39,0.98,21.24
1157773,0.009272,-0.462136,0.838872,-4.83,-2.17,1.26,21.29
1157785,-0.01708,-0.464088,0.820328,-2.59,-1.4,2.94,21.29
1157796,-0.020008,-0.405528,0.859368,2.66,-1.05,3.99,21.31
1157808,-0.02196,-0.366,0.943304,0.98,-0.63,4.34,21.28
1157820,-0.023912,-0.40748,0.996008,-2.66,-0.35,3.01,21.28
1157832,-0.02684,-0.450424,1.01504,-3.5,-0.98,2.03,21.3
1157844,-0.0244,-0.47092,1.010648,-1.19,-2.66,0.77,21.3
1157856,-0.0244,-0.462624,0.976,-0.49,-3.99,0.63,21.3
1157868,-0.021472,-0.462624,0.894016,3.64,-3.99,0.21,21.34
1157879,-0.022448,-0.450424,0.877424,9.59,-4.06,-1.82,21.34
1157891,-0.019032,-0.369416,0.916952,7.42,-4.48,-0.56,21.31
1157902,-0.011224,-0.384544,0.976,1.75,-4.2,-0.56,21.29
1157914,-0.015616,-0.406016,1.007232,-3.71,-4.41,-0.91,21.29
1157926,-0.01952,-0.450912,0.99552,-4.2,-4.69,-1.47,21.3
1157938,-0.024888,-0.430416,0.951112,-1.05,-5.32,-1.05,21.27
1157950,-0.023424,-0.407968,0.912072,3.99,-6.44,-0.98,21.27
1157962,-0.008296,-0.386496,0.921832,6.65,-6.44,-1.26,21.29
1157974,0.000976,-0.378688,0.935984,6.09,-5.39,-1.05,21.29
1157985,0.005368,-0.394304,0.91988,3.78,-4.06,-1.05,21.3
1157997,-0.003416,-0.391376,0.931592,2.38,-3.99,0.14,21.31
1158009,0.000488,-0.388936,0.9394,0.21,-3.57,1.19,21.31
1158020,-0.00244,-0.39528,0.930128,-2.66,-2.59,0.84,21.27
1158032,-0.011224,-0.431392,0.91744,-3.01,-1.96,0.07,21.28
1158043,-0.014152,-0.428464,0.925248,-0.77,-2.94,0.56,21.28
1158055,0.003416,-0.406992,0.937448,1.26,-2.8,1.05,21.33
1158066,-0.000488,-0.37576,0.940376,0.35,-2.17,0.91,21.33
1158078,0.001952,-0.38796,0.942328,-3.78,-2.03,1.4,21.29
1158089,-0.005856,-0.447008,0.943792,-2.24,-2.17,0.21,21.31
1158101,-0.0122,-0.41968,0.936472,0.91,-2.8,0.35,21.31
1158113,-0.003904,-0.41724,0.937448,2.31,-2.94,0.14,21.33
1158125,-0.000976,-0.399184,0.90768,3.29,-2.1,-1.12,21.29
1158137,-0.00244,-0.398696,0.891576,1.12,-0.84,-1.47,21.29
1158149,-0.000976,-0.411384,0.914512,-1.19,-0.21,-1.33,21.28
1158161,-0.012688,-0.41968,0.933544,-2.24,-0.63,-1.05,21.26
1158173,-0.015616,-0.419192,0.955016,-1.05,-1.05,-1.33,21.26
1158184,-0.01708,-0.412848,0.96868,-0.28,-1.96,-0.77,21.25
1158196,-0.014152,-0.413336,0.955992,1.82,-2.45,-0.77,21.25
1158208,-0.010248,-0.393816,0.947208,0.91,-2.24,-0.63,21.29
1158220,-0.008784,-0.406992,0.942328,0.42,-1.75,-0.35,21.28
1158232,-0.014152,-0.380152,0.924272,1.26,-1.68,-0.07,21.28
1158244,-0.010248,-0.384056,0.914024,-0.84,-1.47,0.63,21.3
1158256,-0.007808,-0.423584,0.94428,-1.61,-1.68,0.56,21.27
1158267,-0.008296,-0.42456,0.952088,0.28,-1.61,-0.14,21.27
1158279,-0.014152,-0.413824,0.966728,1.05,-2.1,-0.7,21.28
1158291,-0.014152,-0.427,0.975024,0.98,-2.94,-1.05,21.28
1158303,-0.018544,-0.42944,0.968192,2.1,-3.78,-1.89,21.29
1158315,-0.015128,-0.416264,0.935984,2.8,-4.34,-1.82,21.27
1158326,-0.00488,-0.404552,0.927688,3.01,-4.34,-1.33,21.27
1158338,-0.00732,-0.37332,0.91744,0.91,-3.71,-0.7,21.26
1158350,-0.00732,-0.391376,0.920368,-1.19,-3.29,-0.28,21.33
1158363,-0.011712,-0.417728,0.933544,-0.28,-3.36,0.21,21.33
1158374,-0.00976,-0.408456,0.936472,1.68,-3.36,0.07,21.27
1158387,-0.005856,-0.399672,0.931104,1.89,-2.8,0.35,21.23
1158398,-0.00244,-0.406992,0.918904,2.03,-2.38,0.28,21.23
1158410,0.000488,-0.397232,0.921832,1.4,-1.89,0.98,21.3
1158421,0.005368,-0.409432,0.935008,0.7,-1.54,1.12,21.3
1158433,0.00976,-0.423584,0.919392,2.38,-0.84,0.49,21.3
1158444,-0.000488,-0.401136,0.915976,2.38,-0.42,0.98,21.26
1158456,0.0,-0.403576,0.936472,0.77,-0.21,1.33,21.26
1158468,-0.001464,-0.409432,0.952576,-0.28,0.21,1.4,21.26
1158479,-0.005856,-0.411872,0.945744,1.4,0.63,0.84,21.24
1158491,-0.010736,-0.403576,0.945744,1.54,0.21,0.98,21.24
1158503,-0.008296,-0.428952,0.944768,2.1,-0.21,0.49,21.27
1158515,-0.005368,-0.39528,0.942816,1.61,-0.42,0.28,21.27
1158526,0.000488,-0.407968,0.943304,-2.17,-0.07,0.49,21.27
1158538,-0.002928,-0.446032,0.943304,-0.91,0.42,-0.28,21.3
1158549,-0.016592,-0.407968,0.953064,1.54,-0.56,0.0,21.3
1158561,-0.015616,-0.4026,0.965264,1.12,-0.98,0.14,21.28
1158573,-0.013176,-0.410896,0.95892,1.33,-0.98,-0.28,21.26
1158585,-0.014152,-0.39772,0.94916,0.84,-0.84,0.21,21.26
1158596,-0.013176,-0.388936,0.947696,-0.77,-0.63,0.84,21.28
1158608,-0.016592,-0.399184,0.945256,-1.19,-0.63,1.05,21.28
1158620,-0.018544,-0.426024,0.960384,-2.1,-0.98,1.12,21.27
1158632,-0.028792,-0.447496,0.957944,1.26,-1.61,0.21,21.3
1158643,-0.025864,-0.40992,0.972096,2.03,-2.87,0.42,21.3
1158654,-0.015128,-0.425536,0.98088,0.42,-2.59,-0.56,21.32
1158666,-0.024888,-0.426024,0.977952,0.21,-3.22,-1.26,21.31
1158678,-0.016104,-0.437736,0.970144,-0.63,-3.85,-1.19,21.31
1158690,-0.023912,-0.448472,0.947208,2.59,-4.06,-1.4,21.28
1158702,-0.024888,-0.386008,0.937448,3.08,-5.04,-0.56,21.28
1158714,-0.013176,-0.398696,0.940376,-0.07,-4.48,-0.91,21.26
1158725,-0.013176,-0.427,0.933544,-0.91,-3.43,-1.61,21.29
1158738,-0.014152,-0.434808,0.941352,1.19,-3.29,-1.75,21.29
1158750,-0.015128,-0.39284,0.947208,0.7,-3.29,-0.56,21.31
1158762,-0.01464,-0.406992,0.947208,-1.12,-2.8,-0.49,21.24
1158774,-0.02196,-0.423096,0.935984,-0.07,-2.8,-1.26,21.24
1158786,-0.018544,-0.421144,0.943304,1.33,-3.43,-1.33,21.29
1158798,-0.015128,-0.437248,0.931592,4.06,-4.06,-1.68,21.3
1158809,-0.005856,-0.3904,0.931104,5.25,-3.99,-1.68,21.3
1158821,-0.00244,-0.356728,0.940376,1.12,-2.8,-0.84,21.28
1158833,-0.009272,-0.399672,0.939888,-0.49,-2.59,-1.05,21.32
1158846,-0.012688,-0.394792,0.933544,-0.42,-3.15,-0.7,21.32
1158858,-0.019032,-0.433832,0.925736,2.1,-3.78,-0.63,21.3
1158870,-0.019032,-0.427488,0.928664,5.81,-4.62,-0.91,21.3
1158882,-0.014152,-0.399672,0.929152,7.14,-5.25,-0.91,21.25
1158894,-0.009272,-0.389912,0.923784,7.35,-5.04,-0.56,21.29
1158906,0.000488,-0.406504,0.859368,7.7,-3.29,-0.84,21.29
1158917,-0.01708,-0.41236,0.850584,7.91,-3.64,0.7,21.27
1158929,-0.006344,-0.411872,0.811544,6.16,-3.08,1.61,21.21
1158941,-0.005368,-0.45628,0.811056,2.17,-2.52,3.57,21.21
1158952,0.00732,-0.468968,0.845704,1.96,-2.59,5.11,21.27
1158964,0.009272,-0.406992,0.89304,3.99,-2.66,6.37,21.26
1158976,0.008784,-0.382104,0.938912,7.56,-2.1,6.3,21.26
1158987,-0.016104,-0.328912,0.967704,10.92,-3.5,7.21,21.29
1158998,-0.007808,-0.336232,0.889136,14.42,-2.8,9.73,21.29
1159010,-0.054168,-0.371368,0.886696,24.709999,-7.0,8.19,21.27
1159022,-0.003416,-0.28304,0.92232,36.540001,-3.78,13.3,21.24
1159034,-0.054656,-0.143472,0.94428,35.490002,-0.84,9.59,21.24
1159045,0.02928,0.016592,0.973072,-17.290001,3.78,15.89,21.27
1159057,0.066368,-0.552416,0.909632,-32.060001,13.79,9.87,21.25
1159068,-0.00244,-0.408456,0.91988,-35.07,17.43,8.12,21.25
1159080,0.025864,-0.530944,0.911584,-22.120001,17.99,7.42,21.29
1159092,0.015616,-0.53924,0.902312,-3.22,17.43,2.8,21.29
1159103,0.015616,-0.49776,0.962336,8.68,19.459999,-1.68,21.29
1159115,-0.010736,-0.490928,1.017968,11.69,18.690001,-5.46,21.21
1159127,-0.057584,-0.452376,1.166808,19.18,15.12,-6.44,21.21
1159139,-0.035624,-0.636352,1.234152,43.119999,15.19,-10.85,21.25
1159151,-0.052704,-0.554856,1.2688,52.919998,7.91,-15.75,21.26
1159162,-0.001952,-0.260592,1.262456,27.16,2.45,-6.58,21.26
1159174,0.142008,-0.483608,1.11996,8.26,7.77,-8.4,21.3
1159186,0.073688,-0.599264,1.181448,7.56,9.73,-6.3,21.3
1159197,0.047824,-0.501664,1.20048,0.7,6.44,-0.56,21.29
1159209,0.050264,-0.403576,1.110688,-6.65,12.18,7.91,21.26
1159221,0.025864,-0.349408,0.9882,-17.780001,23.24,9.17,21.26
1159232,-0.00976,-0.16348,0.999424,-42.349998,34.23,14.49,21.29
1159244,-0.141032,-0.567544,1.169248,-35.630001,43.470001,7.14,21.26
1159256,-0.23424,-0.91988,1.342,-0.49,39.060001,-7.63,21.26
1159268,-0.254736,-0.82228,1.457656,30.799999,21.49,-10.85,21.24
1159279,-0.190808,-0.714432,1.577216,50.259998,6.86,-16.73,21.24
1159291,-0.229848,-0.55876,1.7202,40.599998,-5.81,-19.459999,21.27
1159303,-0.232288,-0.593408,1.771928,25.549999,-18.41,-26.18,21.27
1159315,-0.299144,-0.58072,1.754848,14.07,-31.08,-33.32,21.27
1159327,-0.269376,-0.826184,1.626016,25.34,-43.189999,-43.68,21.25
1159338,-0.25376,-0.71004,1.667496,36.610001,-63.139999,-45.220001,21.24
1159350,-0.26108,-0.63928,1.718248,51.66,-81.480003,-45.43,21.24
1159362,-0.227408,-0.499224,1.702632,52.990002,-94.639999,-45.779999,21.3
1159374,-0.230824,-0.338672,1.6714,40.389999,-107.099998,-44.240002,21.3
1159386,-0.173728,-0.371368,1.58356,29.610001,-113.75,-45.080002,21.31
1159397,-0.183488,-0.254248,1.5494,13.72,-122.220001,-45.080002,21.26
1159409,-0.142008,-0.196176,1.540616,-3.01,-132.300003,-43.470001,21.26
1159421,-0.111752,-0.255712,1.533296,-24.360001,-141.330002,-45.709999,21.28
1159433,-0.084912,-0.2928,1.502064,-35.91,-151.270004,-49.77,21.26
1159445,-0.056608,-0.257664,1.429352,-45.849998,-159.809998,-54.389999,21.26
1159457,-0.05124,-0.126392,1.35664,-67.760002,-170.800003,-52.919998,21.26
1159469,-0.012688,-0.030256,1.23464,-100.660004,-175.139999,-51.869999,21.23
1159481,0.023912,-0.038552,1.123376,-139.089996,-176.960007,-52.5,21.23
1159492,0.089304,-0.331352,0.934032,-139.369995,-170.100006,-60.200001,21.25
1159504,0.073688,-0.423096,0.809592,-120.050003,-170.029999,-67.410004,21.25
1159516,0.113704,-0.40992,0.746152,-98.07,-170.589996,-71.400002,21.28
1159528,0.141032,-0.34892,0.734928,-80.849998,-168.770004,-75.739998,21.28
1159539,0.172752,-0.079544,0.683688,-88.550003,-168.839996,-69.93,21.28
1159552,0.27816,-0.172264,0.573888,-87.290001,-161.139999,-69.440002,21.24
1159563,0.310368,-0.119072,0.518744,-85.959999,-152.389999,-67.199997,21.24
1159575,0.331352,-0.1952,0.466528,-81.900002,-144.479996,-65.940002,21.24
1159587,0.324032,-0.182024,0.400648,-70.910004,-138.320007,-66.5,21.26
1159599,0.316224,-0.21228,0.284504,-53.27,-132.020004,-68.040001,21.25
1159610,0.330864,-0.20252,0.169336,-30.799999,-123.830002,-69.300003,21.25
1159622,0.362096,-0.086376,0.128832,-19.950001,-116.269997,-63.07,21.26
1159634,0.398208,0.0366,0.145424,-22.82,-108.57,-50.189999,21.26
1159645,0.430416,0.081984,0.176656,-34.369999,-99.470001,-40.669998,21.3
1159657,0.49288,0.018056,0.11956,-45.919998,-84.07,-31.290001,21.26
1159668,0.503128,-0.02928,0.054656,-49.560001,-67.900002,-23.59,21.26
1159679,0.494832,-0.132248,0.034648,-42.349998,-58.310001,-14.91,21.23
1159692,0.48068,-0.085888,-0.004392,-34.790001,-49.630001,-6.58,21.24
1159704,0.487024,-0.154208,-0.016592,-30.870001,-39.830002,1.12,21.24
1159715,0.456768,-0.226432,0.032208,-21.98,-32.060001,3.43,21.27
1159727,0.45872,-0.22448,0.09028,-15.96,-27.09,8.33,21.27
1159738,0.474336,-0.219112,0.113216,-14.42,-22.75,13.02,21.27
1159749,0.457256,-0.2806,0.11224,-13.16,-21.42,17.08,21.23
1159762,0.504592,-0.289384,0.145912,-14.42,-17.290001,19.67,21.23
1159773,0.511912,-0.357704,0.153232,-11.55,-16.1,20.299999,21.23
1159785,0.5002,-0.41968,0.174216,-2.52,-17.219999,20.51,21.25
1159797,0.52948,-0.443592,0.218624,3.57,-18.9,21.84,21.25
1159808,0.586576,-0.43432,0.2318,8.82,-19.6,18.48,21.27
1159819,0.591456,-0.413336,0.235216,5.39,-17.290001,16.52,21.27
1159831,0.648064,-0.414312,0.242048,-2.17,-14.56,17.57,21.28
1159843,0.674904,-0.485072,0.24156,-7.42,-10.71,16.450001,21.23
1159855,0.691496,-0.493368,0.295728,-9.45,-7.28,14.77,21.23
1159866,0.690032,-0.576328,0.301096,-6.37,-4.76,11.83,21.28
1159879,0.68564,-0.601704,0.325008,-0.77,-3.43,8.05,21.25
1159890,0.6954,-0.56364,0.356728,4.2,-3.78,6.3,21.25
1159902,0.714432,-0.512888,0.379176,3.36,-2.38,4.97,21.26
1159913,0.730048,-0.478728,0.381616,-2.73,0.42,4.83,21.26
1159925,0.731512,-0.515328,0.3904,-4.13,4.48,3.71,21.28
1159937,0.72468,-0.5246,0.43676,-4.76,6.51,3.85,21.27
1159948,0.700768,-0.535336,0.462624,-2.8,5.88,2.52,21.27
1159960,0.670512,-0.515328,0.472872,0.42,4.48,2.1,21.24
1159972,0.67832,-0.549,0.44896,7.77,4.27,1.26,21.23
1159983,0.70516,-0.515328,0.454816,12.74,5.18,1.68,21.23
1159995,0.736392,-0.491904,0.496296,10.43,7.42,3.64,21.3
1160007,0.731024,-0.471896,0.499712,5.18,9.52,5.04,21.3
1160018,0.720288,-0.515328,0.49288,1.54,10.36,5.53,21.29
1160029,0.711504,-0.568032,0.512888,1.89,9.52,4.48,21.25
1160041,0.718336,-0.576816,0.552416,6.09,7.28,3.22,21.25
1160052,0.727608,-0.49532,0.568032,5.74,5.67,4.69,21.3
1160064,0.736392,-0.491904,0.557296,3.78,6.93,5.32,21.3
1160075,0.72468,-0.493368,0.552416,1.12,7.84,6.37,21.27
1160087,0.710528,-0.474336,0.563152,-2.87,7.35,7.35,21.31
1160098,0.690032,-0.491904,0.55876,-5.95,5.53,8.19,21.31
1160109,0.682712,-0.52948,0.546072,-3.92,3.92,7.84,21.31
1160121,0.672464,-0.50752,0.549976,-2.59,1.89,8.4,21.27
1160132,0.687104,-0.519232,0.563152,-1.89,0.7,8.82,21.27
1160144,0.691984,-0.53436,0.562664,-0.56,0.0,8.75,21.28
1160155,0.691008,-0.533384,0.543632,1.05,-0.7,8.12,21.28
1160167,0.701744,-0.59536,0.50264,4.27,-0.98,6.58,21.27
1160178,0.701256,-0.561688,0.489464,8.33,-0.91,4.97,21.27
1160190,0.696864,-0.52704,0.500688,8.75,-0.49,4.55,21.27
1160201,0.693936,-0.500688,0.51484,4.55,0.28,4.9,21.24
1160213,0.693448,-0.516304,0.50752,0.49,1.54,5.53,21.24
1160225,0.681248,-0.537288,0.506544,1.26,2.17,5.11,21.24
1160236,0.67588,-0.533384,0.512888,3.71,2.03,4.83,21.31
1160248,0.676368,-0.559248,0.508496,8.89,2.45,3.29,21.31
1160259,0.664656,-0.523624,0.510448,12.81,2.73,2.73,21.27
1160270,0.654408,-0.488976,0.506544,12.32,2.73,3.01,21.27
1160282,0.65148,-0.4392,0.503128,5.74,2.24,4.76,21.27
1160293,0.654896,-0.469944,0.479704,1.12,2.66,5.81,21.29
1160305,0.650992,-0.49288,0.465552,0.28,3.5,5.53,21.29
1160316,0.645624,-0.510448,0.465552,0.77,4.41,5.67,21.28
1160327,0.651968,-0.549,0.493368,2.87,5.11,5.39,21.27
1160338,0.643184,-0.509472,0.501664,5.46,4.9,5.46,21.27
1160350,0.63196,-0.503616,0.49044,5.6,4.97,5.46,21.32
1160362,0.620736,-0.376736,0.474824,5.6,5.11,5.74,21.32
1160373,0.614392,-0.489952,0.448472,4.55,5.74,6.23,21.25
1160384,0.620736,-0.487024,0.427488,3.99,7.14,7.28,21.25
1160396,0.621712,-0.49044,0.437736,3.64,9.17,7.84,21.25
1160407,0.612928,-0.453352,0.443592,1.54,10.78,10.01,21.3
1160418,0.613904,-0.479704,0.444568,0.35,13.23,10.85,21.3
1160429,0.59536,-0.475312,0.456768,0.0,13.93,11.9,21.23
1160441,0.580232,-0.490928,0.451888,4.27,14.07,11.9,21.27
1160452,0.567056,-0.441152,0.427976,7.14,13.93,13.02,21.27
1160464,0.582184,-0.477264,0.401136,9.8,15.19,13.86,21.27
1160475,0.593408,-0.455792,0.41724,9.87,17.360001,15.26,21.24
1160486,0.581208,-0.411384,0.449936,7.14,19.389999,17.01,21.24
1160498,0.56852,-0.42456,0.467504,3.29,21.0,17.92,21.25
1160509,0.547536,-0.474336,0.462136,3.08,21.42,18.41,21.25
1160520,0.537776,-0.511912,0.462624,9.24,20.299999,17.99,21.27
1160532,0.539728,-0.517768,0.450912,16.379999,18.690001,18.059999,21.28
1160543,0.574376,-0.504104,0.461648,19.74,19.74,18.9,21.28
1160555,0.592432,-0.468968,0.458232,18.620001,22.610001,20.16,21.25
1160568,0.58072,-0.444568,0.449448,14.7,27.16,21.0,21.25
1160579,0.565592,-0.485072,0.459696,12.95,29.610001,21.209999,21.21
1160590,0.539728,-0.498736,0.471896,15.61,30.799999,20.93,21.21
1160602,0.52948,-0.486048,0.491904,18.76,31.290001,22.4,21.21
1160613,0.550464,-0.481656,0.517768,20.23,33.110001,23.379999,21.23
1160625,0.545096,-0.49044,0.508984,22.469999,35.700001,23.940001,21.23
1160637,0.52216,-0.457256,0.494344,23.1,38.360001,24.85,21.23
1160648,0.492392,-0.425536,0.498736,19.67,40.599998,26.6,21.26
1160660,0.454328,-0.417728,0.521184,15.96,41.09,27.719999,21.26
1160671,0.4636,-0.44408,0.549,15.4,41.439999,30.24,21.26
1160683,0.508496,-0.510936,0.580232,19.18,43.330002,31.780001,21.2
1160695,0.5124,-0.501176,0.595848,22.469999,45.57,32.549999,21.2
1160706,0.497272,-0.489464,0.609024,22.4,48.09,33.18,21.25
1160718,0.455792,-0.515328,0.601704,22.82,49.0,32.060001,21.25
1160729,0.394792,-0.494344,0.601704,21.139999,47.18,30.309999,21.25
1160740,0.349896,-0.519232,0.611952,22.469999,45.360001,28.49,21.23
1160751,0.4026,-0.484584,0.623664,23.030001,46.48,30.52,21.23
1160763,0.433344,-0.474824,0.664656,20.860001,47.950001,31.85,21.27
1160775,0.448472,-0.501176,0.708576,15.68,51.799999,32.549999,21.27
1160786,0.411872,-0.538264,0.730536,17.08,53.27,31.99,21.27
1160797,0.368928,-0.578768,0.735904,21.559999,52.080002,30.59,21.2
1160809,0.321104,-0.543144,0.720776,26.74,49.209999,28.700001,21.2
1160820,0.315736,-0.539728,0.69052,31.92,46.619999,28.0,21.28
1160832,0.357704,-0.5124,0.722728,34.16,46.48,29.75,21.2
1160843,0.410408,-0.472384,0.75396,31.92,49.84,31.639999,21.2
1160855,0.40992,-0.520208,0.79056,24.57,54.599998,31.709999,21.24
1160866,0.35136,-0.5734,0.822768,20.93,55.09,30.799999,21.24
1160877,0.313784,-0.613904,0.845704,23.24,53.900002,27.16,21.25
1160889,0.278648,-0.62952,0.867664,28.35,51.029999,23.450001,21.21
1160901,0.272304,-0.604144,0.877424,34.369999,49.349998,21.84,21.21
1160912,0.279624,-0.564616,0.90036,37.450001,46.900002,22.4,21.25
1160924,0.319152,-0.535824,0.91256,35.84,48.299999,22.049999,21.25
1160935,0.295728,-0.513376,0.915,32.200001,49.700001,21.629999,21.25
1160946,0.267424,-0.530944,0.912072,31.43,49.07,20.02,21.26
1160958,0.235216,-0.528992,0.90768,32.200001,47.18,17.92,21.26
1160969,0.232288,-0.482632,0.92232,29.120001,46.060001,19.25,21.25
1160980,0.261568,-0.527528,0.99552,19.25,46.200001,21.77,21.21
1160992,0.272792,-0.625616,1.036024,17.99,47.25,19.809999,21.21
1161004,0.246928,-0.614392,1.046272,22.190001,46.41,18.9,21.29
1161015,0.225456,-0.614392,1.013088,27.51,44.59,17.219999,21.29
1161027,0.190808,-0.54656,0.986736,30.940001,42.630001,14.98,21.26
1161038,0.1708,-0.524112,0.965752,31.639999,41.509998,13.09,21.26
1161050,0.151768,-0.475312,0.974536,30.24,40.25,12.6,21.26
1161061,0.181536,-0.437736,1.004304,25.620001,40.740002,13.3,21.21
1161073,0.240584,-0.513376,1.014552,19.389999,37.240002,12.11,21.18
1161085,0.221064,-0.48556,1.043832,19.389999,32.060001,11.48,21.18
1161096,0.23424,-0.52216,1.038952,12.53,42.209999,12.18,21.23
1161107,0.11712,-0.583648,1.036512,16.52,38.57,9.87,21.23
1161119,0.077592,-0.559248,1.020896,26.040001,31.780001,11.06,21.25
1161131,0.109312,-0.493368,0.99064,27.02,29.959999,11.2,21.22
1161142,0.122488,-0.458232,0.990152,21.98,29.959999,12.67,21.22
1161154,0.118584,-0.437736,1.001864,15.89,31.709999,14.21,21.25
1161165,0.110776,-0.470432,1.0004,14.63,32.060001,15.05,21.25
1161177,0.09516,-0.462624,1.011624,11.83,30.17,15.82,21.2
1161189,0.100528,-0.491904,1.025776,9.45,28.42,15.82,21.23
1161200,0.101016,-0.52704,1.037488,8.96,27.299999,13.72,21.23
1161212,0.09028,-0.539728,1.03212,11.76,26.25,12.32,21.26
1161224,0.085888,-0.528992,1.026264,16.379999,25.549999,11.34,21.21
1161236,0.067344,-0.46604,1.011136,17.219999,24.15,11.41,21.21
1161247,0.069296,-0.440664,1.00284,13.51,23.17,12.18,21.2
1161259,0.06588,-0.444568,0.997472,8.33,22.82,11.76,21.22
1161270,0.060512,-0.44408,0.99552,2.52,21.35,11.27,21.22
1161281,0.056608,-0.479216,0.997472,0.56,21.42,9.94,21.25
1161293,0.046848,-0.472384,1.018456,-1.89,20.58,10.22,21.25
1161305,0.039528,-0.49776,1.045296,-2.73,19.6,10.15,21.22
1161316,0.032208,-0.52704,1.060424,0.49,18.059999,8.75,21.2
1161328,0.013664,-0.518256,1.068232,5.74,14.56,7.56,21.2
1161340,0.025376,-0.515816,1.062376,8.96,11.27,6.79,21.22
1161351,0.032696,-0.497272,1.0248,11.27,9.52,4.9,21.22
1161362,0.03904,-0.479216,0.984296,10.85,8.68,3.99,21.23
1161374,0.04148,-0.472384,0.970144,8.82,8.82,4.27,21.23
1161386,0.03904,-0.436272,0.987712,5.11,8.19,5.39,21.23
1161397,0.030744,-0.463112,0.987224,2.1,8.05,5.04,21.24
1161409,0.025864,-0.49044,0.972096,2.24,7.7,4.06,21.24
1161421,0.024888,-0.537288,0.97112,6.16,6.44,2.1,21.24
1161432,0.034648,-0.528504,0.97112,9.66,5.25,0.7,21.23
1161444,0.03172,-0.469944,0.958432,10.22,4.97,-0.49,21.23
1161456,0.028304,-0.461648,0.931592,9.73,5.6,-0.63,21.24
1161467,0.030256,-0.40992,0.925736,4.69,6.09,1.05,21.19
1161479,0.025376,-0.454328,0.91744,2.66,7.49,0.35,21.19
1161490,0.01952,-0.467016,0.91256,6.93,7.7,-0.49,21.25
1161502,0.016104,-0.46116,0.917928,9.59,7.49,-0.56,21.26
1161513,0.022448,-0.46604,0.931592,12.11,7.91,-0.77,21.26
1161525,0.028792,-0.425048,0.939888,11.69,8.33,0.14,21.25
1161536,0.016592,-0.42212,0.943792,10.85,9.87,0.0,21.25
1161548,0.023912,-0.445056,0.970632,12.46,11.41,0.21,21.23
1161559,0.00244,-0.431392,0.965264,14.91,9.8,-0.49,21.19
1161571,0.003904,-0.442128,0.958432,17.85,7.77,-0.42,21.19
1161583,0.02684,-0.379664,0.94428,19.040001,8.19,0.07,21.2
1161596,0.027328,-0.37088,0.972584,11.62,9.17,0.84,21.21
1161608,0.015128,-0.379664,1.021384,7.0,8.61,2.87,21.21
1161619,0.043432,-0.347944,0.966728,2.24,10.99,4.97,21.23
1161632,0.032696,-0.420168,0.924272,1.82,13.3,3.64,21.23
1161643,-0.027328,-0.489952,1.02236,0.56,10.85,3.5,21.21
1161654,-0.116632,-0.716872,1.231712,18.129999,6.23,-4.34,21.21
1161666,-0.080032,-0.499712,1.33956,28.209999,-10.43,-7.42,21.21
1161678,0.008784,-0.289872,1.206336,7.77,-14.21,-0.49,21.23
1161690,0.098088,-0.534848,0.942816,6.58,-5.6,-4.2,21.18
1161701,0.01952,-0.453352,0.837408,17.43,-3.85,-6.16,21.18
1161713,0.008784,-0.453352,0.884256,21.559999,-2.94,-5.53,21.22
1161725,-0.12444,-0.437736,0.913048,29.540001,-1.54,-5.74,21.22
1161737,-0.011224,-0.380152,0.918416,28.139999,0.21,-5.53,21.19
1161748,0.002928,-0.396744,0.900848,28.700001,4.13,-6.37,21.25
1161760,-0.035624,-0.296216,0.935496,27.58,2.45,-5.25,21.25
1161771,-0.027328,-0.330864,1.040904,8.26,1.12,-5.81,21.24
1161783,0.000976,-0.486048,1.060424,3.99,3.71,-7.14,21.23
1161795,-0.028304,-0.513376,1.03456,26.530001,3.01,-13.09,21.23
1161807,-0.030256,-0.44408,1.013576,57.259998,-0.49,-14.77,21.24
1161819,-0.015616,-0.265472,1.043344,53.200001,-6.23,-12.88,21.15
1161831,0.01464,-0.233752,1.011136,26.530001,-5.32,-11.13,21.15
1161843,0.013176,-0.32452,0.955504,5.81,-1.4,-9.52,21.24
1161856,-0.0122,-0.309392,0.959896,-7.7,-1.61,-5.95,21.24
1161868,-0.028304,-0.3294,0.954528,-11.83,-2.87,-2.38,21.2
1161880,-0.049288,-0.374784,0.911584,-7.56,-1.47,-2.66,21.24
1161891,-0.040504,-0.36112,0.930128,2.17,-0.7,-5.39,21.24
1161904,-0.02928,-0.345016,0.970632,13.37,-2.24,-5.95,21.23
1161916,-0.020008,-0.367464,0.984296,21.700001,-3.15,-7.07,21.22
1161928,-0.011712,-0.29768,0.987712,20.65,-3.08,-5.88,21.22
1161940,-0.013176,-0.264984,0.955992,11.13,-3.99,-2.94,21.22
1161951,-0.013664,-0.262056,0.955504,5.04,-4.27,-0.84,21.25
1161963,-0.003416,-0.244488,0.960384,-1.12,-3.85,0.91,21.25
1161975,-0.008296,-0.262056,0.969168,-4.06,-3.43,1.54,21.2
1161987,-0.001464,-0.323056,0.963312,-5.25,-2.38,1.75,21.24
1161999,-0.005368,-0.358192,0.96624,-1.33,-1.75,1.05,21.24
1162012,-0.018544,-0.324032,0.940864,1.82,-1.82,1.89,21.21
1162024,-0.020008,-0.311344,0.952576,1.89,-2.24,2.8,21.21
1162035,-0.01952,-0.325984,0.964288,-1.75,-2.38,3.01,21.16
1162048,-0.012688,-0.340624,0.972096,-5.88,-1.89,3.92,21.24
1162060,-0.00732,-0.34404,0.979416,-8.82,-1.4,3.15,21.24
1162071,-0.017568,-0.342088,0.982344,-8.75,-1.47,2.73,21.22
1162083,-0.014152,-0.34892,0.97356,-9.03,-1.54,2.8,21.23
1162095,-0.017568,-0.385032,0.975024,-7.91,-2.1,2.03,21.23
1162107,-0.018056,-0.403088,0.977952,-3.78,-2.94,0.63,21.23
1162119,-0.020496,-0.4148,0.963312,3.57,-3.43,-1.05,21.24
1162131,-0.01952,-0.374296,0.958432,7.56,-4.13,-1.4,21.24
1162144,-0.00976,-0.34892,0.955992,6.65,-3.15,-1.05,21.23
1162156,-0.016592,-0.316224,0.962336,3.08,-2.31,-0.7,21.2
1162167,-0.021472,-0.293288,0.981856,-4.06,-3.22,0.84,21.2
1162179,-0.013176,-0.320616,0.996496,-11.2,-2.8,1.47,21.25
1162191,-0.00732,-0.366488,0.987712,-12.67,-2.38,1.47,21.25
1162203,-0.008784,-0.384056,0.973072,-7.28,-1.96,0.56,21.18
1162215,-0.022448,-0.371368,0.96868,-0.35,-2.24,0.07,21.23
1162227,-0.01464,-0.374296,0.957456,2.52,-2.59,-0.14,21.23
1162239,-0.01464,-0.352824,0.94428,4.27,-2.38,-0.77,21.21
1162250,-0.013664,-0.338672,0.953064,2.1,-2.24,-0.56,21.2
1162262,-0.011224,-0.331352,0.972096,-1.33,-2.1,-0.35,21.2
1162273,-0.014152,-0.33672,0.98088,-3.22,-1.96,0.07,21.21
1162285,-0.017568,-0.33428,0.981856,-3.36,-1.96,0.56,21.21
1162297,-0.022448,-0.33672,0.977464,-4.06,-2.31,1.26,21.22
1162308,-0.020496,-0.341112,0.983808,-5.74,-2.8,1.54,21.17
1162320,-0.01952,-0.332328,0.976488,-8.75,-3.43,1.89,21.17
1162332,-0.011224,-0.3294,0.964776,-13.3,-2.94,2.73,21.23
1162344,-0.001952,-0.350872,0.945744,-16.66,-2.24,3.43,21.2
1162356,-0.001952,-0.376248,0.947696,-15.75,-1.54,3.29,21.2
1162368,-0.007808,-0.418216,0.938912,-8.12,-0.56,1.82,21.22
1162380,-0.023424,-0.435296,0.949648,3.5,-1.12,-0.35,21.19
1162392,-0.02928,-0.371856,0.976976,8.82,-3.29,-1.05,21.19
1162404,-0.01708,-0.345992,0.983808,4.83,-3.43,-1.12,21.25
1162416,-0.008784,-0.321104,0.977464,-2.38,-2.73,-0.63,21.25
1162428,-0.011712,-0.334768,0.957944,-5.95,-2.03,0.07,21.23
1162439,-0.013664,-0.34648,0.935008,-8.05,-1.47,0.98,21.25
1162451,-0.01708,-0.39772,0.930128,-5.67,-1.05,0.21,21.25
1162463,-0.022448,-0.399184,0.92964,-2.17,-0.98,0.0,21.27
1162474,-0.029768,-0.407968,0.939888,3.99,-1.54,-0.77,21.22
1162486,-0.026352,-0.362584,0.961848,6.09,-2.1,-0.63,21.22
1162497,-0.020496,-0.340624,0.972096,4.76,-2.1,-0.7,21.23
1162509,-0.022448,-0.343064,0.96868,2.38,-1.82,-0.56,21.23
1162521,-0.011712,-0.355264,0.955992,-0.77,-1.82,-0.07,21.18
1162532,-0.020984,-0.391376,0.943304,-0.07,-1.89,-0.49,21.22
1162544,-0.01952,-0.38796,0.923784,1.54,-1.89,-0.77,21.22
1162556,-0.015616,-0.384544,0.945256,1.89,-1.89,-1.12,21.22
1162568,-0.01464,-0.386008,0.96624,1.61,-1.75,-1.47,21.15
1162581,-0.020984,-0.360144,0.974048,2.24,-1.75,-1.47,21.15
1162593,-0.02196,-0.346968,0.978928,0.91,-2.38,-1.05,21.22
1162605,-0.013664,-0.364048,0.960384,0.63,-2.59,-1.05,21.21
1162617,-0.003904,-0.357216,0.956968,0.7,-2.24,-0.77,21.21
1162629,-0.009272,-0.352824,0.945256,0.0,-1.26,-0.49,21.23
1162641,-0.011712,-0.364048,0.938424,0.77,-0.63,-1.05,21.21
1162652,-0.0244,-0.359656,0.947208,1.68,-0.56,-0.7,21.21
1162664,-0.02684,-0.354776,0.97112,1.96,-1.33,-0.7,21.25
1162675,-0.020008,-0.362096,0.980392,1.54,-1.96,-0.77,21.25
1162687,-0.002928,-0.362096,0.99064,0.63,-1.4,-0.77,21.23
1162699,-0.004392,-0.36356,0.978928,0.0,-1.05,-0.56,21.18
1162710,-0.013664,-0.352336,0.956968,-0.28,-1.05,0.07,21.18
1162722,-0.016104,-0.329888,0.94916,0.07,-1.33,0.77,21.23
1162734,-0.022936,-0.349408,0.967216,-1.75,-2.1,1.33,21.17
1162746,-0.017568,-0.37088,0.981856,-2.03,-2.87,0.77,21.17
1162758,-0.012688,-0.371856,0.98332,-1.33,-3.01,0.49,21.23
1162770,-0.008784,-0.399672,0.98576,0.7,-3.29,-0.07,21.23
1162782,-0.016104,-0.37088,0.976,3.22,-3.78,-0.35,21.22
1162793,-0.010736,-0.345016,0.956968,3.99,-3.64,0.49,21.22
1162805,-0.004392,-0.345016,0.943304,1.96,-3.5,0.28,21.22
1162817,-0.00732,-0.357704,0.9272,0.49,-2.24,0.0,21.23
1162829,-0.003416,-0.3782,0.913048,0.56,-1.19,-0.14,21.19
1162841,-0.017568,-0.365024,0.950624,-1.19,-1.61,0.21,21.19
1162853,-0.012688,-0.374784,0.977952,-3.15,-1.82,0.35,21.21
1162865,-0.021472,-0.386984,0.980392,-1.12,-1.68,-0.63,21.23
1162877,-0.033672,-0.378688,0.991128,1.68,-3.08,-1.05,21.23
1162890,-0.023424,-0.38064,0.972584,4.34,-3.57,-1.47,21.21
1162901,-0.020984,-0.360632,0.955504,4.97,-3.64,-1.12,21.17
1162913,-0.018544,-0.355264,0.925248,4.76,-2.73,-0.07,21.17
1162925,-0.013664,-0.305488,0.909632,1.75,-2.03,0.91,21.19
1162937,-0.019032,-0.317688,0.952576,-4.06,-1.19,2.03,21.19
1162949,-0.022448,-0.405528,0.970632,-3.71,-0.35,0.7,21.25
1162961,-0.040992,-0.391864,0.97356,0.14,-1.33,0.63,21.2
1162973,-0.042456,-0.404064,0.9638,3.29,-2.17,0.77,21.2
1162984,-0.042944,-0.391864,0.970144,5.53,-2.87,0.35,21.25
1162995,-0.032208,-0.350384,0.963312,6.58,-2.87,-0.07,21.21
1163007,-0.0244,-0.304024,0.959408,1.05,-2.59,1.19,21.21
1163019,-0.020984,-0.376248,0.943304,-2.38,-1.75,0.77,21.2
1163031,-0.02928,-0.420656,0.935496,0.49,-1.19,-0.56,21.2
1163043,-0.040504,-0.391376,0.955016,1.96,-2.1,-0.28,21.21
1163055,-0.034648,-0.372832,0.965264,1.82,-2.38,-0.07,21.2
1163067,-0.034648,-0.362096,0.974536,0.56,-2.24,-0.35,21.2
1163079,-0.027328,-0.374784,0.966728,1.12,-2.31,-1.54,21.21
1163091,-0.026352,-0.353312,0.962336,0.7,-2.66,-1.12,21.25
1163103,-0.011224,-0.3538,0.964776,-3.43,-1.75,-0.77,21.25
1163115,-0.013664,-0.377712,0.948672,-6.23,-0.63,-0.91,21.22
1163127,-0.026352,-0.373808,0.96136,-6.51,-0.49,-0.84,21.23
1163139,-0.024888,-0.391864,0.9638,-5.67,-1.12,-1.33,21.23
1163152,-0.024888,-0.388448,0.943792,-4.69,-1.33,-2.1,21.15
1163164,-0.023424,-0.4392,0.9394,0.07,-0.84,-3.29,21.21
1163176,-0.028304,-0.388448,0.959408,1.82,-1.12,-3.15,21.21
1163188,-0.020984,-0.396744,0.975512,1.68,-0.77,-3.85,21.23
1163200,-0.0366,-0.408944,0.960384,0.14,-0.7,-4.83,21.2
1163212,-0.038552,-0.374296,0.952576,-5.74,-2.73,-1.68,21.2
