timestamp_ms,ax,ay,az,gx,gy,gz,tempC
2208769,0.276208,-0.065880,1.002352,-11.550000,4.480000,2.030000,21.04
2208781,0.290360,-0.052704,1.045784,-19.389999,5.460000,5.670000,21.04
2208792,0.295240,-0.061976,1.052128,-28.280001,4.970000,7.350000,21.04
2208803,0.297192,-0.117120,1.039440,-35.000000,4.690000,8.750000,21.04
2208814,0.291336,-0.206912,0.996496,-32.130001,7.490000,6.300000,21.05
2208825,0.288896,-0.302072,0.940864,-20.790001,9.800000,5.670000,21.02
2208836,0.283040,-0.296216,0.927688,-9.660000,10.990000,4.900000,21.02
2208847,0.270840,-0.268888,0.927200,-1.190000,10.150000,2.800000,21.05
2208858,0.292800,-0.295240,0.936472,5.320000,13.720000,-1.890000,21.05
2208869,0.280112,-0.315248,0.960872,14.980000,11.900000,-4.550000,21.02
2208880,0.291336,-0.274256,0.965264,23.100000,13.860000,-6.230000,21.04
2208891,0.274744,-0.202520,0.982832,19.950001,12.740000,-8.820000,21.04
2208902,0.290848,-0.203008,0.987712,14.210000,12.880000,-9.870000,21.04
2208913,0.287920,-0.249368,0.961360,10.290000,13.790000,-11.690000,21.04
2208924,0.273768,-0.282552,0.953552,10.920000,14.910000,-11.480000,21.05
2208935,0.124928,-0.223016,0.954040,8.610000,15.330000,-12.250000,21.05
2208949,0.229848,-0.217648,0.970632,3.360000,14.630000,-12.040000,21.05
2208961,0.242536,-0.213256,0.994544,2.450000,13.930000,-11.690000,21.05
2208972,0.242536,-0.181536,1.037488,4.830000,12.740000,-11.550000,21.05
2208983,0.242048,-0.140544,1.069696,5.950000,10.780000,-11.060000,21.04
2208994,0.245952,-0.141520,1.085800,8.890000,8.680000,-10.080000,21.02
2209005,0.233752,-0.098576,1.104832,8.890000,6.020000,-8.750000,21.02
2209016,0.232776,-0.093696,1.112152,7.560000,3.570000,-8.120000,21.04
2209027,0.207888,-0.087840,1.116056,7.350000,0.350000,-6.370000,21.04
2209038,0.240584,-0.102480,1.099464,8.400000,-0.980000,-5.950000,21.04
2209049,0.252296,-0.095160,1.042856,8.260000,0.210000,-4.690000,21.06
2209060,0.223016,-0.150792,1.030168,14.000000,-3.080000,-4.970000,21.06
2209071,0.271328,-0.134688,0.976976,22.610001,1.750000,-6.860000,21.09
2209083,0.187392,-0.109800,0.962824,23.240000,-3.780000,-4.900000,21.09
2209094,0.242536,-0.072712,0.983808,20.230000,-2.730000,-4.340000,21.07
2209105,0.236680,-0.086864,1.010648,14.840000,-3.640000,-4.410000,21.06
2209116,0.263520,-0.080032,1.031632,9.730000,-3.360000,-3.010000,21.06
2209127,0.255712,-0.080032,1.030168,3.430000,-4.620000,-2.310000,21.07
2209138,0.255712,-0.118096,1.022848,1.400000,-5.040000,-2.030000,21.07
2209149,0.241560,-0.136640,1.007720,1.960000,-4.970000,-2.450000,21.04
2209161,0.235704,-0.138592,0.986248,3.220000,-4.970000,-2.730000,21.04
2209172,0.240096,-0.151280,0.960872,6.230000,-4.340000,-2.940000,21.04
2209183,0.235704,-0.132736,0.948184,8.190000,-3.150000,-3.290000,21.04
2209194,0.240584,-0.105896,0.939888,6.230000,-2.660000,-3.360000,21.04
2209205,0.249368,-0.134688,0.938912,3.710000,-1.960000,-3.360000,21.07
2209216,0.258152,-0.141032,0.946232,4.060000,-0.980000,-3.080000,21.05
2209227,0.260592,-0.130784,0.955992,3.920000,-0.770000,-2.940000,21.05
2209238,0.264496,-0.125416,0.957944,3.010000,-0.140000,-3.010000,21.01
2209249,0.259128,-0.132248,0.965264,3.220000,-0.140000,-3.290000,21.01
2209261,0.257176,-0.121024,0.976976,2.940000,0.210000,-2.940000,21.06
2209272,0.250344,-0.117120,0.986248,2.660000,-0.070000,-2.590000,21.04
2209283,0.248392,-0.111752,0.993568,2.450000,-0.350000,-2.520000,21.04
2209294,0.245952,-0.105896,0.997960,3.220000,-0.210000,-2.520000,21.05
2209305,0.244488,-0.097600,0.990152,3.570000,-0.070000,-2.520000,21.05
2209316,0.245952,-0.087840,0.985272,3.150000,0.140000,-2.520000,21.07
2209327,0.242536,-0.092232,0.976000,1.750000,0.420000,-1.820000,21.07
2209338,0.242048,-0.105896,0.977464,1.470000,0.770000,-1.330000,21.03
2209349,0.243024,-0.101992,0.985272,1.960000,0.840000,-1.330000,21.09
2209360,0.246928,-0.099064,0.996008,1.960000,0.490000,-0.770000,21.09
2209371,0.252784,-0.099552,1.005280,1.890000,0.070000,-0.420000,21.05
2209382,0.254248,-0.102480,1.013576,2.240000,-0.210000,-0.210000,21.05
2209393,0.243512,-0.086864,1.017480,0.980000,-1.050000,0.350000,21.05
2209404,0.240584,-0.101992,1.019920,-0.140000,-1.540000,0.700000,21.04
2209415,0.234728,-0.114192,1.018456,-0.770000,-2.100000,1.330000,21.04
2209426,0.233264,-0.120048,1.008696,0.210000,-2.380000,1.470000,21.09
2209437,0.230824,-0.112728,1.002352,0.840000,-2.730000,1.190000,21.09
2209448,0.237656,-0.113216,1.000888,1.050000,-2.870000,1.050000,21.06
2209459,0.238144,-0.108336,1.000888,0.910000,-3.010000,0.980000,21.07
2209471,0.240584,-0.110288,0.999424,-0.210000,-3.430000,1.190000,21.07
2209482,0.240096,-0.119560,0.995032,-0.280000,-3.500000,0.980000,21.03
2209493,0.239120,-0.127856,0.984296,0.770000,-3.710000,0.840000,21.03
2209504,0.244488,-0.119560,0.982832,0.490000,-3.780000,0.980000,21.03
2209515,0.239608,-0.124440,0.983808,-0.070000,-3.710000,1.120000,21.04
2209526,0.242048,-0.123952,0.984296,-1.050000,-3.920000,1.120000,21.04
2209541,0.242048,-0.132736,0.991616,-1.330000,-4.060000,0.840000,21.04
2209553,0.242536,-0.131760,0.989664,-0.770000,-4.130000,0.630000,21.03
2209564,0.240584,-0.132248,0.987224,-0.210000,-4.060000,0.280000,21.03
2209575,0.242048,-0.119560,0.986736,-0.070000,-4.130000,0.420000,21.05
2209587,0.243512,-0.126880,0.985760,-0.630000,-4.130000,0.210000,21.05
2209598,0.242048,-0.127856,0.988200,-1.050000,-4.130000,0.420000,21.07
2209609,0.242536,-0.136152,0.991128,-1.820000,-4.270000,0.350000,21.05
2209620,0.239120,-0.137616,0.988200,-1.540000,-4.060000,0.490000,21.05
2209631,0.239608,-0.133712,0.983320,-1.260000,-4.130000,0.140000,21.04
2209642,0.240096,-0.134688,0.976000,-0.700000,-3.990000,0.000000,21.04
2209654,0.240584,-0.133224,0.978440,-0.210000,-3.990000,-0.700000,21.05
2209665,0.244976,-0.123464,0.981856,-0.280000,-3.850000,-0.560000,21.03
2209676,0.243512,-0.115656,0.984784,-1.260000,-4.270000,-0.630000,21.03
2209687,0.247416,-0.119560,0.991128,-2.450000,-4.130000,-0.210000,21.04
2209698,0.244000,-0.125904,0.989664,-2.590000,-4.410000,-0.140000,21.04
2209709,0.244000,-0.130784,0.984784,-2.590000,-4.340000,-0.280000,21.03
2209720,0.247904,-0.142008,0.981368,-1.400000,-4.200000,-0.420000,21.02
2209731,0.250832,-0.135664,0.976000,-0.140000,-4.060000,-0.560000,21.02
2209743,0.252296,-0.128832,0.976000,-0.140000,-3.920000,-0.420000,21.02
2209754,0.253272,-0.132736,0.978928,0.280000,-3.640000,-0.140000,21.02
2209765,0.248880,-0.122976,0.981368,0.140000,-3.570000,0.000000,21.06
2209776,0.247904,-0.122976,0.976488,0.000000,-3.430000,0.350000,21.02
2209787,0.247416,-0.119560,0.973560,0.070000,-3.430000,0.280000,21.02
2209798,0.251320,-0.122976,0.974536,-0.420000,-3.430000,0.140000,21.02
2209809,0.252784,-0.128344,0.976976,-0.420000,-3.150000,0.350000,21.02
2209820,0.254736,-0.128832,0.982832,-0.420000,-3.290000,0.490000,21.10
2209831,0.251320,-0.138104,0.978928,-0.210000,-3.220000,0.490000,21.10
2209842,0.247416,-0.135664,0.984296,0.350000,-3.220000,0.700000,21.02
2209853,0.248880,-0.138592,0.978440,0.630000,-3.290000,0.700000,21.02
2209864,0.245952,-0.135664,0.974048,0.910000,-3.010000,0.770000,21.02
2209875,0.249368,-0.139568,0.971608,1.540000,-2.730000,0.560000,21.05
2209886,0.250832,-0.128344,0.976000,2.100000,-2.730000,0.420000,21.05
2209898,0.251808,-0.126880,0.977952,1.680000,-2.660000,0.630000,21.05
2209909,0.248392,-0.128832,0.978440,1.330000,-2.660000,0.770000,21.03
2209920,0.250832,-0.128344,0.980392,0.770000,-2.660000,0.700000,21.03
2209930,0.247904,-0.134200,0.980880,0.910000,-2.520000,0.630000,21.07
2209941,0.250832,-0.131272,0.976488,0.280000,-2.310000,0.630000,21.07
2209952,0.250832,-0.140056,0.973072,0.420000,-2.030000,0.630000,21.04
2209968,0.249856,-0.137616,0.973072,-0.140000,-1.890000,0.560000,21.04
2209980,0.247904,-0.140544,0.972584,-0.210000,-1.540000,0.700000,21.04
2209991,0.244000,-0.146888,0.970632,0.910000,-1.540000,0.560000,21.10
2210002,0.248392,-0.137616,0.974048,1.260000,-1.470000,0.350000,21.07
2210012,0.250344,-0.133224,0.977464,1.260000,-1.330000,0.490000,21.07
2210024,0.250344,-0.131272,0.981856,0.630000,-1.610000,0.560000,21.04
2210035,0.249368,-0.135664,0.984296,0.490000,-1.610000,0.350000,21.04
2210046,0.248392,-0.135176,0.995032,0.350000,-1.820000,0.070000,21.10
2210057,0.244976,-0.134200,0.990152,0.700000,-1.820000,-0.280000,20.98
2210068,0.244976,-0.136152,0.983320,1.050000,-1.750000,-0.490000,20.98
2210079,0.247416,-0.133224,0.980880,1.260000,-1.540000,-0.630000,21.07
2210090,0.246928,-0.125904,0.983808,0.770000,-1.540000,-0.630000,21.07
2210101,0.244976,-0.125416,0.982832,0.000000,-1.470000,-0.420000,21.10
2210112,0.245464,-0.129808,0.979904,-0.490000,-1.470000,-0.350000,21.09
2210123,0.246440,-0.125904,0.981368,-0.070000,-1.330000,0.000000,21.09
2210134,0.373808,-0.123952,0.983320,-0.140000,-1.540000,0.210000,21.02
2210145,0.251320,-0.134200,0.988688,0.700000,-1.610000,0.280000,21.02
2210156,0.252296,-0.127368,0.988688,1.540000,-1.610000,0.420000,21.08
2210167,0.252784,-0.123464,0.990640,1.470000,-1.890000,0.700000,21.08
2210178,0.244976,-0.122976,0.992104,1.330000,-2.030000,0.630000,21.06
2210189,0.239120,-0.122000,0.993568,1.470000,-2.030000,0.910000,21.07
2210200,0.240584,-0.122488,0.995032,1.050000,-2.380000,0.700000,21.07
2210211,0.245464,-0.131272,0.987712,1.190000,-2.310000,0.840000,21.03
2210222,0.242048,-0.130296,0.978440,1.050000,-2.100000,0.770000,21.03
2210233,0.242048,-0.136152,0.974536,0.770000,-2.030000,0.630000,21.04
2210244,0.246440,-0.140544,0.973072,0.490000,-1.890000,0.490000,21.06
2210255,0.246440,-0.146400,0.983320,0.070000,-1.960000,0.560000,21.06
2210266,0.245464,-0.149816,0.990640,0.420000,-1.890000,0.630000,21.07
2210277,0.244976,-0.142008,0.990152,0.840000,-1.960000,0.490000,21.07
2210288,0.242536,-0.145912,0.988200,1.400000,-2.240000,0.210000,21.10
2210299,0.243024,-0.136152,0.985760,0.630000,-2.310000,0.140000,21.05
2210310,0.243512,-0.135176,0.979904,-0.700000,-2.240000,0.140000,21.05
2210321,0.241560,-0.128832,0.978440,-2.310000,-2.100000,0.490000,21.06
2210332,0.240584,-0.133224,0.979904,-3.290000,-2.030000,0.420000,21.06
2210343,0.244488,-0.135176,0.977464,-3.640000,-1.890000,0.420000,21.05
2210354,0.244976,-0.143960,0.984296,-2.730000,-1.960000,0.070000,21.05
2210365,0.245952,-0.145424,0.988688,-1.540000,-2.100000,-0.140000,21.04
2210376,0.246928,-0.143960,0.996984,-0.490000,-2.170000,0.210000,21.04
2210387,0.242536,-0.138592,1.000888,0.490000,-2.520000,0.000000,21.04
2210398,0.242536,-0.127856,1.000888,0.910000,-2.730000,-0.070000,21.07
2210409,0.242048,-0.123464,1.001864,1.190000,-2.940000,0.000000,21.07
2210420,0.243512,-0.123952,1.001376,1.330000,-3.150000,0.070000,21.05
2210432,0.247904,-0.120536,0.996984,0.840000,-3.430000,0.350000,21.05
2210443,0.242536,-0.129808,0.987712,0.770000,-3.710000,0.490000,21.05
2210454,0.241560,-0.131760,0.983320,1.190000,-3.710000,0.210000,21.08
2210465,0.244488,-0.125416,0.984784,0.770000,-3.710000,0.280000,21.08
2210476,0.244488,-0.129808,0.988200,0.000000,-3.850000,0.350000,21.07
2210487,0.244976,-0.140544,0.982832,-0.070000,-3.640000,0.420000,21.05
2210498,0.247416,-0.146400,0.976000,0.700000,-3.570000,0.210000,21.05
2210509,0.247904,-0.140544,0.972584,1.260000,-3.430000,0.210000,21.03
2210520,0.245464,-0.137616,0.974536,0.910000,-3.220000,0.350000,21.03
2210531,0.243512,-0.140056,0.975024,0.980000,-3.010000,0.350000,21.03
2210542,0.240584,-0.138104,0.974048,1.400000,-2.660000,0.210000,21.01
2210554,0.246440,-0.133224,0.968192,1.120000,-2.310000,0.560000,21.01
2210565,0.248392,-0.131272,0.969656,0.420000,-2.310000,0.490000,21.06
2210576,0.250832,-0.139080,0.977464,0.210000,-2.310000,0.630000,21.06
2210587,0.248880,-0.141032,0.979904,0.700000,-2.520000,0.840000,21.12
2210598,0.249368,-0.140544,0.984296,0.840000,-2.450000,0.980000,21.08
2210609,0.241072,-0.130784,0.982344,-0.140000,-2.380000,0.980000,21.08
2210621,0.238632,-0.152744,0.976976,0.560000,-2.240000,0.490000,21.06
2210631,0.243512,-0.153232,0.979904,1.890000,-2.240000,0.210000,21.06
2210643,0.251320,-0.143472,0.981856,1.960000,-2.100000,0.420000,21.08
2210653,0.246928,-0.144936,0.979904,2.100000,-1.890000,0.490000,21.05
2210664,0.244976,-0.137616,0.980880,1.960000,-2.030000,0.630000,21.05
2210675,0.243024,-0.134200,0.980392,1.680000,-1.890000,0.350000,21.07
2210686,0.240584,-0.137616,0.980880,0.980000,-1.820000,0.210000,21.07
2210698,0.244488,-0.139080,0.984296,0.630000,-1.960000,0.070000,21.09
2210709,0.248880,-0.141520,0.985760,0.700000,-1.890000,-0.070000,21.03
2210720,0.246928,-0.131760,0.982832,0.420000,-1.890000,-0.210000,21.03
2210731,0.244976,-0.143960,0.977952,0.070000,-1.960000,-0.280000,21.07
2210743,0.244000,-0.148840,0.983808,0.420000,-1.960000,-0.280000,21.07
2210754,0.241072,-0.144936,0.988688,1.400000,-1.960000,-0.350000,21.07
2210765,0.242048,-0.134200,0.991128,1.960000,-2.030000,-0.280000,21.05
2210777,0.244000,-0.129320,0.990640,1.540000,-2.170000,-0.140000,21.05
2210789,0.243024,-0.136152,0.981368,1.050000,-1.960000,-0.210000,21.10
2210800,0.241560,-0.139568,0.976976,1.400000,-1.960000,0.070000,21.10
2210811,0.247904,-0.138104,0.975512,1.540000,-1.960000,0.000000,21.03
2210822,0.246440,-0.137616,0.981368,1.820000,-1.890000,-0.070000,21.04
2210833,0.244488,-0.130296,0.980880,1.050000,-1.960000,0.140000,21.04
2210845,0.240584,-0.135664,0.984296,0.490000,-2.100000,0.140000,21.07
2210856,0.239120,-0.140056,0.980392,0.350000,-2.030000,0.210000,21.07
2210867,0.240584,-0.148352,0.985760,0.980000,-1.960000,-0.070000,21.06
2210878,0.244000,-0.139568,0.987712,1.120000,-2.100000,0.000000,21.04
2210889,0.242048,-0.141032,0.986736,0.980000,-2.100000,-0.070000,21.04
2210900,0.242048,-0.138104,0.987712,0.910000,-2.100000,0.000000,21.11
2210911,0.241560,-0.134200,0.986248,0.840000,-2.240000,0.140000,21.11
2210922,0.243024,-0.136640,0.983808,0.980000,-2.380000,0.070000,21.05
2210933,0.243512,-0.134200,0.988688,1.260000,-2.450000,0.070000,20.99
2210944,0.244976,-0.128344,0.988200,1.190000,-2.380000,0.140000,20.99
2210956,0.241560,-0.135664,0.981856,1.190000,-2.380000,0.070000,21.04
2210967,0.240584,-0.136640,0.980880,1.540000,-2.380000,0.140000,21.04
2210982,0.241560,-0.141032,0.976000,2.030000,-2.100000,-0.070000,21.05
2210993,0.247416,-0.145424,0.974048,2.310000,-1.820000,-0.070000,21.05
2211004,0.245464,-0.133224,0.978928,2.100000,-1.820000,0.210000,21.05
2211015,0.241072,-0.133712,0.983320,1.050000,-1.960000,0.350000,21.07
2211028,0.240096,-0.139568,0.989664,0.700000,-1.960000,0.420000,21.04
2211040,0.241072,-0.141032,0.991128,0.560000,-2.100000,0.140000,21.04
2211052,0.242536,-0.143472,0.988688,1.400000,-1.960000,0.000000,21.02
2211065,0.239120,-0.138592,0.988200,1.260000,-2.030000,-0.280000,21.02
2211077,0.244488,-0.139080,0.985272,1.470000,-2.100000,-0.210000,21.02
2211089,0.243024,-0.135664,0.987712,1.120000,-2.240000,-0.070000,21.06
2211100,0.242048,-0.133712,0.991616,0.630000,-2.380000,0.070000,21.06
2211111,0.243512,-0.137128,0.992104,0.210000,-2.450000,-0.070000,21.04
2211123,0.241560,-0.143960,0.987224,0.630000,-2.450000,-0.280000,21.03
2211134,0.242536,-0.140544,0.985760,1.400000,-2.450000,-0.420000,21.03
2211146,0.241560,-0.132248,0.983808,1.260000,-2.660000,-0.560000,21.04
2211158,0.241072,-0.134200,0.989664,0.840000,-2.590000,-0.420000,21.03
2211169,0.240096,-0.124928,0.995032,-0.140000,-2.800000,-0.280000,21.03
2211180,0.238144,-0.132736,0.996496,-0.700000,-2.940000,0.070000,21.07
2211192,0.236192,-0.136152,0.988200,-0.910000,-3.010000,0.490000,21.07
2211203,0.233264,-0.149816,0.974536,-0.350000,-2.800000,1.260000,21.07
2211214,0.238144,-0.127856,0.972584,-0.140000,-2.660000,2.240000,21.05
2211225,0.239608,-0.127856,0.981856,-0.210000,-3.150000,2.590000,21.05
2211237,0.247416,-0.097112,1.010160,-2.730000,-3.710000,3.640000,21.07
2211248,0.242536,-0.077592,1.018456,-10.710000,-4.620000,6.510000,21.07
2211259,0.224968,-0.107848,1.023824,-16.240000,-6.300000,10.080000,21.04
2211270,0.227408,-0.061976,1.016992,-26.389999,-8.330000,15.960000,21.04
2211281,0.212280,-0.037576,1.029192,-40.740002,-11.200000,20.790001,21.04
2211292,0.235704,-0.024400,1.074576,-55.650002,-16.030001,22.260000,21.07
2211305,0.245952,-0.004880,1.104832,-83.510002,-19.040001,29.540001,21.07
2211316,0.231312,0.008784,1.134112,-116.059998,-26.389999,33.880001,21.03
2211327,0.241560,-0.058560,1.140944,-148.889999,-31.360001,35.770000,21.10
2211338,0.227408,-0.259128,1.176568,-163.589996,-38.849998,33.950001,21.10
2211349,0.251320,-0.368440,1.194624,-170.380005,-43.049999,31.080000,21.05
2211360,0.245464,-0.496296,1.194136,-169.889999,-46.830002,27.090000,21.05
2211371,0.217160,-0.467992,1.212680,-194.039993,-51.380001,23.590000,21.06
2211383,0.191784,-0.616832,1.155584,-167.440002,-56.419998,7.420000,21.04
2211395,0.246440,-0.626104,1.027728,-142.660004,-55.720001,-4.060000,21.04
2211406,0.249368,-0.601704,0.915488,-118.160004,-59.570000,-20.440001,21.06
2211417,0.268888,-0.638304,0.861808,-79.239998,-62.090000,-41.230000,21.06
2211429,0.327936,-0.691008,0.756888,-22.190001,-62.090000,-56.349998,21.06
2211440,0.386008,-0.664168,0.764208,35.419998,-60.270000,-66.010002,21.03
2211451,0.416752,-0.542656,0.872056,78.889999,-64.260002,-68.809998,21.03
2211462,0.446520,-0.620248,0.997960,111.370003,-66.709999,-75.389999,21.04
2211473,0.456768,-0.759328,1.138504,168.350006,-88.760002,-75.879997,21.04
2211484,0.441640,-0.587552,1.301008,210.559998,-78.959999,-73.639999,21.07
2211495,0.426024,-0.184464,1.217072,193.690002,-88.059998,-62.509998,21.00
2211506,0.415776,0.323544,1.084824,130.619995,-93.099998,-42.700001,21.00
2211517,0.427976,0.081984,0.826672,60.200001,-91.839996,-28.910000,21.06
2211529,0.471408,0.136152,0.521672,-21.490000,-88.900002,-7.840000,21.06
2211539,0.426024,0.320128,0.159576,-146.649994,-84.839996,12.670000,21.04
2211550,0.404552,0.379664,0.138592,-243.949997,-84.070000,41.509998,21.04
2211561,0.387472,0.394792,0.209352,-333.410004,-80.919998,81.059998,21.04
2211572,0.433832,0.284016,0.350872,-385.209991,-76.720001,104.510002,21.05
2211583,0.510936,0.042456,0.546560,-385.209991,-72.169998,102.830002,21.05
2211594,0.554856,-0.095648,0.699792,-362.739990,-65.730003,116.129997,21.04
2211605,0.562664,-0.375760,0.788120,-323.609985,-62.580002,123.830002,21.07
2211616,0.547048,-0.521672,0.759816,-277.480011,-66.150002,126.980003,21.07
2211627,0.538752,-0.643184,0.609512,-234.570007,-64.190002,127.959999,21.03
2211638,0.501664,-0.673928,0.411384,-185.500000,-57.119999,117.389999,21.03
2211649,0.428464,-0.762256,0.206424,-146.160004,-45.080002,102.480003,21.04
2211660,0.299632,-0.970144,0.040016,-105.980003,-35.700001,78.680000,21.04
2211671,0.236680,-1.436672,-0.100528,-55.509998,-29.190001,44.520000,21.02
2211682,0.211792,-1.722640,-0.110288,16.870001,-29.680000,11.340000,21.08
2211693,0.264984,-1.705560,-0.063928,92.190002,-28.280001,-13.160000,21.08
2211704,0.330376,-1.654320,0.055144,166.880005,-19.740000,-42.419998,21.07
2211716,0.359656,-1.556720,0.235216,217.839996,-10.640000,-69.860001,21.07
2211727,0.377712,-1.421056,0.407480,282.309998,-5.250000,-93.519997,21.04
2211737,0.444080,-1.279536,0.561200,345.239990,1.890000,-118.370003,21.01
2211748,0.441640,-1.067744,0.717848,389.339996,3.290000,-141.050003,21.01
2211759,0.442616,-0.897920,0.807640,445.829987,-1.960000,-152.949997,21.09
2211770,0.418704,-0.715408,0.756888,494.899994,-9.800000,-165.199997,21.09
2211781,0.452376,-0.129320,0.723704,462.910004,-22.610001,-135.309998,21.07
2211792,0.458720,0.276208,0.611464,342.230011,-32.619999,-109.269997,21.02
2211803,0.532896,0.150792,0.445544,190.820007,-27.160000,-90.089996,21.02
2211814,0.495808,0.402112,0.332816,15.680000,-7.420000,-53.900002,21.05
2211825,0.241072,0.666120,0.253760,-122.290001,17.150000,-11.690000,21.05
2211836,0.348432,0.754936,0.386496,-262.359985,2.800000,26.530001,21.05
2211847,0.649040,0.773968,0.619272,-355.109985,29.959999,80.150002,21.05
2211858,0.410408,0.328424,0.804712,-430.500000,-26.180000,113.820000,21.04
2211869,0.763720,-0.062464,0.973072,-449.260010,-12.670000,136.710007,21.06
2211880,0.756888,-0.445056,1.065304,-437.429993,-22.120001,128.589996,21.06
2211891,0.712480,-0.542168,1.018944,-432.529999,-32.410000,136.990005,21.09
2211902,0.720288,-0.799344,0.849608,-393.609985,-35.770000,137.830002,21.09
2211913,0.630496,-0.679784,0.682712,-346.709991,-30.660000,128.940002,21.06
2211924,0.476776,-0.808128,0.374296,-288.399994,-20.440001,107.379997,21.07
2211935,0.385520,-1.197552,-0.056608,-210.070007,-6.930000,67.970001,21.07
2211946,0.297192,-1.606984,-0.376248,-82.180000,-0.840000,20.230000,21.09
2211957,0.270352,-1.844640,-0.420168,47.880001,-5.110000,-7.280000,21.09
2211968,0.369904,-1.679208,-0.300608,138.880005,-8.190000,-48.160000,21.03
2211982,0.394792,-1.601616,-0.024888,212.240005,0.910000,-83.930000,21.07
2211994,0.416752,-1.429840,0.211304,241.850006,6.160000,-116.620003,21.07
2212005,0.400160,-1.186328,0.392840,257.809998,14.700000,-130.199997,21.09
2212016,0.385032,-0.930616,0.542168,280.209991,18.969999,-147.979996,21.07
2212027,0.423096,-0.651480,0.667096,311.220001,23.170000,-156.449997,21.07
2212038,0.428952,-0.384544,0.814960,352.660004,18.410000,-163.660004,21.08
2212049,0.398208,-0.199592,0.901824,427.070007,-17.780001,-158.339996,21.08
2212060,0.470432,-0.081008,0.736880,456.820007,-29.540001,-138.389999,21.11
2212071,0.727120,0.228384,0.533384,381.989990,-25.129999,-110.459999,21.05
2212082,0.725656,0.438712,0.333304,273.140015,-17.010000,-81.410004,21.05
2212093,0.614880,0.734440,0.295728,125.089996,15.050000,-41.299999,21.05
2212104,0.295728,0.923784,0.428952,-37.869999,-3.500000,-8.050000,21.05
2212115,0.330864,1.029680,0.412848,-218.119995,-6.370000,46.759998,21.07
2212126,0.570960,0.883280,0.577304,-327.600006,-0.910000,94.639999,21.07
2212137,0.778360,0.376736,0.694912,-394.869995,-0.980000,130.970001,21.10
2212148,0.861808,-0.116144,0.817400,-412.859985,1.260000,146.300003,21.07
2212159,0.719800,-0.363072,0.918904,-422.309998,-17.430000,159.110001,21.07
2212170,0.729072,-0.645624,0.933544,-410.690002,-29.680000,169.470001,21.03
2212182,0.664168,-0.460184,0.801784,-387.940002,-42.139999,165.550003,21.03
2212193,0.603168,-0.466528,0.597312,-366.239990,-36.330002,149.309998,21.04
2212205,0.454328,-0.921344,0.233264,-309.750000,-19.250000,112.279999,21.09
2212217,0.289872,-1.388848,-0.111752,-193.270004,-17.500000,71.260002,21.09
2212228,0.260104,-1.741672,-0.293776,-55.930000,-23.240000,41.020000,21.08
2212239,0.285968,-1.749480,-0.309392,61.669998,-24.990000,6.930000,21.04
2212250,0.377224,-1.698728,-0.222040,149.729996,-17.430000,-26.320000,21.04
2212262,0.390400,-1.537200,-0.030744,189.000000,-6.930000,-55.860001,21.05
2212273,0.399184,-1.458144,0.140056,209.300003,1.680000,-81.129997,21.05
2212284,0.433832,-1.373232,0.267424,232.399994,13.930000,-96.110001,21.07
2212295,0.415776,-1.192184,0.364536,264.320007,22.190001,-118.790001,21.07
2212306,0.447496,-0.981856,0.503616,298.899994,26.530001,-143.850006,21.07
2212317,0.481168,-0.774944,0.614880,347.760010,31.219999,-141.050003,21.04
2212328,0.403088,-0.570960,0.705160,410.269989,20.160000,-148.399994,21.04
2212338,0.417728,-0.433832,0.700768,473.480011,-3.220000,-140.979996,21.09
2212349,0.491416,-0.059536,0.595848,483.700012,-17.219999,-121.029999,21.09
2212360,0.592920,0.369416,0.556808,392.420013,-20.580000,-97.580002,21.02
2212371,0.678320,0.427488,0.463600,280.489990,-12.460000,-72.519997,21.07
2212382,0.731024,0.667584,0.384056,115.430000,6.790000,-42.349998,21.07
2212393,0.454816,0.729560,0.291336,-47.599998,23.030001,-12.320000,21.10
2212404,0.338672,0.755912,0.478728,-176.399994,6.930000,33.529999,21.10
2212415,0.652456,0.739808,0.588528,-330.750000,17.080000,93.940002,21.07
2212426,0.692960,0.477264,0.763232,-434.000000,10.780000,120.400002,21.02
2212438,0.775920,-0.019520,0.886696,-481.179993,-4.060000,146.229996,21.02
2212449,0.815448,-0.292800,1.004792,-498.890015,-12.810000,162.330002,21.09
2212460,0.857416,-0.504104,0.955992,-496.299988,-14.490000,171.009995,21.09
2212471,0.692472,-0.476288,0.804712,-464.519989,-23.309999,186.270004,21.08
2212482,0.578280,-0.452864,0.555832,-415.239990,-19.180000,152.250000,21.06
2212493,0.433344,-0.629520,0.262544,-341.950012,-8.120000,127.959999,21.06
2212504,0.263032,-1.329800,-0.213744,-220.570007,-7.630000,81.480003,21.07
2212516,0.220088,-1.718248,-0.463112,-25.549999,-15.050000,35.840000,21.07
2212527,0.268888,-1.730448,-0.432368,129.149994,-21.700001,-0.070000,21.09
2212538,0.407480,-1.772904,-0.178608,234.570007,-15.610000,-25.760000,21.07
2212550,0.371368,-1.639192,0.175680,278.109985,-10.010000,-66.010002,21.07
2212561,0.402112,-1.567944,0.397720,277.899994,-0.910000,-77.209999,21.07
2212572,0.370880,-1.423984,0.546560,276.010010,7.070000,-98.209999,21.07
2212583,0.361608,-1.088728,0.639280,268.940002,14.070000,-117.110001,21.08
2212594,0.386008,-1.001376,0.672952,290.989990,18.620001,-131.529999,21.02
2212605,0.393328,-0.846192,0.775432,358.890015,15.680000,-144.619995,21.02
2212616,0.310368,-0.529480,0.888648,407.609985,-7.910000,-147.910004,21.07
2212627,0.424560,-0.462624,0.961848,454.929993,-18.340000,-144.830002,21.07
2212638,0.435784,-0.208864,0.831552,437.359985,-50.959999,-130.199997,21.06
2212649,0.621224,0.575840,0.583160,282.170013,-44.730000,-83.370003,21.06
2212660,0.652944,0.389912,0.243024,154.000000,-38.009998,-58.799999,21.06
2212671,0.787632,0.571448,0.281576,-22.400000,19.040001,-20.160000,21.04
2212682,0.000000,0.798856,0.244488,-207.270004,-27.790001,8.470000,21.04
2212693,0.677832,1.073600,0.505568,-360.429993,-5.670000,71.330002,21.08
2212704,0.698816,0.742248,0.605608,-492.519989,-13.650000,127.120003,21.08
2212715,0.874008,0.150304,0.786656,-536.690002,-14.840000,151.270004,21.08
2212726,0.849120,-0.442128,0.961360,-525.770020,-22.049999,163.309998,21.08
2212737,0.876936,-0.650504,1.028216,-496.649994,-24.430000,165.339996,21.08
2212748,0.772504,-0.607072,0.893040,-442.890015,-31.080000,169.960007,21.05
2212759,0.563152,-0.371368,0.659776,-380.799988,-35.490002,164.360001,21.05
2212770,0.464576,-0.409432,0.208864,-324.660004,-17.500000,128.940002,21.06
2212781,0.310856,-1.302960,-0.417728,-185.080002,-9.380000,75.250000,21.03
2212792,0.234728,-1.754848,-0.703696,8.190000,-13.930000,34.020000,21.03
2212803,0.305000,-1.875384,-0.622200,160.440002,-28.139999,-1.050000,21.06
2212814,0.460184,-1.780712,-0.259616,230.020004,-20.719999,-48.509998,21.06
2212826,0.421632,-1.795840,0.075640,293.230011,-18.059999,-59.430000,21.06
2212837,0.389424,-1.540128,0.347944,323.750000,-14.070000,-80.290001,21.08
2212848,0.402112,-1.403488,0.479216,348.950012,-12.180000,-105.209999,21.08
2212859,0.438712,-1.239032,0.534360,421.260010,-3.850000,-126.489998,21.08
2212870,0.412360,-0.724680,0.675392,475.230011,-17.570000,-144.339996,21.08
2212881,0.342576,-0.431880,0.841312,547.609985,-12.040000,-155.750000,21.06
2212893,0.351848,-0.118096,0.931592,598.849976,-33.389999,-150.779999,21.06
2212904,0.428464,0.309392,0.956968,542.080017,-60.270000,-123.900002,21.06
2212915,0.653920,0.488000,0.835456,408.519989,-68.040001,-101.779999,21.06
2212926,0.845704,0.065880,0.355752,230.089996,-52.009998,-73.150002,21.06
2212937,0.847656,0.106384,0.019032,55.160000,7.910000,-47.810001,21.07
2212948,0.362096,0.725168,0.014152,-152.389999,49.349998,-3.360000,21.07
2212959,0.113216,0.929640,-0.012688,-328.299988,-17.430000,50.959999,21.02
2212970,0.757864,1.101904,0.215208,-511.420013,4.690000,124.739998,21.06
2212981,0.813496,0.320128,0.447496,-580.929993,-1.120000,142.380005,21.06
2212997,0.875960,-0.556320,0.978440,-588.700012,3.220000,163.240005,21.07
2213008,0.776408,-0.734440,1.093120,-582.400024,-15.190000,166.039993,21.05
2213019,0.770064,-0.864248,0.925248,-525.909973,-22.820000,179.619995,21.05
2213030,0.624152,-0.458720,0.743224,-460.109985,-21.910000,158.410004,21.05
2213041,0.528016,-0.599752,0.222040,-388.010010,-1.680000,125.720001,21.05
2213052,0.261568,-1.215120,-0.386008,-235.410004,8.750000,75.599998,21.07
2213063,0.271816,-1.624064,-0.769088,-35.840000,8.330000,24.920000,21.04
2213074,0.308416,-1.659688,-0.651968,127.050003,-2.310000,-5.670000,21.04
2213085,0.467504,-1.688968,-0.484096,238.630005,-3.920000,-37.169998,21.06
2213097,0.447008,-1.484984,-0.043432,280.279999,-0.980000,-72.589996,21.06
2213108,0.448472,-1.450824,0.310856,303.170013,6.930000,-87.639999,21.06
2213119,0.448960,-1.340048,0.509472,325.989990,15.680000,-103.389999,21.04
2213130,0.460672,-1.049688,0.630496,351.959991,24.150000,-119.489998,21.04
2213141,0.456280,-0.831552,0.746640,384.299988,29.750000,-136.080002,21.08
2213152,0.426512,-0.540704,0.826672,439.739990,25.620001,-148.330002,21.08
2213163,0.418704,-0.417240,0.885720,495.390015,12.250000,-150.080002,21.05
2213174,0.423096,-0.194224,0.872544,516.669983,-5.040000,-136.919998,21.06
2213185,0.524112,-0.096136,0.815448,500.220001,-19.950001,-132.440002,21.06
2213196,0.608536,-0.064416,0.639280,419.649994,-27.860001,-113.190002,21.04
2213207,0.610000,0.074176,0.406016,274.190002,-8.820000,-85.540001,21.04
2213218,0.468480,0.507032,0.248392,130.339996,4.480000,-50.959999,21.08
2213229,0.225456,0.747616,0.148840,-54.950001,18.129999,-10.500000,21.05
2213240,0.294264,0.827648,0.343064,-231.910004,5.040000,16.870001,21.05
2213251,0.647088,0.809104,0.445544,-379.750000,13.790000,71.470001,21.09
2213262,0.656360,0.320616,0.676368,-471.660004,7.700000,97.370003,21.09
2213273,0.797880,-0.129320,0.913048,-515.830017,-5.460000,115.290001,21.11
2213284,0.815936,-0.313296,1.091168,-540.820007,-13.300000,123.620003,21.11
2213295,0.807640,-0.404064,1.147776,-555.309998,-18.059999,131.809998,21.07
2213306,0.705648,-0.544608,0.989176,-543.340027,-22.680000,147.210007,21.04
2213317,0.682712,-0.762744,0.746152,-481.880005,-24.850000,136.080002,21.04
2213328,0.651480,-0.768600,0.551928,-400.470001,-19.320000,109.900002,21.07
2213339,0.495808,-0.868640,0.237656,-318.500000,-6.860000,85.750000,21.07
2213351,0.361608,-1.087264,-0.086864,-190.539993,-7.700000,55.650002,21.02
2213362,0.322080,-1.246352,-0.315248,-45.919998,-10.080000,21.490000,21.09
2213373,0.359656,-1.345904,-0.384544,85.959999,-14.070000,-6.020000,21.09
2213385,0.507520,-1.441552,-0.223016,196.839996,-7.490000,-32.410000,21.05
2213396,0.475312,-1.261480,-0.016104,248.710007,-2.450000,-60.270000,21.05
2213407,0.502640,-1.346392,0.221552,286.929993,5.740000,-97.160004,21.09
2213418,0.496296,-1.101416,0.455792,315.769989,12.670000,-97.790001,21.04
2213429,0.470432,-0.942328,0.727120,337.890015,19.320000,-113.820000,21.04
2213440,0.501176,-0.782264,0.729560,365.399994,27.020000,-127.610001,21.11
2213451,0.447008,-0.589016,0.856440,416.989990,17.360001,-134.119995,21.11
2213463,0.395280,-0.441152,0.861320,479.359985,-6.790000,-131.250000,21.06
2213474,0.532896,-0.457744,0.797880,542.849976,-16.309999,-129.570007,21.10
2213485,0.605120,-0.197152,0.595848,535.429993,-35.419998,-113.260002,21.10
2213496,0.632936,0.223992,0.496784,444.220001,-29.959999,-81.970001,21.07
2213507,0.655384,0.341112,0.436272,307.299988,19.670000,-47.250000,21.07
2213518,0.401624,0.624640,0.264984,112.209999,-3.570000,-33.669998,21.09
2213529,0.291336,0.758840,0.367952,-86.730003,0.280000,5.600000,21.05
2213541,0.582672,0.845216,0.333304,-280.630005,18.410000,55.930000,21.05
2213552,0.588528,0.808128,0.426512,-415.450012,3.710000,103.110001,21.08
2213563,0.796904,0.278648,0.707600,-472.709991,-4.270000,133.770004,21.08
2213574,0.892552,-0.019032,0.979416,-502.529999,-2.380000,150.220001,21.04
2213585,0.831064,-0.213256,1.057496,-516.460022,-6.580000,159.529999,21.05
2213596,0.648552,-0.336232,0.997472,-521.780029,-21.490000,166.600006,21.05
2213607,0.629032,-0.569496,0.762256,-493.079987,-21.629999,169.119995,21.07
2213618,0.582184,-0.644648,0.491416,-437.779999,-24.080000,148.820007,21.07
2213629,0.519232,-0.805200,0.233264,-363.579987,-13.300000,121.940002,21.09
2213640,0.364536,-1.163880,-0.094184,-272.369995,-7.700000,90.930000,21.05
2213651,0.259616,-1.363960,-0.295240,-128.520004,-9.450000,54.529999,21.05
2213663,0.229360,-1.622112,-0.367952,20.650000,-14.210000,17.150000,21.05
2213676,0.376248,-1.594296,-0.261568,179.059998,-9.380000,-16.240000,21.05
2213687,0.407968,-1.505480,-0.034160,239.330002,-3.500000,-49.349998,21.05
2213698,0.442128,-1.483032,0.199104,293.859985,2.870000,-86.940002,21.04
2213709,0.466528,-1.406416,0.427000,335.299988,13.510000,-95.059998,21.04
2213720,0.436272,-1.127280,0.580232,366.730011,21.490000,-123.760002,21.05
2213731,0.459208,-0.929152,0.761280,410.899994,26.320000,-139.720001,21.05
2213742,0.415288,-0.758352,0.886208,463.959991,19.809999,-151.619995,21.09
2213753,0.418704,-0.551440,0.893528,518.419983,-1.330000,-150.570007,21.05
2213764,0.492880,-0.510448,0.863272,551.809998,-16.660000,-146.509995,21.05
2213775,0.555344,-0.308904,0.671976,545.580017,-34.020000,-122.639999,21.07
2213786,0.528504,0.321592,0.533872,429.170013,-38.849998,-91.980003,21.07
2213797,0.582184,0.710528,0.320128,278.320007,-19.879999,-57.049999,21.09
2213808,0.562664,0.680760,0.229848,93.940002,8.680000,-43.889999,21.04
2213819,0.163480,0.877912,0.257176,-96.669998,6.300000,-5.180000,21.04
2213830,0.514840,0.989176,0.216184,-289.519989,17.010000,48.439999,21.06
2213841,0.563152,0.869128,0.398696,-405.859985,14.770000,100.169998,21.06
2213851,0.727120,0.479216,0.749080,-489.299988,-2.870000,130.899994,21.05
2213862,0.874496,0.005368,1.029680,-523.599976,-1.190000,150.149994,21.05
2213873,0.841800,-0.142496,1.218536,-546.700012,-10.220000,162.399994,21.05
2213884,0.675880,-0.049288,1.076040,-595.840027,-24.430000,176.259995,21.06
2213895,0.650992,-0.572424,0.682224,-590.869995,-28.420000,176.820007,21.06
2213906,0.602680,-1.027728,0.502152,-531.299988,-27.370001,149.029999,21.10
2213917,0.486536,-1.223904,0.229360,-407.609985,-23.240000,112.629997,21.10
2213928,0.355752,-1.284904,-0.014640,-252.070007,-26.670000,87.290001,21.07
2213940,0.260104,-1.397144,-0.206424,-88.059998,-28.139999,52.570000,21.09
2213951,0.280600,-1.429352,-0.410896,32.130001,-22.120001,9.660000,21.09
2213962,0.325984,-1.526464,-0.441152,157.289993,-17.010000,-27.440001,21.06
2213973,0.381616,-1.519632,-0.241072,245.210007,-9.380000,-56.070000,21.06
2213984,0.414800,-1.455704,0.106872,287.209991,1.750000,-79.169998,21.08
2213995,0.407480,-1.363960,0.218624,303.869995,15.750000,-102.760002,21.10
2214006,0.410896,-1.218536,0.403576,312.339996,25.549999,-118.720001,21.10
2214020,0.409920,-0.935496,0.563640,332.220001,32.270000,-138.880005,21.05
2214031,0.415776,-0.766160,0.690032,370.859985,31.219999,-145.389999,21.07
2214042,0.387472,-0.576816,0.795440,420.420013,10.500000,-146.089996,21.07
2214053,0.500688,-0.400648,0.902312,455.070007,5.250000,-141.539993,21.04
2214064,0.510448,-0.121024,0.863272,452.899994,-14.000000,-124.459999,21.04
2214076,0.545096,0.255224,0.652456,377.510010,-26.600000,-92.750000,21.09
2214087,0.602680,0.676856,0.465064,210.630005,-22.540001,-62.160000,21.06
2214098,1.004792,0.610488,0.223016,15.330000,49.139999,-31.709999,21.06
2214109,0.068320,0.751520,0.147864,-127.680000,-1.120000,5.670000,21.09
2214121,0.555832,0.996984,0.368440,-312.690002,11.690000,59.220001,21.09
2214132,0.649528,0.927688,0.540216,-460.390015,5.600000,109.550003,21.05
2214143,0.792512,0.239120,0.659776,-537.950012,-8.190000,135.729996,21.06
2214154,0.866688,-0.371368,0.920368,-545.580017,-10.360000,160.509995,21.06
2214165,0.834480,-0.608536,1.087752,-526.400024,-13.720000,157.220001,21.04
2214176,0.720288,-0.742736,0.975512,-506.519989,-23.520000,173.250000,21.04
2214187,0.650504,-0.948672,0.668560,-434.910004,-32.759998,161.979996,21.07
2214198,0.656360,-0.863760,0.458720,-339.779999,-16.730000,130.059998,21.07
2214209,0.437248,-0.799832,0.105408,-266.700012,-9.800000,102.550003,21.03
2214220,0.177632,-1.170712,-0.314760,-123.620003,-12.250000,46.200001,21.08
2214231,0.189344,-1.631384,-0.523136,43.820000,-17.639999,15.190000,21.08
2214242,0.316712,-1.794864,-0.527528,194.529999,-17.150000,-21.490000,21.09
2214254,0.392840,-1.740208,-0.245464,251.229996,-7.420000,-54.740002,21.09
2214265,0.359168,-1.600640,0.097600,283.079987,-0.420000,-86.029999,21.01
2214276,0.400648,-1.630408,0.331352,292.390015,15.190000,-99.959999,21.07
2214287,0.357704,-1.293200,0.497760,281.119995,28.350000,-115.500000,21.07
2214298,0.333304,-1.109224,0.602680,277.059998,33.529999,-133.350006,21.09
2214309,0.353800,-1.035536,0.665144,306.950012,32.759998,-144.479996,21.09
2214320,0.343064,-0.757376,0.748592,359.799988,25.480000,-151.619995,21.08
2214331,0.342576,-0.378688,0.813984,417.690002,3.220000,-148.610001,21.05
2214343,0.405528,-0.156648,0.810568,475.230011,-21.770000,-148.259995,21.05
2214354,0.528504,0.194712,0.738344,483.769989,-40.389999,-129.710007,21.07
2214366,0.654408,0.486048,0.621712,407.609985,-45.919998,-104.720001,21.07
2214377,1.100440,0.393816,0.588040,279.790009,9.940000,-82.180000,21.09
2214388,0.414312,0.683688,0.124928,113.400002,-10.290000,-50.889999,21.05
2214399,0.383080,1.009672,0.256688,-103.110001,4.410000,-10.290000,21.05
2214410,0.436272,1.101416,0.232776,-245.559998,6.230000,41.230000,21.04
2214421,0.524112,1.226832,0.341600,-422.589996,0.700000,93.379997,21.04
2214432,0.703696,0.667096,0.391376,-534.940002,-10.780000,126.629997,21.07
2214443,0.928176,-0.102480,0.569496,-566.719971,-1.610000,156.520004,21.04
2214454,0.800808,-0.557296,0.737368,-546.840027,-5.390000,168.490005,21.04
2214465,0.645136,-0.777384,0.873520,-490.630005,-28.420000,169.259995,21.04
2214476,0.689544,-0.768112,0.894504,-429.239990,-42.349998,175.070007,21.04
2214488,0.681248,-0.717360,0.742248,-368.549988,-40.180000,156.029999,21.08
2214499,0.631960,-0.918904,0.523624,-286.790009,-28.980000,138.389999,21.03
2214510,0.379664,-0.847168,0.270352,-220.289993,-26.600000,116.760002,21.03
2214523,0.245952,-1.105320,-0.055632,-113.260002,-28.000000,88.269997,21.09
2214534,0.188856,-1.344928,-0.270840,-12.880000,-27.440001,48.090000,21.09
2214545,0.239608,-1.617232,-0.336720,61.250000,-28.420000,12.950000,21.06
2214556,0.325496,-1.642608,-0.237168,123.059998,-19.530001,-9.870000,21.00
2214567,0.342088,-1.673352,-0.101992,138.740005,-5.320000,-34.930000,21.00
2214578,0.321104,-1.740208,0.004392,146.509995,8.610000,-59.009998,21.11
2214589,0.319640,-1.505968,0.119072,144.339996,18.830000,-79.519997,21.11
2214600,0.331840,-1.325408,0.179584,144.199997,34.580002,-92.610001,21.05
2214611,0.362584,-1.172176,0.252784,191.169998,47.459999,-111.370003,21.04
2214622,0.414800,-0.869128,0.502640,226.869995,54.040001,-128.309998,21.04
2214633,0.404552,-0.664656,0.827648,293.579987,50.119999,-160.369995,21.06
2214644,0.424560,-0.456768,1.075064,376.040009,34.509998,-151.759995,21.06
2214655,0.470432,-0.285480,1.199504,461.790009,13.020000,-156.800003,21.04
2214666,0.600240,-0.055144,1.157536,509.739990,-3.500000,-148.399994,21.03
2214678,0.652944,-0.057584,0.801296,508.690002,-22.959999,-130.690002,21.03
2214692,0.835456,0.074664,0.324520,349.160004,1.400000,-90.580002,21.03
2214705,0.378688,0.607072,-0.088328,107.519997,21.139999,-27.580000,21.05
2214716,0.089304,0.961360,0.139568,-99.190002,-11.620000,7.140000,21.05
2214727,0.440176,1.259040,0.388936,-254.449997,-4.970000,68.949997,21.05
2214739,0.498736,0.903776,0.578768,-396.760010,-9.940000,108.290001,21.05
2214749,0.687592,0.299632,0.693448,-470.609985,-31.219999,134.050003,21.07
2214761,0.769088,-0.330864,0.757864,-493.359985,-36.119999,150.360001,21.05
2214772,0.746640,-0.834968,0.830576,-472.079987,-42.279999,153.020004,21.05
2214783,0.697352,-1.096048,0.886208,-408.309998,-55.509998,155.050003,21.06
2214794,0.693448,-0.997472,0.858880,-344.049988,-66.430000,151.550003,21.06
2214805,0.683688,-0.737856,0.740784,-304.220001,-63.209999,146.789993,21.04
2214816,0.658312,-0.807152,0.569008,-260.540009,-49.279999,122.500000,21.05
2214827,0.506056,-0.734440,0.244000,-201.039993,-33.040001,105.839996,21.05
2214838,0.217160,-0.961360,0.016104,-137.059998,-32.759998,84.070000,21.01
2214849,0.190808,-1.301984,-0.235216,-51.099998,-34.090000,51.099998,21.01
2214860,0.243024,-1.501088,-0.329400,18.620001,-26.670000,16.240000,21.04
2214871,0.312808,-1.564528,-0.324520,88.760002,-17.920000,-12.250000,21.07
2214882,0.373808,-1.606008,-0.241072,131.389999,-1.750000,-31.360001,21.07
2214894,0.353312,-1.564528,-0.112728,148.679993,13.160000,-55.369999,21.07
2214906,0.333792,-1.431304,-0.015616,152.740005,27.650000,-86.449997,21.07
2214919,0.357704,-1.258552,0.073200,167.089996,46.060001,-104.089996,21.07
2214932,0.363560,-1.044808,0.251320,202.440002,57.189999,-123.690002,21.07
2214943,0.441152,-0.914024,0.456280,260.119995,63.419998,-139.440002,21.07
2214954,0.454816,-0.800320,0.672952,341.950012,55.930000,-154.210007,21.08
2214965,0.441640,-0.539240,0.982344,408.450012,38.990002,-164.289993,21.08
2214976,0.427488,-0.313296,1.192672,482.720001,20.160000,-165.690002,21.08
2214987,0.501176,-0.079544,1.294176,546.979980,-6.020000,-158.479996,21.07
2214998,0.628056,-0.030256,1.083360,582.679993,-17.920000,-144.759995,21.07
2215009,0.758352,-0.244000,0.742736,597.520020,-16.870001,-141.610001,21.06
2215023,0.950624,0.066856,0.136152,473.410004,38.220001,-107.800003,20.99
2215034,0.158112,0.670024,-0.005368,259.559998,-10.920000,-45.570000,20.99
2215045,0.356240,1.269776,-0.068320,14.140000,2.940000,-5.530000,21.06
2215056,0.377224,1.350784,-0.003904,-154.839996,10.220000,28.629999,21.06
2215067,0.437248,1.066768,0.193248,-314.649994,6.440000,82.459999,21.05
2215078,0.628056,0.690032,0.394304,-426.720001,-0.910000,105.839996,21.09
2215089,0.791536,0.109800,0.677344,-491.260010,-10.990000,126.699997,21.09
2215101,0.831064,-0.330864,0.842288,-544.250000,-18.900000,147.490005,21.08
2215112,0.717360,-0.669536,0.960872,-552.229980,-35.630001,157.710007,21.08
2215123,0.705648,-0.875472,1.047736,-511.140015,-52.709999,159.880005,21.08
2215134,0.651480,-0.769088,1.016504,-475.230011,-64.260002,155.259995,21.12
2215145,0.700768,-0.767624,0.846192,-446.670013,-49.910000,166.809998,21.12
2215156,0.612928,-0.737856,0.606096,-404.670013,-47.320000,128.589996,21.05
2215168,0.544608,-0.707112,0.289384,-353.640015,-21.070000,112.699997,21.05
2215180,0.253760,-0.992104,-0.040504,-243.179993,-13.930000,79.870003,21.04
2215193,0.186904,-1.258552,-0.375272,-107.309998,-14.630000,45.150002,21.08
2215205,0.256200,-1.484984,-0.492392,36.400002,-11.690000,2.310000,21.08
2215216,0.380640,-1.620160,-0.475312,148.259995,0.000000,-27.510000,21.08
2215229,0.436272,-1.460584,-0.292800,216.649994,18.480000,-54.459999,21.09
2215242,0.427976,-1.324920,0.007808,248.009995,29.330000,-90.230003,21.09
2215253,0.450424,-1.311744,0.205936,270.410004,45.080002,-104.860001,21.06
2215264,0.418216,-1.145336,0.435296,298.619995,54.529999,-125.510002,21.07
2215275,0.407968,-0.932568,0.676368,343.000000,53.900002,-143.850006,21.07
2215286,0.387472,-0.793976,0.862784,411.529999,39.619999,-155.259995,21.06
2215298,0.473848,-0.566568,1.118984,483.350006,25.549999,-158.410004,21.06
2215310,0.460184,-0.351848,1.196576,540.539978,-3.500000,-159.039993,21.09
2215322,0.621712,-0.217160,1.115080,586.950012,-26.600000,-146.720001,21.11
2215333,0.611952,-0.084424,0.734440,567.419983,-39.270000,-130.339996,21.11
2215344,1.076040,0.028304,0.480192,429.799988,11.340000,-106.959999,21.09
2215356,0.208376,0.939400,0.215696,185.080002,-29.820000,-58.169998,21.09
2215367,0.288408,1.051640,0.103944,-44.520000,-22.610001,-19.530001,21.09
2215378,0.433832,1.057984,0.049288,-204.119995,4.900000,26.459999,21.04
2215389,0.461160,1.201456,0.110288,-387.380005,-2.940000,76.930000,21.04
2215400,0.699304,0.664656,0.299144,-501.059998,-16.660000,109.269997,21.05
2215411,0.895968,0.086376,0.678808,-545.719971,-19.809999,138.110001,21.05
2215422,0.896944,-0.386008,0.965752,-537.109985,-23.660000,150.149994,21.06
2215433,0.829112,-0.456280,1.128256,-505.750000,-36.330002,160.160004,21.04
2215444,0.678320,-0.315736,1.084824,-492.799988,-58.799999,160.789993,21.04
2215456,0.725656,-0.499224,0.852536,-471.799988,-57.259998,161.419998,21.05
2215467,0.696376,-0.649040,0.604144,-433.649994,-38.500000,160.369995,21.05
2215478,0.578768,-0.566080,0.321592,-373.869995,-25.059999,128.940002,21.07
2215489,0.343064,-0.840336,-0.003904,-283.570007,-16.590000,106.680000,21.07
2215500,0.271816,-1.159976,-0.261080,-157.919998,-17.010000,72.940002,21.07
2215512,0.300608,-1.466440,-0.504592,-16.030001,-14.980000,34.020000,21.07
2215523,0.346480,-1.505480,-0.522648,96.320000,-13.720000,2.450000,21.07
2215534,0.442128,-1.542568,-0.342576,153.509995,-6.230000,-24.709999,21.07
2215545,0.439200,-1.571848,-0.103944,187.110001,7.910000,-49.560001,21.09
2215559,0.402600,-1.486448,0.127856,193.970001,23.520000,-79.169998,21.09
2215570,0.385520,-1.409832,0.233752,211.679993,32.970001,-99.190002,21.10
2215581,0.378200,-1.234152,0.322080,244.789993,40.180000,-115.080002,21.07
2215592,0.388936,-1.094584,0.478728,305.829987,39.970001,-139.020004,21.07
2215603,0.394792,-0.945256,0.605608,387.380005,35.700001,-152.949997,21.05
2215614,0.477752,-0.763720,0.760792,470.470001,25.760000,-163.940002,21.05
2215626,0.514352,-0.644160,0.819352,547.960022,2.380000,-172.059998,21.09
2215637,0.572424,-0.372344,0.886208,591.780029,-14.910000,-163.380005,21.04
2215648,0.593408,0.321592,1.003328,548.520020,-25.900000,-140.770004,21.04
2215659,0.851560,0.527528,0.774456,425.459991,-4.340000,-157.710007,21.03
2215670,0.309392,0.512400,0.583160,246.050003,-42.279999,-101.500000,21.03
2215681,0.448472,0.831552,0.235704,83.580002,-6.020000,-49.419998,21.05
2215692,0.385520,0.903288,-0.068320,-105.489998,4.270000,-11.340000,21.03
2215703,0.438224,1.238056,-0.081984,-279.089996,2.800000,38.430000,21.03
2215714,0.670024,1.062376,0.168360,-398.579987,-3.500000,85.680000,21.05
2215725,0.816912,0.447496,0.555832,-451.640015,-6.370000,122.220001,21.05
2215736,0.894992,-0.094184,0.967704,-460.179993,-9.940000,137.270004,21.07
2215747,0.855464,-0.318664,1.125328,-446.250000,-25.129999,153.020004,21.07
2215758,0.805200,-0.261080,1.169248,-439.809998,-37.939999,156.169998,21.07
2215769,0.733952,-0.288408,1.011136,-441.910004,-52.220001,156.589996,21.07
2215780,0.774456,-0.476776,0.854000,-429.519989,-42.209999,167.580002,21.07
2215791,0.642696,-0.518256,0.576328,-394.100006,-35.419998,148.889999,21.09
2215802,0.537776,-0.555344,0.322568,-345.589996,-27.650000,133.699997,21.09
2215813,0.383080,-0.879376,0.081984,-264.320007,-24.709999,111.510002,21.09
2215824,0.301096,-1.078968,-0.162504,-181.860001,-29.120001,81.760002,21.05
2215835,0.317200,-1.327848,-0.284504,-63.630001,-28.910000,47.669998,21.05
2215846,0.360632,-1.477664,-0.277184,43.400002,-26.879999,24.430000,21.08
2215857,0.401624,-1.568432,-0.201544,116.480003,-19.670000,-2.520000,21.08
2215868,0.426512,-1.565504,-0.050752,146.509995,-7.840000,-25.410000,21.07
2215879,0.398696,-1.465952,0.065880,148.539993,0.770000,-50.889999,21.02
2215890,0.409920,-1.473760,0.118096,163.589996,12.530000,-69.230003,21.02
2215901,0.408944,-1.312720,0.169824,184.100006,20.299999,-89.389999,21.04
2215912,0.427976,-1.122400,0.260592,225.399994,27.230000,-108.639999,21.04
2215923,0.447008,-1.024800,0.418216,299.739990,29.400000,-126.769997,21.11
2215934,0.486048,-0.833992,0.615368,371.769989,27.440001,-145.320007,21.11
2215944,0.491904,-0.626104,0.825696,450.309998,15.820000,-160.789993,21.05
2215955,0.523624,-0.593896,0.947696,525.909973,-6.580000,-167.580002,21.04
2215966,0.607072,-0.503616,0.967704,584.849976,-19.250000,-162.820007,21.04
2215977,0.593408,-0.034160,0.901824,558.880005,-32.689999,-137.619995,21.04
2215988,0.560224,0.369416,0.787144,418.040009,-24.360001,-140.490005,21.04
2215999,0.324520,0.193248,0.600240,297.149994,-55.230000,-99.959999,21.11
2216010,0.655872,0.565592,0.160552,87.080002,-21.559999,-52.150002,21.01
2216021,0.405528,0.714432,-0.205936,-128.520004,7.770000,-29.959999,21.01
2216032,0.419192,0.925248,-0.224968,-317.799988,1.820000,25.830000,21.05
2216043,0.672464,0.953552,0.088816,-458.079987,-3.080000,82.459999,21.05
2216055,0.826184,0.237656,0.510936,-506.660004,-8.680000,115.849998,21.10
2216066,0.929152,-0.191296,0.945256,-503.579987,-11.060000,141.119995,21.04
2216077,0.874496,-0.205448,1.214144,-497.489990,-20.510000,150.779999,21.04
2216088,0.877424,-0.105896,1.188280,-506.589996,-29.049999,160.860001,21.05
2216099,0.778360,-0.223016,0.997960,-489.160004,-26.740000,160.440002,21.05
2216112,0.693448,-0.246440,0.660752,-434.070007,-24.080000,169.679993,21.09
2216124,0.624152,-0.557296,0.258640,-353.220001,-17.639999,130.970001,21.10
2216135,0.470920,-0.838872,-0.111264,-233.729996,-9.170000,105.349998,21.10
2216146,0.360632,-1.145824,-0.350384,-98.699997,-14.420000,70.070000,21.07
2216157,0.364536,-1.396656,-0.413824,23.100000,-24.709999,40.180000,21.07
2216168,0.410896,-1.460096,-0.228384,97.089996,-29.750000,15.050000,21.09
2216179,0.474824,-1.515728,0.015128,136.570007,-19.740000,-2.590000,21.03
2216190,0.445544,-1.491816,0.180072,124.459999,-9.870000,-22.889999,21.03
2216202,0.417240,-1.520608,0.246928,101.989998,2.450000,-40.810001,21.09
2216213,0.405528,-1.422032,0.190320,91.070000,14.350000,-53.970001,21.09
2216224,0.382104,-1.248792,0.084912,106.260002,20.719999,-71.120003,21.09
2216235,0.419192,-0.970632,0.047336,153.649994,32.480000,-85.750000,21.07
2216246,0.429440,-0.854000,0.116632,220.779999,36.820000,-110.110001,21.07
2216257,0.508984,-0.827160,0.337696,341.179993,40.950001,-132.160004,21.09
2216268,0.513376,-0.784216,0.635864,475.089996,26.250000,-151.130005,21.09
2216279,0.553880,-0.659288,0.865224,603.539978,4.690000,-165.899994,21.07
2216290,0.619272,-0.292800,1.005280,662.619995,-10.640000,-161.559998,21.08
2216301,0.960872,0.050264,1.101904,636.929993,11.200000,-161.350006,21.08
2216312,0.408944,0.083448,0.967704,576.169983,-47.880001,-142.589996,21.06
2216323,0.661728,-0.100528,0.684176,485.309998,-39.410000,-105.139999,21.06
2216334,0.710040,0.648552,0.223992,260.190002,-8.260000,-68.180000,21.06
2216345,0.304512,0.825696,-0.044408,39.619999,3.710000,-30.030001,21.04
2216357,0.436272,1.163880,-0.050752,-193.130005,8.610000,17.639999,21.04
2216368,0.613904,1.182912,0.052704,-373.029999,6.790000,68.669998,21.07
2216379,0.706136,0.588528,0.381616,-473.339996,-1.400000,104.300003,21.07
2216390,0.829112,0.034648,0.763232,-494.970001,-6.720000,126.279999,21.05
2216401,0.832040,-0.187880,1.026264,-499.309998,-13.370000,138.110001,21.06
2216412,0.804712,-0.282064,1.065792,-496.649994,-17.850000,143.500000,21.06
2216423,0.685640,-0.476288,0.970144,-480.760010,-32.270000,146.509995,21.09
2216434,0.702720,-0.582672,0.715896,-449.609985,-26.809999,157.220001,21.09
2216446,0.663680,-0.727120,0.487512,-396.619995,-23.870001,126.980003,21.09
2216458,0.579744,-0.769576,0.356240,-338.450012,-19.879999,115.430000,21.11
2216469,0.496296,-0.799832,0.170312,-279.579987,-19.320000,101.360001,21.11
2216480,0.407968,-0.944280,0.068320,-208.949997,-17.430000,87.709999,21.07
2216491,0.357704,-1.037000,-0.036112,-151.619995,-15.750000,63.279999,21.07
2216502,0.377712,-1.214632,-0.125416,-73.989998,-12.110000,39.270000,21.08
2216513,0.416264,-1.361520,-0.185440,11.830000,-6.160000,17.150000,21.05
2216524,0.475312,-1.404464,-0.190808,82.949997,3.570000,-8.820000,21.05
2216535,0.486536,-1.437160,-0.116632,126.139999,14.350000,-32.830002,21.05
2216548,0.466528,-1.379576,-0.025864,171.639999,24.500000,-56.630001,21.05
2216559,0.468968,-1.321016,0.055144,213.570007,35.700001,-76.230003,21.07
2216570,0.470920,-1.260992,0.152744,260.190002,43.119999,-104.650002,21.08
2216581,0.495320,-1.164368,0.304024,337.750000,51.310001,-119.839996,21.08
2216593,0.500688,-0.967216,0.526552,422.239990,50.119999,-142.240005,21.08
2216603,0.450424,-0.720288,0.671488,498.329987,34.160000,-158.270004,21.08
2216614,0.442128,-0.476288,0.827648,556.010010,6.510000,-168.770004,21.07
2216625,0.757376,-0.272792,0.921832,593.809998,21.070000,-174.229996,21.03
2216636,0.297192,0.151280,0.852536,558.460022,-36.189999,-159.669998,21.03
2216647,0.561200,0.343552,0.841312,435.959991,-35.139999,-114.870003,21.06
2216658,0.665632,0.631472,0.625616,280.630005,-28.559999,-91.559998,21.06
2216669,0.536312,0.745176,0.477264,69.930000,-7.980000,-68.599998,21.05
2216680,0.339648,0.970144,0.337208,-118.230003,2.660000,-15.610000,21.05
2216691,0.511424,1.089704,0.359168,-326.549988,4.550000,41.580002,21.08
2216701,0.710528,0.918904,0.505568,-473.619995,3.920000,81.269997,21.04
2216712,0.832040,0.330864,0.766160,-534.099976,-3.920000,113.820000,21.04
2216723,0.848632,-0.000976,1.016504,-555.030029,-10.010000,135.800003,21.07
2216734,0.829600,-0.109312,1.102392,-563.429993,-19.320000,139.160004,21.07
2216745,0.803248,-0.261568,1.064328,-559.580017,-22.049999,149.240005,21.07
2216756,0.698816,-0.414800,0.793976,-526.119995,-24.639999,144.479996,21.00
2216767,0.604144,-0.522648,0.498248,-451.779999,-25.270000,140.630005,21.00
2216778,0.601216,-0.741272,0.256688,-338.799988,-21.980000,106.820000,21.08
2216789,0.517280,-0.820816,-0.021960,-236.600006,-14.560000,78.820000,21.08
2216800,0.400160,-1.013088,-0.256200,-102.690002,-17.850000,35.910000,21.08
2216811,0.427000,-1.199016,-0.308904,24.080000,-20.299999,23.450001,21.04
2216822,0.603656,-1.273192,-0.217648,101.220001,-20.090000,-3.290000,21.04
2216833,0.549976,-1.359568,-0.039528,167.440002,-13.930000,-23.240000,21.05
2216844,0.517768,-1.317112,0.122000,195.789993,-7.000000,-39.130001,21.05
2216855,0.523136,-1.312720,0.213744,212.449997,5.110000,-60.340000,21.05
2216866,0.513376,-1.188768,0.306464,237.649994,14.210000,-72.730003,21.05
2216876,0.486536,-1.073112,0.341112,283.359985,24.430000,-84.699997,21.10
2216888,0.498248,-0.781776,0.486048,337.049988,32.200001,-101.919998,21.04
2216900,0.433344,-0.649528,0.631960,410.059998,22.889999,-119.629997,21.04
2216911,0.532896,-0.424072,0.764208,460.950012,33.810001,-141.610001,21.09
2216922,0.426512,-0.394304,0.897432,520.380005,-12.810000,-136.779999,21.09
2216934,0.663680,-0.282552,0.838872,532.630005,-10.710000,-117.809998,21.12
2216946,0.646600,-0.191296,0.805200,494.339996,-17.709999,-112.489998,21.05
2216957,0.591456,0.276208,0.644648,340.269989,-7.350000,-74.480003,21.05
2216969,0.530944,0.512888,0.403088,122.430000,-1.120000,-39.340000,21.09
2216979,0.348432,0.538752,0.249856,-100.169998,10.640000,-13.860000,21.07
2216991,0.462624,0.725656,0.200568,-323.260010,10.570000,40.389999,21.07
2217002,0.606096,0.711016,0.432856,-462.140015,-4.060000,95.900002,21.04
2217013,0.741272,0.084424,0.833992,-541.030029,-15.120000,130.970001,21.04
2217023,0.898408,-0.354288,1.232688,-542.570007,-15.680000,147.139999,21.06
2217034,0.825696,-0.378688,1.363960,-536.760010,-26.180000,147.210007,21.06
2217045,0.774456,-0.436760,1.390312,-526.750000,-36.470001,161.910004,21.05
2217056,0.677832,-0.097600,1.201456,-522.549988,-37.660000,171.990005,21.07
2217073,0.618296,-0.432856,0.359656,-462.140015,-18.129999,127.820000,21.05
2217084,0.494832,-0.961360,-0.343552,-292.040009,-0.910000,80.290001,21.05
2217096,0.381616,-1.362984,-0.829600,-60.900002,-2.870000,35.490002,21.08
2217107,0.396256,-1.370792,-0.746640,125.790001,-16.379999,0.770000,21.08
2217118,0.536800,-1.448872,-0.454328,230.509995,-16.870001,-30.870001,21.05
2217130,0.491416,-1.284904,-0.014640,277.760010,-15.820000,-48.509998,21.05
2217141,0.521184,-1.376160,0.290360,276.920013,-7.350000,-68.459999,21.05
2217152,0.467504,-1.305400,0.413336,261.029999,3.920000,-81.199997,21.03
2217163,0.466528,-1.079456,0.484096,241.570007,18.129999,-92.400002,21.03
2217174,0.409432,-0.984296,0.424072,260.260010,25.969999,-103.040001,21.06
2217187,0.455304,-0.596824,0.429440,333.619995,33.389999,-108.849998,21.07
2217199,0.300120,-0.277184,0.559248,410.829987,15.610000,-150.710007,21.07
2217211,0.577792,-0.232288,0.812520,494.970001,10.010000,-146.229996,21.07
2217222,0.660752,-0.196664,0.917440,568.539978,1.050000,-150.919998,21.09
2217234,0.643672,-0.057584,0.982344,582.820007,-13.510000,-145.740005,21.09
2217247,0.631472,-0.142984,0.839360,534.380005,-36.750000,-121.379997,21.09
2217259,0.693448,0.200080,0.729560,364.209991,-18.969999,-97.370003,21.10
2217271,0.464088,0.651480,0.466040,138.039993,1.120000,-64.120003,21.10
2217283,0.278160,0.859856,0.142496,-111.160004,11.410000,-7.000000,21.09
2217295,0.448472,1.032120,0.023912,-343.559998,13.160000,44.310001,21.09
2217307,0.633424,0.979416,0.267912,-538.299988,7.700000,93.870003,21.10
2217318,0.782264,0.358192,0.622200,-635.320007,1.190000,114.239998,21.08
2217328,0.860344,-0.266448,0.915976,-654.989990,-1.050000,132.089996,21.08
2217339,0.782752,-0.446520,1.187304,-645.330017,-14.770000,136.220001,21.07
2217350,0.767624,-0.358192,1.203408,-634.760010,-28.070000,144.130005,21.07
2217361,0.747128,-0.531432,1.098976,-582.679993,-29.959999,152.529999,21.11
2217372,0.646600,-0.477264,0.854488,-519.260010,-31.430000,149.380005,21.04
2217383,0.637816,-0.387960,0.519720,-417.200012,-22.750000,144.410004,21.04
2217394,0.504592,-0.554368,0.221552,-283.989990,-14.700000,100.730003,21.05
2217405,0.407968,-0.880352,-0.239120,-153.160004,-10.220000,64.190002,21.05
2217417,0.407480,-1.085800,-0.471408,12.320000,-16.450001,27.090000,21.09
2217428,0.487512,-1.188768,-0.352336,134.889999,-24.010000,0.560000,21.09
2217439,0.566568,-1.273192,-0.094184,200.619995,-24.150000,-16.450001,21.09
2217450,0.556320,-1.262456,0.231312,206.009995,-15.190000,-35.630001,21.06
2217461,0.520696,-1.372256,0.407968,201.669998,-7.210000,-61.459999,21.06
2217471,0.478240,-1.272704,0.457744,183.610001,5.460000,-63.770000,21.07
2217482,0.429928,-1.134112,0.410896,181.300003,15.120000,-75.879997,21.07
2217493,0.460184,-1.031632,0.324032,224.350006,24.500000,-92.750000,21.09
2217505,0.442616,-0.755424,0.384056,306.529999,35.490002,-118.510002,21.08
2217516,0.513376,-0.722728,0.578280,396.200012,24.290001,-137.199997,21.08
2217527,0.600240,-0.871568,0.682712,503.790009,20.090000,-151.479996,21.05
2217538,0.611952,-0.881328,0.757864,591.080017,0.700000,-167.649994,21.05
2217549,0.531920,-0.690520,0.790560,643.580017,-20.930000,-153.860001,21.04
2217560,0.557784,-0.207400,0.861808,579.460022,-22.959999,-136.570007,21.05
2217571,0.547048,0.110776,0.826184,408.660004,-13.300000,-114.800003,21.05
2217582,0.264008,0.451400,0.533384,243.880005,-8.330000,-80.849998,21.09
2217593,0.273280,0.866688,0.205936,10.990000,-3.990000,-47.880001,21.09
2217604,0.363072,1.037000,-0.003416,-210.210007,1.470000,-7.910000,21.04
2217615,0.569984,1.015040,0.066856,-347.899994,4.270000,45.919998,21.09
2217626,0.672952,0.883280,0.447984,-479.709991,-3.220000,82.809998,21.09
2217638,0.794464,0.156160,0.881816,-539.770020,-12.390000,112.209999,21.08
2217648,0.890112,-0.190320,1.159976,-539.210022,-17.570000,125.790001,21.08
2217660,0.873032,-0.265960,1.341024,-525.349976,-28.700001,143.080002,21.08
2217671,0.842776,-0.297192,1.246840,-502.739990,-33.950001,148.470001,21.08
2217682,0.825696,-0.358192,0.968192,-451.850006,-30.590000,151.479996,21.08
2217694,0.644648,-0.100528,0.668072,-421.190002,-34.720001,148.470001,21.07
2217704,0.664168,-0.357216,0.314760,-365.890015,-22.680000,130.339996,21.07
2217716,0.479704,-0.633912,-0.104920,-288.329987,-9.870000,98.139999,21.05
2217727,0.365024,-1.055544,-0.388448,-149.660004,-12.950000,59.639999,21.04
2217738,0.402112,-1.241960,-0.395768,4.760000,-17.850000,33.459999,21.04
2217749,0.497760,-1.354688,-0.277672,129.429993,-16.100000,4.200000,21.08
2217760,0.551928,-1.335656,-0.057096,196.000000,-6.860000,-22.120001,21.08
2217771,0.537288,-1.289784,0.143960,228.199997,-0.420000,-45.919998,21.06
2217782,0.512400,-1.338096,0.231312,259.420013,8.960000,-62.930000,21.07
2217793,0.502152,-1.163880,0.336232,300.929993,14.070000,-81.830002,21.07
2217803,0.619272,-0.867176,0.538264,356.929993,30.520000,-100.379997,21.03
2217814,0.324032,-0.591456,0.595848,427.630005,7.000000,-128.729996,21.03
2217825,0.602192,-0.483120,0.771040,500.220001,11.760000,-140.630005,21.05
2217836,0.600240,-0.322568,0.981368,583.169983,14.000000,-155.190002,21.05
2217846,0.596824,-0.429440,1.012600,669.270020,-2.240000,-163.869995,21.05
2217857,0.607560,-0.386008,0.853024,698.669983,-18.549999,-141.050003,21.05
2217868,0.711016,-0.316224,0.796416,653.940002,-18.620001,-131.600006,21.05
2217879,0.582672,0.148352,0.676856,491.329987,-6.300000,-107.870003,21.07
2217890,0.336232,0.894504,0.434808,281.260010,-2.800000,-58.869999,21.07
2217901,0.244488,1.100928,0.215208,12.950000,-0.630000,-26.180000,21.07
2217912,0.345504,1.169736,0.089792,-235.130005,17.709999,21.420000,21.07
2217922,0.517768,1.052128,0.113704,-394.239990,17.500000,72.169998,21.04
2217933,0.652456,0.686616,0.350872,-513.169983,10.360000,104.300003,21.05
2217944,0.767624,0.122000,0.825696,-551.039978,-0.280000,125.790001,21.05
2217955,0.846192,-0.155672,1.198528,-568.960022,-6.230000,157.990005,21.05
2217966,0.791536,-0.332328,1.353712,-568.260010,-21.420000,153.860001,21.05
2217977,0.752496,-0.354776,1.285880,-558.179993,-31.570000,165.199997,21.06
2217987,0.734928,-0.565592,1.035048,-514.849976,-37.029999,161.000000,21.06
2217998,0.644160,-0.397232,0.783240,-477.679993,-31.639999,154.490005,21.06
2218009,0.565592,-0.290360,0.449936,-461.859985,-27.650000,133.770004,21.05
2218020,0.533384,-0.618296,0.008784,-404.880005,-13.160000,105.629997,21.05
2218031,0.345016,-0.982344,-0.284504,-279.579987,-3.570000,71.820000,21.09
2218042,0.322080,-1.220000,-0.444080,-148.119995,-3.430000,34.720001,21.09
2218053,0.345992,-1.334680,-0.395280,12.460000,-3.220000,0.980000,21.01
2218064,0.466528,-1.359080,-0.247416,149.589996,1.960000,-19.809999,21.05
2218076,0.513376,-1.260016,-0.013176,232.820007,9.310000,-45.919998,21.05
2218093,0.531432,-1.177544,0.340136,314.230011,16.100000,-87.290001,21.06
2218104,0.501664,-1.017968,0.604144,358.750000,17.990000,-100.379997,21.09
2218115,0.520208,-0.837896,0.775432,410.690002,20.580000,-116.339996,21.09
2218126,0.357704,-0.635376,0.952088,471.589996,13.230000,-144.690002,21.09
2218139,0.500688,-0.578280,1.125816,557.760010,2.520000,-149.520004,21.00
2218149,0.651480,-0.379664,1.112640,619.429993,4.900000,-154.139999,21.00
2218161,0.596336,-0.268888,0.994056,678.159973,-8.750000,-152.110001,21.03
2218172,0.580720,-0.123952,0.665144,688.030029,-35.139999,-135.380005,21.03
2218183,0.662216,0.095160,0.567056,557.479980,-33.459999,-116.059998,21.08
2218194,0.554368,0.288408,0.346968,381.149994,-20.160000,-89.180000,21.07
2218205,0.330864,0.685152,0.097112,125.089996,-8.540000,-45.500000,21.07
2218215,0.141032,0.852048,0.047824,-145.600006,5.740000,-9.310000,21.08
2218226,0.337696,1.450824,0.095648,-362.670013,12.040000,53.130001,21.08
2218237,0.476776,1.299056,0.303048,-565.109985,5.880000,102.620003,21.12
2218248,0.791048,0.521184,0.489464,-658.559998,1.890000,127.889999,21.12
2218259,0.890112,-0.145912,0.839360,-670.039978,1.750000,145.600006,21.09
2218269,0.874496,-0.301096,1.143384,-664.020020,-7.140000,150.220001,21.09
2218280,0.791536,-0.311344,1.221952,-653.169983,-24.639999,158.130005,21.09
2218291,0.750544,-0.441640,1.104344,-618.380005,-38.080002,166.949997,21.07
2218302,0.663192,-0.427976,0.869616,-559.650024,-41.090000,170.449997,21.07
2218313,0.655384,-0.421144,0.569984,-475.790009,-32.689999,151.270004,21.08
2218325,0.552904,-0.675880,0.192272,-349.929993,-15.890000,110.040001,21.05
2218336,0.404064,-0.879864,-0.190808,-191.729996,-14.000000,78.820000,21.05
2218347,0.330864,-1.157536,-0.457744,-55.299999,-13.930000,39.619999,21.06
2218359,0.369416,-1.310280,-0.447984,100.099998,-18.129999,5.180000,21.06
2218370,0.498248,-1.423008,-0.215696,215.460007,-20.580000,-21.350000,21.09
2218381,0.502640,-1.285392,0.049288,262.149994,-11.760000,-40.389999,21.05
2218392,0.505568,-1.372744,0.290848,285.320007,-3.150000,-64.330002,21.05
2218403,0.476288,-1.357128,0.440664,317.170013,-1.540000,-79.449997,21.07
2218415,0.464088,-1.179008,0.519720,376.880005,2.520000,-99.820000,21.07
2218426,0.487024,-0.942816,0.639280,471.170013,8.960000,-125.860001,21.09
2218437,0.599264,-0.645136,0.795928,564.830017,33.669998,-150.149994,21.11
2218448,0.349896,-0.522160,0.942816,652.890015,-20.930000,-168.279999,21.11
2218460,0.649040,-0.515816,1.027728,736.049988,-19.879999,-167.649994,21.07
2218471,0.642208,-0.436272,0.794952,765.169983,-36.049999,-173.669998,21.07
2218482,0.566080,0.119072,0.638304,663.950012,-58.380001,-145.949997,21.12
2218493,0.493368,-0.162992,0.586576,551.669983,-55.299999,-143.850006,21.05
2218508,0.406504,0.735904,0.300120,284.549988,-21.280001,-91.629997,21.05
2218519,0.152256,1.154608,0.022936,11.200000,-9.940000,-48.860001,21.07
2218530,0.357704,1.350784,-0.172752,-200.410004,7.350000,3.920000,21.11
2218540,0.523136,1.146800,-0.145424,-408.730011,13.720000,52.150002,21.11
2218552,0.624152,0.975024,0.246440,-527.869995,13.860000,81.830002,21.08
2218564,0.801784,0.345504,0.671488,-574.140015,18.410000,103.320000,21.08
2218575,0.826672,0.084424,1.028216,-583.450012,11.480000,119.209999,21.10
2218586,0.797880,-0.011712,1.159000,-587.859985,-2.870000,137.619995,21.04
2218597,0.821792,-0.168360,1.132648,-580.440002,-13.020000,155.679993,21.04
2218608,0.767136,-0.350872,0.980392,-556.010010,-21.770000,171.710007,21.08
2218619,0.611952,-0.634888,0.795928,-506.450012,-17.080000,152.600006,21.08
2218630,0.587064,-0.594384,0.630496,-473.269989,-24.570000,128.380005,21.06
2218641,0.581208,-0.739808,0.418216,-420.070007,-21.350000,115.360001,21.08
2218652,0.489464,-0.836920,0.223992,-338.309998,-16.379999,98.139999,21.08
2218663,0.384544,-0.967216,0.104920,-232.610001,-16.309999,71.610001,21.05
2218674,0.396744,-1.139968,-0.024400,-135.100006,-13.930000,42.980000,21.05
2218686,0.421144,-1.194624,-0.115168,-21.559999,-8.400000,14.280000,21.07
2218697,0.471408,-1.337608,-0.161040,88.970001,-2.310000,-15.190000,21.01
2218708,0.475800,-1.360056,-0.106872,185.149994,3.920000,-38.080002,21.01
2218719,0.474336,-1.243912,0.046848,249.410004,10.780000,-67.970001,21.06
2218730,0.494832,-1.335168,0.230824,365.959991,12.670000,-104.720001,21.06
2218741,0.496296,-1.036512,0.535336,481.040009,11.690000,-124.809998,21.11
2218751,0.435296,-0.816912,0.764696,566.159973,13.860000,-162.960007,21.11
2218762,0.494832,-0.674904,1.047736,671.159973,-1.470000,-180.809998,21.07
2218773,0.674416,-0.501664,1.192184,746.200012,-0.280000,-194.039993,21.01
2218784,0.633424,-0.517280,1.162904,791.630005,-9.520000,-199.360001,21.01
2218795,0.421144,-0.680272,0.874496,826.280029,-37.099998,-214.550003,21.05
2218806,0.632448,-0.133224,0.480192,770.909973,-49.419998,-149.240005,21.05
2218818,0.404064,0.469944,0.275720,591.219971,-43.119999,-120.400002,21.06
2218829,0.258640,1.133624,0.047336,277.690002,-34.160000,-80.919998,21.04
2218840,0.262056,1.470344,-0.260592,9.870000,-15.050000,-34.650002,21.04
2218851,0.281088,1.469368,-0.582672,-274.260010,6.160000,18.760000,21.04
2218862,0.459208,1.475224,-0.424560,-491.959991,13.230000,59.360001,21.04
2218873,0.611952,1.003816,0.065880,-601.650024,11.970000,96.599998,21.05
2218883,0.734928,0.302560,0.569008,-658.140015,13.440000,120.470001,21.06
2218894,0.792512,0.014152,0.920368,-658.909973,7.490000,137.690002,21.06
2218905,0.762256,-0.150304,1.193160,-644.979980,-4.690000,158.339996,21.07
2218916,0.763720,-0.339160,1.141432,-625.590027,-16.170000,165.619995,21.07
2218927,0.737856,-0.390400,0.950136,-593.250000,-25.549999,170.660004,21.10
2218938,0.699304,-0.583648,0.768112,-549.570007,-25.760000,165.899994,21.10
2218949,0.642696,-0.823256,0.536312,-500.079987,-26.459999,138.389999,21.06
2218960,0.589016,-0.776408,0.363560,-433.929993,-27.510000,118.370003,21.03
2218971,0.476776,-0.857416,0.254248,-339.570007,-22.260000,101.010002,21.03
2218982,0.356728,-0.906216,0.088816,-249.619995,-21.280001,74.129997,21.07
2218993,0.366000,-0.990640,-0.042456,-124.949997,-17.290001,43.540001,21.07
2219004,0.387960,-1.141920,-0.161528,0.700000,-10.080000,17.639999,21.10
2219015,0.478728,-1.305400,-0.192272,122.989998,-3.150000,-7.070000,21.02
2219026,0.524600,-1.362008,-0.083448,205.800003,3.080000,-28.209999,21.02
2219037,0.504592,-1.361520,0.061488,291.130005,7.070000,-55.790001,21.11
2219048,0.490440,-1.175104,0.207400,372.049988,14.700000,-78.050003,21.11
2219059,0.502152,-1.025776,0.413336,433.160004,15.470000,-102.199997,21.04
2219070,0.661240,-0.791048,0.698816,505.609985,33.040001,-121.169998,21.07
2219081,0.331840,-0.609024,0.875472,584.289978,7.210000,-151.410004,21.07
2219092,0.556320,-0.363072,1.067256,653.799988,1.120000,-158.690002,21.09
2219107,0.593408,-0.119560,1.164368,695.239990,-6.300000,-166.809998,21.03
2219118,0.547536,-0.239120,1.007720,709.450012,-28.490000,-157.710007,21.03
2219129,0.587064,-0.168360,0.772992,665.700012,-39.060001,-137.899994,21.06
2219140,0.543144,0.105408,0.653432,539.280029,-43.750000,-105.629997,21.06
2219151,0.397232,0.778848,0.523624,292.739990,-30.940001,-77.559998,21.06
2219162,0.329400,0.905240,0.252784,28.770000,-19.320000,-43.889999,21.06
2219173,0.344528,1.108736,-0.051240,-175.630005,-0.490000,1.470000,21.08
2219184,0.464576,1.239032,-0.046848,-395.570007,5.180000,43.259998,21.08
2219195,0.594872,1.046760,0.186904,-550.549988,2.240000,86.379997,21.08
2219206,0.714920,0.400648,0.594872,-612.780029,-17.570000,107.239998,21.06
2219216,0.762744,0.081008,1.012112,-639.239990,-2.590000,119.559998,21.06
2219227,0.722240,0.037576,1.188768,-652.539978,-12.600000,136.220001,21.10
2219238,0.721752,-0.017568,1.213168,-659.609985,-25.059999,145.250000,21.07
2219249,0.755912,-0.180560,1.015040,-645.960022,-32.480000,154.000000,21.07
2219260,0.684664,-0.507032,0.802760,-582.609985,-34.439999,158.199997,21.09
2219271,0.616344,-0.480680,0.595848,-516.599976,-33.320000,147.699997,21.09
2219282,0.647576,-0.554368,0.365512,-431.829987,-30.379999,111.089996,21.11
2219293,0.488488,-0.696864,0.097600,-317.100006,-19.530001,88.620003,21.04
2219304,0.407480,-0.914024,-0.065880,-174.160004,-21.629999,60.270000,21.04
2219316,0.408944,-1.087752,-0.194712,-55.299999,-24.850000,29.889999,21.06
2219326,0.520696,-1.199992,-0.202520,78.959999,-23.450001,6.230000,21.06
2219337,0.580232,-1.220976,-0.120048,170.589996,-18.620001,-12.110000,21.03
2219349,0.546072,-1.247816,0.057096,224.419998,-13.580000,-34.230000,21.03
2219360,0.578280,-1.368352,0.246440,250.179993,-3.780000,-58.310001,21.07
2219371,0.487024,-1.216096,0.371856,282.589996,1.190000,-75.040001,21.07
2219382,0.516304,-1.240984,0.405040,356.019989,13.090000,-88.480003,21.07
2219393,0.620736,-0.974048,0.571936,430.920013,37.240002,-109.199997,21.09
2219404,0.339648,-0.683200,0.726632,511.980011,6.370000,-145.529999,21.09
2219415,0.574376,-0.761768,0.916952,606.130005,5.530000,-166.600006,21.11
2219426,0.621712,-0.612928,0.993568,675.919983,-0.840000,-177.309998,21.05
2219437,0.536800,-0.425536,1.040904,704.409973,-21.070000,-177.800003,21.05
2219448,0.588528,-0.388448,0.995032,718.409973,-29.260000,-164.779999,21.09
2219459,0.494832,-0.397232,0.719312,720.020020,-50.889999,-152.250000,21.09
2219470,0.346480,0.237656,0.472384,592.200012,-60.200001,-122.010002,21.09
2219481,0.311344,1.007720,0.164456,368.480011,-55.580002,-75.320000,21.07
2219492,0.286944,1.194136,-0.126392,72.239998,-42.490002,-38.360001,21.07
2219503,0.386984,1.377624,-0.351360,-208.949997,-14.700000,-11.060000,21.10
2219514,0.487024,1.511336,-0.379176,-439.880005,3.990000,40.180000,21.10
2219525,0.584624,1.265872,-0.080032,-574.489990,3.710000,79.309998,21.08
2219536,0.704184,0.623176,0.366976,-650.859985,0.980000,98.139999,21.02
2219547,0.811056,0.008784,0.661240,-640.780029,3.640000,118.510002,21.02
2219558,0.811544,0.051240,1.023824,-630.489990,-4.410000,139.440002,21.05
2219569,0.816912,0.020984,1.128744,-624.890015,-17.219999,154.000000,21.05
2219580,0.809104,-0.103456,1.011136,-609.349976,-30.240000,158.550003,21.07
2219592,0.813496,-0.318176,0.832528,-568.400024,-31.920000,175.490005,21.07
2219603,0.707112,-0.618784,0.584136,-507.709991,-28.420000,151.270004,21.07
2219614,0.673928,-0.639280,0.375760,-434.839996,-28.629999,126.279999,21.07
2219625,0.592920,-0.647576,0.199592,-352.869995,-25.200001,90.580002,21.07
2219636,0.465552,-0.762256,0.088816,-244.789993,-24.430000,91.139999,21.12
2219647,0.458232,-0.847656,-0.018544,-152.320007,-21.350000,68.739998,21.12
2219658,0.454816,-1.049688,-0.091256,-35.700001,-19.180000,40.950001,21.05
2219670,0.505080,-1.234640,-0.120536,69.370003,-14.980000,17.850000,21.07
2219681,0.564128,-1.264408,-0.031720,153.720001,-9.450000,-2.660000,21.07
2219692,0.540216,-1.283928,0.097600,204.610001,-3.220000,-19.809999,21.08
2219703,0.524600,-1.217072,0.212280,252.770004,3.780000,-45.849998,21.08
2219714,0.504104,-1.064816,0.325984,287.980011,9.170000,-65.800003,21.07
2219725,0.495320,-1.062376,0.428952,369.320007,12.530000,-83.089996,21.08
2219736,0.468480,-0.807640,0.532408,472.920013,22.750000,-111.019997,21.08
2219747,0.507032,-0.547536,0.752496,553.979980,8.050000,-126.070000,21.07
2219758,0.652944,-0.411872,0.881328,645.609985,16.450001,-145.529999,21.07
2219769,0.606584,-0.235216,0.968680,712.669983,10.990000,-156.660004,21.07
2219780,0.593408,-0.126392,0.990640,735.700012,-0.070000,-147.279999,21.09
2219791,0.592920,-0.181536,0.907680,706.650024,-10.150000,-133.839996,21.09
2219802,0.577304,-0.215208,0.696376,604.239990,-22.469999,-119.839996,21.07
2219813,0.493368,0.357216,0.499224,399.839996,-6.370000,-82.949997,21.07
2219824,0.320616,0.988200,0.196664,181.789993,2.100000,-45.080002,21.08
2219835,0.262056,1.173640,-0.016104,-95.199997,6.370000,-2.520000,21.09
2219846,0.481656,1.334192,-0.067344,-332.220001,15.470000,40.389999,21.09
2219857,0.534360,1.155096,0.205448,-472.359985,11.060000,85.260002,21.05
2219868,0.639280,0.413336,0.587552,-566.020020,4.410000,108.360001,21.05
2219879,0.796904,-0.055144,0.917928,-589.330017,5.110000,121.029999,21.05
2219890,0.748592,-0.030744,1.256600,-610.750000,0.420000,135.589996,21.05
2219901,0.704184,-0.152256,1.355176,-629.719971,-15.960000,144.199997,21.09
2219912,0.709552,-0.261568,1.215608,-625.869995,-36.680000,155.190002,21.06
2219923,0.734928,-0.407480,0.973560,-588.909973,-38.009998,164.289993,21.06
2219934,0.603168,-0.326472,0.694424,-547.330017,-31.639999,153.580002,21.09
2219945,0.602680,-0.538752,0.383568,-496.720001,-29.400000,115.639999,21.09
2219956,0.514840,-0.799344,0.080032,-391.859985,-20.230000,97.089996,21.10
2219967,0.396256,-0.945744,-0.081496,-247.589996,-17.570000,65.169998,21.08
2219978,0.386008,-1.151680,-0.261080,-116.410004,-14.700000,34.020000,21.08
2219989,0.416752,-1.228296,-0.289384,46.689999,-14.560000,7.210000,21.10
2220000,0.519720,-1.283928,-0.214720,181.160004,-10.640000,-12.670000,21.10
2220011,0.561688,-1.233664,-0.059048,266.839996,-1.960000,-36.750000,21.12
2220022,0.576328,-1.260992,0.168360,312.829987,5.530000,-70.629997,21.08
2220033,0.547048,-1.214144,0.407480,363.510010,12.460000,-82.739998,21.08
2220044,0.490928,-1.000400,0.569984,404.390015,18.480000,-98.699997,21.08
2220055,0.533872,-0.931104,0.735904,455.279999,23.870001,-116.199997,21.08
2220066,0.534848,-0.698816,0.894016,519.469971,23.660000,-123.129997,21.05
2220077,0.266448,-0.394792,0.998936,567.630005,-2.030000,-155.190002,21.09
2220088,0.469456,-0.360144,0.947208,614.950012,-15.260000,-139.440002,21.09
2220099,0.648064,-0.202520,0.839360,610.119995,-20.230000,-124.809998,21.10
2220112,0.538264,0.049288,0.680272,507.850006,-35.000000,-118.510002,21.10
2220123,0.558272,0.275720,0.587552,348.950012,-29.540001,-85.959999,21.09
2220134,0.533384,0.590480,0.436760,184.240005,-12.460000,-57.610001,21.05
2220145,0.333304,0.901336,0.295240,-50.259998,-2.730000,-22.959999,21.05
2220156,0.349408,0.942816,0.211304,-260.470001,1.050000,14.420000,21.05
2220167,0.576816,1.009184,0.298168,-398.299988,3.500000,63.070000,21.05
2220178,0.614880,0.634400,0.539728,-514.010010,-1.750000,97.370003,21.09
2220189,0.772504,0.215696,0.851560,-564.270020,-3.780000,113.680000,21.06
2220200,0.767624,-0.089792,1.046272,-581.000000,-8.750000,125.860001,21.06
2220211,0.760792,-0.204472,1.172176,-583.729980,-22.959999,135.520004,21.07
2220222,0.762256,-0.305488,1.089704,-567.419983,-33.250000,147.699997,21.07
2220234,0.722240,-0.341600,0.859856,-532.070007,-28.910000,152.740005,21.06
2220245,0.624152,-0.438712,0.610488,-467.179993,-29.610001,141.119995,21.06
2220256,0.635864,-0.586576,0.305976,-397.040009,-20.370001,108.849998,21.09
2220267,0.518744,-0.794464,-0.014152,-284.130005,-13.230000,80.010002,21.06
2220278,0.415776,-0.968680,-0.232288,-139.160004,-13.020000,55.369999,21.06
2220289,0.423096,-1.183888,-0.296216,8.820000,-15.540000,24.920000,21.05
2220300,0.508984,-1.205848,-0.208864,107.449997,-14.420000,2.450000,21.05
2220311,0.549000,-1.210240,-0.012200,187.250000,-8.190000,-19.670000,21.07
2220322,0.511912,-1.191696,0.214232,221.270004,-1.960000,-36.959999,21.04
2220333,0.548024,-1.279048,0.344528,245.839996,10.220000,-65.239998,21.04
2220344,0.514352,-1.083360,0.478240,256.829987,21.000000,-69.510002,21.12
2220355,0.482144,-0.997472,0.550464,282.450012,26.040001,-86.309998,21.12
2220366,0.631472,-0.965752,0.644648,345.940002,49.840000,-89.949997,21.07
2220377,0.400160,-0.757376,0.715896,435.890015,22.889999,-123.339996,21.14
2220388,0.474336,-0.498248,0.859368,498.329987,22.120001,-130.199997,21.14
2220399,0.509472,-0.402600,0.913536,564.130005,9.940000,-138.949997,21.12
2220410,0.525088,-0.317688,0.914512,608.789978,-2.310000,-141.610001,21.12
2220421,0.545096,-0.155184,0.811544,601.440002,-18.129999,-122.570000,21.11
2220432,0.565592,0.000976,0.757376,545.580017,-28.770000,-111.720001,21.11
2220443,0.534360,0.309880,0.686616,396.619995,-19.670000,-94.989998,21.11
2220454,0.424072,0.697840,0.577304,188.929993,-9.940000,-57.540001,21.09
2220465,0.387472,0.767136,0.336720,4.690000,1.680000,-30.660000,21.09
2220477,0.412848,0.863272,0.086864,-198.660004,12.600000,12.880000,21.12
2220488,0.508008,0.952088,0.142984,-374.079987,12.670000,49.139999,21.08
2220500,0.595360,0.651480,0.420168,-495.109985,4.060000,87.779999,21.08
2220511,0.758352,0.159088,0.722240,-551.109985,-1.330000,102.900002,21.10
2220522,0.756400,-0.123952,1.041392,-570.080017,-6.160000,120.050003,21.10
2220533,0.752496,-0.173240,1.215120,-577.780029,-16.590000,126.419998,21.14
2220544,0.726632,-0.176168,1.180472,-584.919983,-29.469999,134.960007,21.08
2220555,0.719312,-0.420168,1.029680,-557.760010,-35.980000,140.350006,21.08
2220566,0.669048,-0.602680,0.800808,-509.390015,-30.450001,138.880005,21.12
2220577,0.618296,-0.674904,0.551928,-435.609985,-31.430000,116.900002,21.12
2220588,0.592432,-0.681248,0.278160,-338.029999,-19.809999,96.389999,21.09
2220599,0.438712,-0.807640,0.039528,-208.600006,-15.890000,72.309998,21.05
2220610,0.383568,-0.943792,-0.195200,-90.510002,-17.780001,40.740002,21.05
2220622,0.438224,-1.224880,-0.297192,95.480003,-19.180000,11.060000,21.07
2220633,0.525088,-1.118496,-0.179096,197.330002,-14.770000,-13.370000,21.07
2220645,0.557296,-1.151680,0.070272,275.450012,-7.000000,-41.720001,21.13
2220656,0.536800,-1.228296,0.310368,342.440002,-1.260000,-67.480003,21.07
2220667,0.540216,-1.123864,0.499712,398.160004,9.730000,-77.139999,21.07
2220678,0.516304,-1.008208,0.668072,445.200012,15.610000,-98.279999,21.04
2220689,0.698816,-0.820816,0.786168,522.549988,43.610001,-115.010002,21.04
2220700,0.298656,-0.519232,0.870104,583.380005,0.350000,-128.240005,21.05
2220711,0.529968,-0.300120,0.935984,617.469971,3.080000,-130.130005,21.07
2220722,0.564128,-0.153720,0.981368,623.349976,-0.140000,-132.089996,21.07
2220734,0.499712,-0.026352,0.968680,520.799988,-19.389999,-114.800003,21.08
2220745,0.617320,-0.041968,0.824720,428.399994,-31.850000,-100.800003,21.08
2220756,0.639280,0.249368,0.529968,241.710007,-11.340000,-67.900002,21.10
2220767,0.339160,0.473848,0.321104,30.590000,2.870000,-41.580002,21.08
2220778,0.174704,0.706624,0.194712,-154.139999,-2.450000,-5.320000,21.08
2220789,0.452376,0.954528,0.277184,-368.200012,2.240000,50.330002,21.04
2220800,0.513864,1.000400,0.622688,-529.409973,-7.490000,85.680000,21.04
2220811,0.705648,0.356240,0.885232,-615.090027,-13.020000,111.300003,21.06
2220823,0.805200,-0.174704,1.121912,-640.080017,-12.320000,123.339996,21.06
2220834,0.763232,-0.314272,1.298080,-647.640015,-21.490000,129.850006,21.07
2220845,0.732000,-0.446032,1.265872,-625.309998,-35.000000,138.809998,21.07
2220856,0.700280,-0.452376,1.098488,-576.520020,-33.180000,146.860001,21.07
2220867,0.633912,-0.358192,0.779824,-502.109985,-34.720001,138.949997,21.09
2220878,0.680272,-0.493368,0.358680,-418.179993,-16.379999,103.250000,21.09
2220890,0.521672,-0.667096,-0.146888,-272.649994,-5.880000,65.379997,21.06
2220901,0.378688,-1.021384,-0.480680,-88.760002,-7.560000,32.619999,21.11
2220912,0.464576,-1.262456,-0.504104,92.400002,-12.250000,1.050000,21.11
2220923,0.538264,-1.330288,-0.308904,207.479996,-16.030001,-26.950001,21.09
2220934,0.560712,-1.169736,0.037088,284.690002,-11.410000,-57.189999,21.09
2220945,0.548512,-1.293200,0.329888,336.209991,-6.720000,-68.180000,21.05
2220956,0.531920,-1.261968,0.506056,383.390015,2.520000,-84.489998,21.09
2220967,0.491904,-0.989664,0.722728,402.429993,11.550000,-99.050003,21.09
2220978,0.435296,-0.820328,0.836432,421.190002,12.950000,-108.779999,21.07
2220989,0.357704,-0.655872,0.903288,449.820007,16.379999,-130.830002,21.07
2221000,0.385520,-0.569496,0.989176,503.649994,-4.830000,-137.270004,21.09
2221012,0.509960,-0.393328,0.930616,547.960022,-5.530000,-134.190002,21.15
2221023,0.515816,-0.164944,0.860344,587.580017,-13.860000,-133.630005,21.15
2221034,0.513864,-0.181048,0.659776,591.919983,-34.930000,-119.559998,21.07
2221045,0.606584,0.033672,0.545584,512.119995,-44.730000,-102.129997,21.07
2221056,0.564128,0.467016,0.444568,375.480011,-34.090000,-78.889999,21.07
2221066,0.462624,0.732976,0.352336,156.520004,-25.760000,-52.150002,21.08
2221077,0.324032,0.775432,0.255712,-57.680000,-11.200000,-25.410000,21.08
2221088,0.477264,0.932080,0.174704,-228.130005,4.480000,10.850000,21.09
2221099,0.535336,0.986248,0.180072,-406.769989,8.330000,58.869999,21.09
2221110,0.653920,0.718824,0.382104,-514.359985,1.960000,86.029999,21.10
2221121,0.841312,0.194224,0.717848,-551.250000,1.260000,106.680000,21.10
2221137,0.786656,-0.163968,1.083360,-570.849976,-8.960000,122.849998,21.09
2221148,0.754448,-0.182024,1.177056,-577.359985,-22.610001,131.600006,21.07
2221160,0.744200,-0.185928,1.072136,-580.369995,-37.310001,140.419998,21.11
2221171,0.696864,-0.342088,0.852048,-551.880005,-31.430000,143.500000,21.11
2221182,0.598288,-0.497760,0.580232,-502.040009,-31.570000,130.130005,21.12
2221193,0.653432,-0.718824,0.328912,-416.079987,-26.530001,101.570000,21.12
2221204,0.546560,-0.823256,0.005856,-301.070007,-13.370000,78.260002,21.12
2221215,0.439688,-0.961848,-0.097112,-158.550003,-12.320000,53.759998,21.12
2221226,0.442616,-1.058960,-0.246440,-37.169998,-13.300000,28.420000,21.12
2221237,0.469944,-1.144848,-0.255712,102.480003,-12.950000,3.360000,21.10
2221248,0.564128,-1.097512,-0.100040,208.250000,-5.110000,-14.140000,21.10
2221259,0.566080,-1.178032,0.063440,290.359985,1.470000,-34.580002,21.07
2221270,0.563152,-1.114104,0.315736,339.989990,9.870000,-70.279999,21.07
2221281,0.548512,-1.111664,0.507032,400.609985,19.389999,-79.870003,21.12
2221292,0.522160,-0.957944,0.670512,461.790009,27.160000,-98.559998,21.05
2221303,0.588040,-0.683200,0.869128,492.380005,42.910000,-116.480003,21.05
2221314,0.290848,-0.587064,0.925248,529.270020,-1.190000,-127.610001,21.09
2221325,0.583648,-0.474336,0.949160,559.159973,9.870000,-124.599998,21.09
2221336,0.550952,-0.408456,0.965752,563.570007,-2.870000,-120.260002,21.12
2221348,0.514352,0.069784,0.825696,415.100006,-16.870001,-102.970001,21.12
2221359,0.503616,0.216672,0.664168,285.529999,-19.809999,-77.489998,21.12
2221369,0.640744,0.160552,0.437736,106.330002,-3.010000,-64.400002,21.09
2221381,0.307928,0.361608,0.330376,-80.290001,5.530000,-31.219999,21.09
2221392,0.326472,0.507520,0.284016,-241.149994,2.310000,0.490000,21.11
2221403,0.501176,0.777872,0.510448,-340.130005,5.250000,45.290001,21.07
2221414,0.549976,0.474824,0.749080,-435.890015,-3.570000,77.910004,21.07
2221425,0.746640,0.148840,0.971608,-488.109985,-4.480000,96.389999,21.09
2221436,0.750056,-0.003416,1.098488,-522.130005,-8.120000,107.940002,21.09
2221447,0.719312,-0.264496,1.138016,-539.840027,-34.930000,119.349998,21.12
2221458,0.727120,-0.467992,1.089704,-520.239990,-26.250000,127.750000,21.11
2221469,0.709552,-0.398208,0.988200,-485.170013,-24.080000,137.410004,21.11
2221480,0.638792,-0.430904,0.730048,-439.390015,-26.670000,129.639999,21.12
2221491,0.641720,-0.596336,0.469944,-349.720001,-19.389999,101.989998,21.12
2221502,0.535336,-0.675392,0.158600,-236.880005,-12.530000,80.709999,21.14
2221513,0.454328,-0.914512,-0.079544,-104.860001,-12.460000,52.430000,21.14
2221524,0.454328,-1.048712,-0.178120,-1.820000,-14.560000,21.980000,21.12
2221536,0.510936,-1.200968,-0.089304,109.480003,-16.660000,-0.910000,21.12
2221547,0.555832,-1.219512,0.125904,179.899994,-12.180000,-16.240000,21.12
2221558,0.530944,-1.250256,0.264984,210.350006,-4.620000,-33.950001,21.11
2221571,0.506544,-1.249768,0.407968,231.559998,5.600000,-57.750000,21.13
2221582,0.477264,-1.217072,0.476288,260.959991,13.160000,-72.940002,21.13
2221593,0.506056,-1.041880,0.393328,300.510010,28.770000,-74.970001,21.11
2221604,0.429440,-0.694912,0.617320,329.420013,18.830000,-99.680000,21.11
2221615,0.504104,-0.651968,0.714920,375.899994,24.709999,-108.570000,21.09
2221626,0.459696,-0.597312,0.806664,432.179993,19.879999,-125.230003,21.06
2221637,0.439688,-0.517280,0.855464,489.510010,2.940000,-129.360001,21.06
2221648,0.497760,-0.343552,0.892064,526.260010,-3.570000,-126.699997,21.10
2221660,0.530944,-0.213744,0.801784,554.679993,-11.830000,-120.260002,21.10
2221671,0.529480,0.080520,0.781288,485.450012,-21.139999,-98.070000,21.08
2221682,0.530944,0.512400,0.673440,295.750000,-20.650000,-72.660004,21.09
2221693,0.567056,0.453840,0.548512,144.550003,-13.720000,-50.959999,21.09
2221704,0.441152,0.579256,0.363072,-44.660000,1.260000,-23.450001,21.10
2221715,0.320128,0.628056,0.307928,-207.759995,6.090000,7.350000,21.10
2221726,0.498736,0.910608,0.388936,-353.149994,6.370000,49.700001,21.11
2221737,0.553880,0.728096,0.528992,-440.929993,2.800000,85.610001,21.11
2221747,0.716872,0.388936,0.681736,-521.570007,-3.010000,106.260002,21.12
2221758,0.754936,-0.026840,0.863760,-568.049988,-9.590000,123.900002,21.14
2221769,0.704184,-0.366976,1.002352,-575.400024,-25.830000,131.529999,21.14
2221780,0.710040,-0.612928,0.999912,-549.849976,-38.849998,137.270004,21.10
2221791,0.700280,-0.752984,0.966240,-490.420013,-45.709999,142.240005,21.10
2221802,0.722240,-0.739320,0.850096,-432.390015,-47.320000,141.679993,21.09
2221813,0.680272,-0.498248,0.668560,-372.890015,-41.790001,112.980003,21.10
2221824,0.583648,-0.599264,0.395768,-297.429993,-31.570000,106.680000,21.10
2221835,0.395768,-0.713456,0.141032,-198.380005,-30.590000,84.559998,21.15
2221846,0.375760,-0.951600,-0.159088,-104.650002,-27.930000,52.779999,21.15
2221858,0.392840,-1.149728,-0.292312,18.270000,-24.500000,19.530001,21.15
2221869,0.460184,-1.176568,-0.224480,107.800003,-20.230000,-0.210000,21.07
2221880,0.509960,-1.284904,-0.068320,153.789993,-10.010000,-18.830000,21.07
2221891,0.464088,-1.328336,0.132248,161.350006,-1.610000,-34.860001,21.10
2221902,0.450912,-1.340536,0.272792,154.839996,7.910000,-48.439999,21.10
2221913,0.410408,-1.322480,0.312808,158.619995,16.590000,-60.200001,21.12
2221924,0.435296,-1.239520,0.294264,201.880005,27.160000,-73.500000,21.08
2221935,0.562176,-0.922808,0.364048,251.720001,45.220001,-72.660004,21.08
2221946,0.382592,-0.576816,0.464576,313.950012,32.830002,-99.750000,21.12
2221957,0.509472,-0.528016,0.581696,395.989990,46.200001,-108.500000,21.12
2221968,0.494832,-0.409432,0.727608,465.920013,37.450001,-127.190002,21.14
2221979,0.409920,-0.134688,0.879864,546.349976,15.890000,-135.029999,21.14
2221990,0.484584,-0.064904,0.983320,584.150024,-6.930000,-133.139999,21.07
2222001,0.617320,0.432368,1.023336,480.480011,-13.650000,-109.410004,21.10
2222012,0.631960,0.277672,0.976976,358.119995,-19.809999,-84.000000,21.10
2222023,0.764696,-0.058560,0.730048,212.169998,-5.110000,-60.340000,21.11
2222034,0.389912,0.488000,0.536312,24.850000,15.610000,-21.350000,21.11
2222045,0.244488,0.726144,0.487024,-168.279999,2.380000,20.020000,21.11
2222056,0.505080,1.015040,0.584624,-305.200012,3.220000,76.580002,21.08
2222067,0.573400,0.846192,0.689544,-426.790009,-8.610000,109.830002,21.08
2222078,0.769576,0.152744,0.834968,-475.299988,-19.740000,130.970001,21.11
2222089,0.787144,-0.124928,1.022360,-489.510010,-24.080000,142.380005,21.11
2222100,0.692472,-0.179584,1.117520,-507.290009,-35.490002,152.949997,21.12
2222111,0.682224,-0.431392,1.002352,-485.100006,-44.380001,157.850006,21.13
2222122,0.618296,-0.362584,0.901336,-435.049988,-50.959999,155.750000,21.13
2222133,0.604144,-0.314272,0.647576,-383.739990,-45.220001,146.229996,21.07
2222149,0.436760,-0.686616,0.199104,-271.670013,-33.599998,99.330002,21.11
2222160,0.370392,-1.016016,-0.132248,-148.610001,-31.639999,56.139999,21.11
2222172,0.391376,-1.355664,-0.268888,-13.440000,-33.180000,45.709999,21.09
2222183,0.400648,-1.347368,-0.199592,83.860001,-34.230000,22.120001,21.09
2222194,0.470432,-1.369328,0.004880,125.790001,-25.059999,4.060000,21.13
2222205,0.436272,-1.332240,0.180072,132.929993,-17.639999,-12.810000,21.09
2222216,0.412360,-1.336144,0.308904,103.739998,-8.820000,-24.430000,21.09
2222227,0.356240,-1.446920,0.310856,86.870003,-1.470000,-39.060001,21.13
2222238,0.349896,-1.243912,0.254248,84.769997,6.930000,-50.680000,21.13
2222249,0.340136,-1.034560,0.166896,98.419998,11.200000,-64.820000,21.11
2222260,0.397720,-0.916464,0.165920,149.380005,22.610001,-77.489998,21.11
2222272,0.427976,-0.826672,0.268400,230.720001,34.090000,-98.629997,21.11
2222283,0.476288,-0.730048,0.493368,303.100006,26.879999,-118.089996,21.11
2222294,0.561200,-0.674416,0.742736,402.709991,32.759998,-133.699997,21.11
2222305,0.547536,-0.532896,0.970144,488.600006,26.459999,-144.970001,21.16
2222316,0.460184,-0.275720,1.076040,538.580017,2.590000,-145.039993,21.16
2222327,0.566568,0.130784,1.106296,510.299988,-3.640000,-131.250000,21.14
2222338,0.596824,0.195200,1.063840,418.739990,-15.260000,-115.220001,21.08
2222349,0.643672,-0.051240,0.728096,323.750000,-14.560000,-103.250000,21.08
2222361,0.683200,0.046360,0.337208,179.970001,9.310000,-69.790001,21.11
2222372,0.307928,0.447984,0.214720,3.080000,5.180000,-26.110001,21.11
2222383,0.324032,0.700768,0.243024,-143.850006,0.210000,16.870001,21.11
2222394,0.534360,0.793488,0.412848,-309.959991,0.700000,65.660004,21.11
2222405,0.582184,0.578280,0.640744,-427.839996,-9.730000,95.199997,21.11
2222416,0.724192,0.029280,0.909144,-463.750000,-18.549999,118.650002,21.12
2222427,0.772504,-0.183976,1.144360,-479.570007,-22.750000,131.179993,21.12
2222438,0.735904,-0.269864,1.217072,-487.829987,-29.959999,138.600006,21.11
2222449,0.688080,-0.448960,1.157048,-474.390015,-40.320000,145.179993,21.11
2222461,0.648552,-0.318176,1.010160,-448.839996,-43.259998,150.360001,21.11
2222474,0.639768,-0.330376,0.641232,-385.980011,-32.759998,135.520004,21.11
2222485,0.540704,-0.480192,0.279624,-334.459991,-0.070000,105.629997,21.13
2222496,0.405528,-0.793000,-0.119072,-219.240005,-12.530000,77.279999,21.13
2222507,0.357216,-1.248792,-0.334768,-61.669998,-14.840000,41.860001,21.11
2222518,0.406504,-1.330288,-0.352336,51.450001,-20.860001,17.080000,21.11
2222530,0.505568,-1.333216,-0.157624,144.970001,-17.570000,-3.990000,21.10
2222541,0.501176,-1.278560,0.118096,174.789993,-7.490000,-20.510000,21.11
2222552,0.422608,-1.318576,0.277184,164.500000,-1.610000,-35.980000,21.11
2222563,0.425048,-1.301984,0.396256,148.750000,11.760000,-50.119999,21.11
2222574,0.371368,-1.260016,0.369904,130.059998,16.170000,-65.099998,21.11
2222585,0.379664,-1.145336,0.297680,140.210007,28.490000,-72.800003,21.12
2222596,0.537776,-0.943792,0.273280,190.119995,50.889999,-78.610001,21.12
2222607,0.292800,-0.738344,0.320128,236.179993,34.439999,-114.519997,21.05
2222617,0.489952,-0.741272,0.510936,326.899994,44.029999,-119.629997,21.11
2222628,0.493856,-0.674416,0.648064,424.970001,36.610001,-141.750000,21.11
2222639,0.471896,-0.480680,0.840336,484.750000,3.780000,-148.610001,21.07
2222650,0.499224,-0.270352,0.993080,518.070007,7.210000,-145.809998,21.07
2222661,0.529968,0.017080,1.045784,479.500000,-3.920000,-131.949997,21.11
2222672,0.535336,-0.006832,1.014552,423.570007,-17.290001,-115.849998,21.12
2222683,0.547536,0.192760,0.760792,294.279999,-9.380000,-81.059998,21.12
2222694,0.523136,0.394792,0.380640,128.660004,4.760000,-53.270000,21.12
2222705,0.352824,0.589504,0.314760,-18.200001,12.950000,-21.770000,21.12
2222717,0.417728,0.895480,0.288408,-216.649994,10.920000,25.760000,21.12
2222728,0.555832,0.894016,0.465552,-373.799988,3.710000,76.089996,21.07
2222739,0.692472,0.465064,0.756888,-460.880005,-7.840000,103.389999,21.07
2222750,0.813008,-0.008296,1.013576,-482.720001,-9.870000,125.790001,21.14
2222761,0.772016,-0.035624,1.272704,-504.700012,-14.140000,140.419998,21.14
2222772,0.732488,-0.136152,1.288320,-526.119995,-25.830000,156.449997,21.12
2222783,0.666608,-0.157136,1.145336,-511.559998,-29.680000,164.360001,21.14
2222794,0.624640,-0.054656,0.917440,-478.450012,-24.570000,160.860001,21.14
2222805,0.529968,-0.361608,0.470920,-422.519989,-17.219999,127.330002,21.12
2222816,0.481656,-0.947696,-0.051240,-279.510010,-8.330000,85.330002,21.12
2222828,0.401136,-1.242936,-0.400648,-86.730003,-12.530000,58.520000,21.14
2222839,0.413336,-1.305400,-0.442616,76.930000,-19.530001,29.750000,21.10
2222850,0.465064,-1.321504,-0.213256,167.860001,-24.990000,8.750000,21.10
2222861,0.485560,-1.281976,0.177632,215.809998,-20.160000,-10.780000,21.16
2222872,0.443104,-1.267336,0.467504,203.699997,-13.370000,-26.670000,21.16
2222883,0.415288,-1.349808,0.548512,173.039993,-4.760000,-43.470001,21.12
2222894,0.404064,-1.315648,0.480680,169.399994,8.330000,-53.759998,21.12
2222905,0.433344,-1.030168,0.422120,173.389999,23.590000,-59.220001,21.09
2222916,0.259128,-0.782264,0.342576,206.220001,8.120000,-86.099998,21.18
2222927,0.488000,-0.768112,0.381128,285.600006,29.750000,-95.550003,21.18
2222938,0.423096,-0.524600,0.518744,356.790009,30.030001,-117.250000,21.12
2222949,0.376248,-0.501176,0.707600,449.890015,14.280000,-134.399994,21.12
2222960,0.506544,-0.443104,0.893040,538.020020,1.330000,-138.110001,21.14
2222971,0.572912,-0.052216,1.038952,551.880005,1.610000,-132.369995,21.11
2222982,0.531920,0.024400,1.167784,497.489990,-12.320000,-119.279999,21.11
2222994,0.533872,-0.025376,1.035048,393.959991,-18.900000,-90.230003,21.11
2223005,0.531920,0.288408,0.778848,225.050003,0.980000,-59.919998,21.11
2223016,0.404064,0.523136,0.501664,32.759998,12.670000,-32.689999,21.10
2223027,0.286456,0.732976,0.280112,-128.869995,11.270000,9.660000,21.08
2223038,0.476776,0.953552,0.269376,-327.320007,6.790000,70.209999,21.08
2223049,0.576328,0.798856,0.527528,-467.320007,-8.820000,97.089996,21.08
2223060,0.736392,0.075640,0.943792,-508.970001,-14.560000,128.100006,21.08
2223071,0.771040,-0.211304,1.313696,-513.030029,-17.080000,140.210007,21.13
2223082,0.703696,-0.150304,1.475712,-530.809998,-29.889999,147.979996,21.09
2223093,0.675392,-0.299144,1.367864,-527.520020,-36.610001,155.399994,21.09
2223104,0.617808,-0.204960,1.074088,-511.839996,-39.970001,161.490005,21.12
2223115,0.589504,-0.313296,0.637816,-465.010010,-33.110001,138.110001,21.12
2223126,0.514352,-0.551928,0.203008,-374.779999,-20.650000,113.889999,21.10
2223137,0.358192,-0.881816,-0.202032,-221.199997,-17.360001,72.239998,21.08
2223150,0.328912,-1.311744,-0.495808,-30.799999,-21.420000,32.619999,21.08
2223161,0.357216,-1.312720,-0.365024,115.360001,-31.080000,12.040000,21.12
2223172,0.469456,-1.352736,-0.087840,197.050003,-25.059999,-9.870000,21.12
2223183,0.425536,-1.314184,0.239608,213.009995,-18.620001,-29.260000,21.09
2223195,0.432368,-1.314184,0.476288,192.289993,-6.930000,-48.509998,21.12
2223206,0.427976,-1.403976,0.521672,173.460007,4.550000,-57.750000,21.12
2223217,0.366976,-1.272704,0.488976,176.119995,14.210000,-63.209999,21.13
2223228,0.467016,-1.008208,0.464576,196.839996,31.920000,-65.940002,21.13
2223240,0.314760,-0.717360,0.397232,242.899994,17.500000,-97.510002,21.12
2223251,0.457256,-0.591944,0.473360,309.399994,32.549999,-108.360001,21.09
2223262,0.410408,-0.531920,0.602192,383.809998,23.240000,-131.600006,21.09
2223273,0.358680,-0.433344,0.774944,468.019989,0.140000,-143.500000,21.11
2223284,0.529968,-0.387472,0.908656,519.890015,-10.570000,-142.449997,21.11
2223295,0.687592,-0.176656,1.025776,495.040009,-12.390000,-131.320007,21.10
2223307,0.553880,0.253760,0.986248,363.089996,-23.170000,-105.769997,21.11
2223318,0.495320,0.161528,0.708576,218.820007,-27.230000,-74.480003,21.11
2223329,0.565104,0.129808,0.515328,49.349998,1.400000,-55.230000,21.14
2223339,0.198616,0.544608,0.318664,-117.669998,5.880000,-16.450001,21.14
2223350,0.383568,0.659288,0.209840,-314.859985,-6.160000,33.599998,21.12
2223361,0.633912,0.692472,0.436272,-452.549988,-6.230000,80.639999,21.11
2223372,0.679784,0.286944,0.833016,-508.760010,-13.860000,112.839996,21.11
2223383,0.775920,-0.017568,1.164856,-531.650024,-12.110000,130.690002,21.06
2223394,0.712968,-0.219112,1.396656,-527.030029,-19.320000,144.479996,21.06
2223405,0.668560,0.037088,1.432280,-523.250000,-20.299999,169.679993,21.11
2223416,0.671000,0.198128,1.186328,-515.479980,-15.960000,169.259995,21.11
2223427,0.673440,-0.298168,0.624152,-437.359985,-3.010000,136.009995,21.12
2223438,0.565592,-0.613904,-0.042456,-278.040009,2.100000,104.370003,21.10
2223449,0.433832,-1.002352,-0.422608,-82.599998,-10.850000,67.620003,21.10
2223461,0.423096,-1.200480,-0.449936,66.709999,-29.260000,36.959999,21.12
2223472,0.497760,-1.265872,-0.048800,188.789993,-36.610001,11.830000,21.12
2223483,0.501176,-1.261968,0.409920,225.889999,-33.389999,-4.620000,21.08
2223494,0.480192,-1.422520,0.617808,215.250000,-25.340000,-24.080000,21.10
2223505,0.435784,-1.334192,0.706136,185.710007,-10.290000,-36.470001,21.10
2223516,0.429440,-1.301496,0.614880,162.259995,-2.800000,-44.520000,21.14
2223527,0.433832,-1.095072,0.511912,163.660004,12.600000,-49.630001,21.14
2223538,0.327936,-0.860344,0.483608,195.649994,-3.780000,-76.930000,21.13
2223550,0.428464,-0.783240,0.494344,248.779999,9.870000,-86.519997,21.13
2223561,0.409920,-0.607072,0.606584,324.170013,12.740000,-107.379997,21.13
2223572,0.387960,-0.491416,0.773968,393.399994,5.110000,-119.980003,21.14
2223582,0.429928,-0.444080,0.896456,448.070007,-7.700000,-123.059998,21.14
2223593,0.516792,-0.181536,0.938912,465.290009,-9.870000,-118.019997,21.14
2223604,0.454328,-0.171776,0.990152,416.149994,-25.340000,-89.949997,21.14
2223615,0.513376,0.149328,0.909632,279.019989,-24.850000,-68.599998,21.14
2223626,0.553880,0.127368,0.685640,152.529999,-10.010000,-44.730000,21.14
2223637,0.410896,0.343552,0.546072,-18.129999,4.760000,-15.330000,21.14
2223648,0.316224,0.490440,0.473360,-193.690002,0.560000,15.330000,21.16
2223659,0.555832,0.558760,0.489464,-309.679993,-3.220000,59.360001,21.16
2223670,0.622688,0.327936,0.629032,-399.000000,-9.660000,94.779999,21.12
2223681,0.687104,0.049776,0.916952,-433.299988,-18.129999,109.830002,21.13
2223692,0.701256,-0.066856,1.094584,-461.230011,-24.570000,119.769997,21.13
2223703,0.697352,-0.358680,1.127768,-471.380005,-35.490002,128.240005,21.14
2223715,0.704184,-0.459696,1.047736,-455.769989,-35.000000,135.520004,21.14
2223725,0.602680,-0.366488,0.816912,-426.649994,-34.720001,129.080002,21.10
2223737,0.611952,-0.545096,0.565104,-369.950012,-25.340000,110.809998,21.09
2223748,0.520208,-0.785680,0.214720,-295.399994,-14.700000,81.129997,21.09
2223759,0.421144,-1.044320,-0.116144,-177.169998,-13.370000,48.439999,21.16
2223770,0.393328,-1.260992,-0.287432,-38.220001,-15.540000,25.900000,21.16
2223781,0.441152,-1.245864,-0.255712,81.269997,-14.420000,-2.520000,21.14
2223793,0.498248,-1.357128,-0.142008,175.770004,-8.050000,-26.110001,21.11
2223804,0.479216,-1.262456,0.056608,229.529999,1.190000,-46.970001,21.11
2223815,0.466528,-1.197552,0.277184,276.149994,6.860000,-65.589996,21.15
2223826,0.450424,-1.137528,0.464576,315.350006,16.660000,-85.330002,21.15
2223837,0.441152,-1.031632,0.618296,357.559998,25.620001,-101.500000,21.14
2223848,0.497272,-0.849608,0.772016,387.309998,32.060001,-117.879997,21.12
2223859,0.313296,-0.721752,0.890600,420.839996,8.820000,-127.680000,21.12
2223870,0.500688,-0.595360,0.923784,457.029999,16.730000,-129.289993,21.16
2223881,0.480680,-0.381128,0.916464,474.109985,8.820000,-134.820007,21.16
2223892,0.388448,-0.312808,0.747616,477.470001,-16.170000,-122.290001,21.10
2223903,0.501176,-0.075152,0.671488,396.269989,-25.129999,-104.720001,21.13
2223914,0.519232,0.472384,0.620248,217.559998,-15.120000,-78.330002,21.13
2223925,0.501176,0.272304,0.416264,87.570000,-10.150000,-62.020000,21.14
2223935,0.363560,0.399184,0.333792,-70.419998,3.570000,-31.430000,21.14
2223946,0.370880,0.592920,0.329400,-230.369995,2.800000,5.600000,21.17
2223957,0.525576,0.744200,0.499712,-349.160004,2.170000,52.849998,21.17
2223968,0.612440,0.458720,0.737856,-449.119995,-5.530000,80.849998,21.13
2223979,0.752984,0.041968,0.989664,-495.809998,-9.940000,106.540001,21.11
2223990,0.771528,-0.201056,1.155584,-513.729980,-18.270000,122.290001,21.11
2224001,0.753960,-0.296216,1.240984,-519.539978,-27.860001,136.779999,21.14
2224012,0.697840,-0.246928,1.158512,-513.099976,-28.840000,148.610001,21.14
2224023,0.601704,-0.128344,0.938424,-486.709991,-27.860001,153.580002,21.12
2224034,0.636840,-0.411872,0.562664,-427.140015,-12.740000,128.520004,21.11
2224046,0.492392,-0.831552,0.137128,-295.470001,-9.310000,92.889999,21.11
2224057,0.420656,-0.956480,-0.181536,-133.419998,-9.940000,62.020000,21.15
2224068,0.419680,-1.177056,-0.315248,24.219999,-14.000000,28.490000,21.15
2224079,0.467016,-1.231712,-0.164944,118.089996,-16.730000,1.890000,21.11
2224090,0.515816,-1.281488,0.123464,178.080002,-11.340000,-18.129999,21.11
2224101,0.483608,-1.287344,0.343064,176.470001,-2.240000,-31.780001,21.11
2224112,0.443592,-1.443504,0.457256,166.740005,6.860000,-45.290001,21.13
2224123,0.433344,-1.362496,0.485560,176.190002,14.560000,-57.259998,21.13
2224134,0.464088,-1.192184,0.470432,201.389999,28.350000,-61.040001,21.16
2224145,0.341112,-0.986736,0.496296,267.399994,14.700000,-86.519997,21.16
2224156,0.430416,-0.763232,0.567056,341.950012,27.299999,-99.330002,21.12
2224167,0.422608,-0.529480,0.713456,430.149994,29.610001,-121.449997,21.09
2224178,0.369904,-0.439688,0.897432,514.289978,11.690000,-136.429993,21.09
2224189,0.433832,-0.341112,1.003328,592.619995,-2.660000,-144.059998,21.18
2224200,0.487512,-0.325496,0.963312,639.380005,-20.719999,-140.979996,21.18
2224211,0.587552,-0.107848,0.757376,601.369995,-26.320000,-117.250000,21.13
2224222,0.583160,0.233264,0.745664,469.839996,-29.330000,-91.699997,21.15
2224233,0.497760,0.475312,0.664656,307.579987,-23.379999,-68.110001,21.15
2224244,0.406504,0.685640,0.471896,59.009998,-11.620000,-37.590000,21.13
2224255,0.254736,0.643672,0.254248,-176.960007,0.350000,-6.790000,21.13
2224266,0.401136,0.724192,0.178120,-363.929993,2.170000,41.299999,21.11
2224277,0.547048,0.707112,0.383080,-474.459991,-0.910000,85.260002,21.11
2224288,0.667096,0.356728,0.768600,-552.299988,-6.370000,111.580002,21.11
2224299,0.718336,0.019520,1.050664,-584.500000,-13.440000,129.639999,21.12
2224310,0.702720,-0.208376,1.326384,-589.049988,-29.400000,143.360001,21.12
2224321,0.733464,-0.242536,1.324920,-585.340027,-31.500000,156.589996,21.18
2224332,0.672464,-0.152256,1.160952,-569.869995,-31.360001,167.160004,21.07
2224343,0.643672,-0.301096,0.778848,-507.920013,-27.719999,164.500000,21.07
2224354,0.646600,-0.541192,0.335744,-423.850006,-12.740000,128.029999,21.11
2224365,0.471408,-0.693448,-0.152256,-278.739990,-7.630000,86.870003,21.11
2224376,0.382104,-1.020408,-0.420168,-107.169998,-11.270000,58.310001,21.10
2224387,0.369904,-1.216096,-0.441152,52.639999,-18.830000,22.959999,21.10
2224398,0.438712,-1.260992,-0.170800,139.929993,-22.120001,-1.190000,21.10
2224409,0.496784,-1.281976,0.188368,184.100006,-16.030001,-22.190001,21.11
2224420,0.475800,-1.282464,0.411872,162.960007,-3.500000,-33.669998,21.11
2224431,0.446032,-1.478640,0.508008,141.610001,7.980000,-44.380001,21.13
2224442,0.414312,-1.430328,0.468968,139.089996,16.170000,-52.639999,21.13
2224453,0.307440,-1.093120,0.433344,137.690002,19.950001,-55.020000,21.18
2224464,0.386496,-0.870592,0.468968,162.889999,22.750000,-67.339996,21.11
2224475,0.389912,-0.718336,0.446520,217.630005,30.660000,-80.150002,21.11
2224486,0.422120,-0.562176,0.553880,309.260010,34.720001,-97.089996,21.14
2224497,0.434808,-0.472384,0.711016,412.579987,30.100000,-124.949997,21.14
2224508,0.480680,-0.357216,0.934032,493.429993,25.340000,-130.759995,21.11
2224519,0.464576,-0.246440,1.047736,575.960022,10.640000,-140.419998,21.09
2224530,0.493368,-0.235704,0.916464,625.869995,-13.930000,-135.100006,21.09
2224541,0.617320,0.142984,0.914024,538.440002,-28.490000,-101.779999,21.11
2224552,0.628056,0.317688,0.902800,398.019989,-27.580000,-77.489998,21.11
2224563,0.589992,0.308416,0.702720,181.649994,-18.340000,-57.680000,21.19
2224574,0.301584,0.485072,0.493368,-51.520000,-2.170000,-19.600000,21.11
2224587,0.222040,0.766160,0.374784,-279.859985,-4.690000,32.970001,21.11
2224598,0.496784,0.827648,0.422120,-459.059998,-7.560000,74.900002,21.16
2224609,0.601704,0.427976,0.620736,-561.750000,-15.540000,110.879997,21.16
2224620,0.690520,-0.030256,0.922320,-582.190002,-22.260000,127.190002,21.16
2224631,0.737856,-0.199592,1.141432,-590.869995,-29.610001,130.690002,21.09
2224642,0.684664,-0.503128,1.205848,-563.710022,-39.689999,141.399994,21.09
2224653,0.614392,-0.490440,1.161928,-523.109985,-46.900002,151.970001,21.15
2224664,0.592920,-0.335744,0.925736,-460.459991,-45.430000,147.490005,21.15
2224675,0.669536,-0.472384,0.551440,-357.910004,-31.850000,123.339996,21.11
2224686,0.502640,-0.475800,0.146888,-234.570007,-17.850000,96.320000,21.12
2224697,0.418216,-0.925736,-0.300120,-115.779999,-19.040001,57.610001,21.12
2224708,0.389912,-1.185840,-0.427976,31.850000,-25.059999,23.379999,21.13
2224719,0.461648,-1.277584,-0.198128,138.669998,-31.290001,3.220000,21.13
2224730,0.500688,-1.304424,0.087352,190.330002,-26.670000,-17.080000,21.10
2224741,0.491416,-1.340536,0.369904,199.919998,-16.660000,-39.270000,21.10
2224752,0.446520,-1.397632,0.510448,193.759995,-10.710000,-47.250000,21.13
2224763,0.427488,-1.412760,0.498736,197.610001,0.000000,-59.430000,21.11
2224774,0.487024,-1.144360,0.512400,203.279999,21.700001,-57.959999,21.11
2224785,0.278160,-0.801784,0.478240,208.949997,4.410000,-81.199997,21.12
2224796,0.463112,-0.814960,0.443104,253.399994,25.480000,-86.169998,21.12
2224807,0.455792,-0.682712,0.473848,323.399994,31.500000,-107.099998,21.11
2224818,0.427000,-0.543632,0.621224,382.970001,20.020000,-126.139999,21.12
2224829,0.441640,-0.401136,0.813008,450.869995,11.830000,-129.990005,21.12
2224840,0.473360,-0.283528,0.909632,511.559998,1.820000,-134.259995,21.14
2224851,0.484096,-0.063440,0.853512,523.530029,-10.570000,-122.919998,21.14
2224863,0.611952,0.086864,0.799344,478.869995,-28.559999,-98.980003,21.17
2224874,0.589016,0.279136,0.708088,351.190002,-23.940001,-77.910004,21.14
2224885,0.575352,0.422608,0.586088,168.839996,-13.580000,-62.790001,21.14
2224895,0.398696,0.568520,0.464088,12.320000,-3.710000,-31.920000,21.18
2224906,0.349408,0.599264,0.415776,-167.929993,1.610000,9.590000,21.18
2224918,0.537776,0.756888,0.476776,-314.720001,4.830000,42.419998,21.16
2224929,0.632936,0.587064,0.572912,-413.000000,1.190000,79.519997,21.16
2224940,0.739320,0.145912,0.805688,-455.630005,-3.990000,102.129997,21.16
2224951,0.732000,-0.019032,1.015528,-490.070007,-9.940000,114.029999,21.09
2224962,0.692960,-0.186904,1.089216,-508.200012,-22.959999,122.709999,21.09
2224973,0.711992,-0.413824,1.086776,-500.429993,-31.219999,133.279999,21.11
2224984,0.629520,-0.390888,0.983808,-480.690002,-36.189999,135.520004,21.11
2224995,0.590968,-0.400160,0.791048,-445.410004,-34.790001,136.220001,21.13
2225006,0.594384,-0.480192,0.522648,-393.820007,-30.100000,120.959999,21.13
2225017,0.457744,-0.746640,0.310368,-299.880005,-20.930000,97.230003,21.13
2225028,0.422608,-0.958432,0.003416,-202.860001,-18.900000,69.930000,21.11
2225039,0.371856,-1.057984,-0.184464,-75.809998,-22.120001,44.099998,21.11
2225050,0.423096,-1.168272,-0.177144,42.490002,-20.790001,15.050000,21.16
2225062,0.492392,-1.224880,-0.076128,124.739998,-14.000000,-8.890000,21.14
2225073,0.494832,-1.222928,0.121024,156.100006,-3.850000,-28.490000,21.14
2225084,0.459696,-1.338584,0.230336,172.270004,7.280000,-46.270000,21.13
2225095,0.465064,-1.357128,0.284992,207.759995,18.200001,-60.130001,21.13
2225106,0.473360,-1.194624,0.280600,261.940002,31.850000,-76.019997,21.15
2225117,0.347456,-1.099464,0.326960,339.989990,24.150000,-102.480003,21.12
2225128,0.473848,-0.827648,0.536800,450.799988,35.840000,-116.690002,21.12
2225139,0.417240,-0.609024,0.724192,540.049988,30.590000,-135.800003,21.12
2225150,0.387960,-0.452376,0.832040,601.650024,10.990000,-154.770004,21.12
2225161,0.463112,-0.276208,0.979904,630.630005,-3.990000,-157.500000,21.13
2225172,0.504104,-0.092720,0.944768,635.390015,-17.150000,-150.500000,21.10
2225184,0.563640,0.221064,0.769088,546.140015,-16.170000,-135.100006,21.10
2225196,0.560224,0.279136,0.746152,396.970001,-10.990000,-112.070000,21.13
2225207,0.367952,0.358192,0.518744,197.610001,-11.830000,-85.820000,21.13
2225218,0.293288,0.578768,0.341112,-23.030001,-1.540000,-53.689999,21.12
2225229,0.282064,0.934032,0.172752,-208.669998,9.030000,-1.680000,21.09
2225240,0.434808,1.122888,0.272304,-414.399994,6.300000,46.410000,21.09
2225251,0.572912,0.735416,0.572912,-545.159973,1.750000,77.349998,21.11
2225262,0.718824,0.156160,0.882792,-597.799988,-4.690000,101.779999,21.11
2225273,0.772992,-0.097600,1.164856,-616.559998,-9.310000,116.059998,21.12
2225284,0.747128,-0.208864,1.315648,-624.820007,-18.059999,130.830002,21.15
2225295,0.700280,-0.392840,1.260992,-595.630005,-29.190001,140.139999,21.15
2225306,0.649528,-0.540704,1.125328,-524.299988,-32.480000,145.600006,21.14
2225317,0.612928,-0.387472,0.934520,-468.720001,-18.200001,138.250000,21.14
2225328,0.628056,-0.521672,0.628056,-375.130005,-29.889999,113.400002,21.12
2225339,0.524112,-0.561200,0.326472,-254.100006,-19.600000,92.470001,21.11
2225350,0.427488,-0.634400,-0.058072,-154.699997,-19.950001,62.860001,21.11
2225362,0.389912,-0.907680,-0.230336,-20.790001,-21.700001,27.299999,21.12
2225373,0.450424,-1.109224,-0.133224,100.660004,-27.790001,1.820000,21.12
2225384,0.530944,-1.174616,0.132736,173.740005,-23.940001,-17.010000,21.14
2225396,0.523624,-1.267824,0.361608,198.869995,-14.770000,-28.840000,21.14
2225407,0.484096,-1.261480,0.498736,190.470001,-3.640000,-43.820000,21.14
2225419,0.555344,-1.346392,0.491904,190.750000,15.890000,-59.779999,21.16
2225430,0.395768,-1.127768,0.490440,209.509995,12.880000,-71.540001,21.16
2225441,0.453840,-0.831064,0.488976,223.649994,24.850000,-73.919998,21.13
2225452,0.424072,-0.763232,0.506544,266.980011,28.139999,-92.260002,21.09
2225463,0.442128,-0.727608,0.587064,343.070007,27.299999,-109.970001,21.09
2225474,0.454816,-0.569984,0.683200,419.089996,25.340000,-118.650002,21.13
2225486,0.453840,-0.452864,0.801784,478.940002,17.500000,-126.209999,21.13
2225496,0.429440,-0.301584,0.873520,539.280029,6.230000,-126.839996,21.09
2225507,0.451888,-0.205448,0.817888,571.409973,-14.000000,-118.720001,21.10
2225519,0.504104,0.176168,0.748592,510.579987,-26.389999,-97.160004,21.10
2225530,0.576816,0.500200,0.725656,326.410004,-22.330000,-74.339996,21.16
2225541,0.558760,0.569984,0.597312,149.100006,-7.490000,-52.570000,21.16
2225552,0.343064,0.528016,0.399672,-49.209999,2.100000,-16.660000,21.11
2225563,0.362096,0.618784,0.325008,-224.699997,11.130000,16.379999,21.11
2225574,0.528016,0.905728,0.373808,-362.880005,9.030000,62.580002,21.11
2225585,0.588040,0.521672,0.572912,-477.399994,1.750000,96.529999,21.13
2225596,0.707600,0.163480,0.822280,-526.679993,-5.530000,114.800003,21.13
2225607,0.741272,-0.088816,1.037976,-540.890015,-9.520000,127.610001,21.14
2225618,0.686128,-0.319152,1.188768,-535.080017,-23.870001,136.429993,21.14
2225629,0.665632,-0.391864,1.117520,-511.559998,-31.360001,145.250000,21.14
2225640,0.624152,-0.501176,1.000400,-461.929993,-38.150002,147.000000,21.20
2225651,0.607072,-0.354776,0.867664,-417.130005,-38.360001,145.529999,21.20
2225662,0.598288,-0.520208,0.574376,-347.410004,-33.389999,125.230003,21.14
2225673,0.488976,-0.610488,0.233752,-251.929993,-22.049999,102.199997,21.14
2225684,0.390888,-0.861320,-0.014640,-136.009995,-21.700001,74.550003,21.14
2225695,0.346480,-1.061400,-0.164944,-39.410000,-25.690001,44.310001,21.13
2225706,0.386984,-1.204384,-0.090768,68.529999,-28.280001,19.459999,21.13
2225718,0.452376,-1.274656,0.109800,136.500000,-23.170000,-1.190000,21.12
2225729,0.450912,-1.317112,0.322080,154.559998,-14.490000,-14.630000,21.12
2225740,0.413824,-1.350296,0.418216,140.630005,-3.640000,-32.340000,21.13
2225752,0.424072,-1.435208,0.424072,145.949997,9.450000,-54.180000,21.11
2225763,0.480680,-1.262944,0.382592,167.929993,25.270000,-57.680000,21.11
2225774,0.366000,-1.088240,0.347456,221.970001,18.200001,-75.739998,21.13
2225785,0.437248,-0.863272,0.376736,307.089996,33.180000,-89.669998,21.13
2225796,0.396256,-0.716872,0.531920,414.820007,37.380001,-119.839996,21.12
2225807,0.388936,-0.745664,0.695888,510.440002,21.000000,-140.000000,21.14
2225818,0.450912,-0.563640,0.846192,594.789978,10.570000,-150.360001,21.14
2225829,0.535336,-0.378688,0.951600,628.739990,5.880000,-158.339996,21.16
2225840,0.425536,-0.059048,1.013088,586.179993,-13.580000,-143.779999,21.16
2225851,0.416752,0.276208,0.957944,417.480011,-25.480000,-113.540001,21.18
2225862,0.530944,0.005856,0.726632,231.979996,-18.549999,-100.379997,21.08
2225873,0.395280,0.179096,0.349408,17.780001,8.330000,-67.129997,21.08
2225884,0.040016,0.680760,0.151280,-168.139999,-4.550000,-25.620001,21.12
2225896,0.355752,1.012600,0.326960,-388.079987,-5.250000,31.219999,21.12
2225907,0.503128,0.830576,0.616832,-565.669983,-7.350000,71.260002,21.13
2225918,0.666120,0.066856,0.985760,-638.539978,-14.560000,91.559998,21.13
2225929,0.774456,-0.361608,1.196088,-649.039978,-16.799999,102.059998,21.13
2225940,0.739808,-0.540216,1.374696,-634.760010,-24.920000,110.529999,21.15
2225951,0.735904,-0.516792,1.345416,-580.090027,-25.129999,118.580002,21.15
2225962,0.626592,-0.294752,1.124840,-504.209991,-27.719999,130.339996,21.21
2225973,0.648064,-0.408944,0.795928,-380.589996,-22.610001,106.330002,21.21
2225984,0.664656,-0.370880,0.317200,-252.559998,-4.690000,84.070000,21.12
2225996,0.485560,-0.563152,-0.164456,-94.849998,-8.960000,48.930000,21.11
2226007,0.467992,-0.749080,-0.279624,56.980000,-15.540000,2.310000,21.11
2226018,0.565104,-0.974048,-0.089304,171.360001,-24.850000,-5.880000,21.18
2226029,0.597312,-1.089704,0.313296,221.199997,-26.250000,-24.150000,21.18
2226040,0.570960,-1.161440,0.627568,233.309998,-3.780000,-34.230000,21.14
2226052,0.460672,-1.300520,0.724192,228.970001,-17.639999,-49.700001,21.16
2226063,0.488000,-1.198040,0.731024,215.600006,-5.950000,-51.799999,21.16
2226074,0.412848,-0.995520,0.658800,198.869995,2.310000,-58.799999,21.16
2226085,0.434320,-0.964776,0.517768,246.679993,4.970000,-68.879997,21.16
2226096,0.465552,-0.741760,0.476776,305.760010,11.200000,-82.459999,21.12
2226107,0.439200,-0.596336,0.533384,396.690002,14.000000,-100.589996,21.12
2226118,0.413824,-0.508984,0.650504,490.350006,4.270000,-119.000000,21.12
2226129,0.422120,-0.378200,0.797880,549.010010,-8.750000,-126.139999,21.20
2226140,0.462136,-0.266936,0.906704,589.750000,-15.330000,-127.889999,21.20
2226151,0.458720,-0.244000,0.847168,594.440002,-26.180000,-124.180000,21.18
2226163,0.478240,0.166408,0.838384,473.410004,-29.120001,-104.510002,21.16
2226174,0.495320,0.329888,0.773968,316.679993,-19.389999,-85.330002,21.16
2226185,0.494832,0.327936,0.500688,107.800003,12.530000,-63.560001,21.14
2226201,0.228384,0.585600,0.122976,-197.399994,2.030000,-13.580000,21.15
2226212,0.447008,0.690520,0.221552,-385.559998,6.720000,29.400000,21.15
2226223,0.566568,0.644648,0.433344,-533.890015,5.250000,57.400002,21.16
2226234,0.640744,0.058560,0.731024,-600.530029,1.540000,81.199997,21.16
2226245,0.739808,-0.284504,1.035536,-634.830017,-0.210000,94.849998,21.18
2226256,0.719312,-0.341600,1.161440,-651.630005,-3.640000,102.059998,21.11
2226267,0.700768,-0.524600,1.161440,-633.150024,-10.500000,112.699997,21.11
2226278,0.679784,-0.575352,1.096536,-562.169983,-10.010000,118.160004,21.13
2226289,0.602192,-0.374296,0.914024,-483.350006,-9.450000,121.940002,21.13
2226300,0.625128,-0.560712,0.691008,-364.910004,-2.660000,95.690002,21.17
2226311,0.569984,-0.562664,0.380152,-247.449997,2.940000,75.809998,21.12
2226322,0.489464,-0.549976,0.062464,-105.699997,-2.660000,37.660000,21.12
2226333,0.508496,-0.719800,-0.029280,31.639999,-2.380000,23.170000,21.18
2226344,0.554368,-0.951112,0.065880,132.229996,-13.370000,-1.330000,21.18
2226355,0.615368,-0.896944,0.370392,216.580002,-13.510000,-20.510000,21.16
2226366,0.595848,-1.006744,0.601216,251.020004,-10.430000,-36.959999,21.09
2226377,0.557296,-1.230248,0.678808,308.209991,-4.970000,-50.189999,21.09
2226388,0.376736,-0.991128,0.756888,349.929993,-3.640000,-60.340000,21.11
2226399,0.468968,-0.835456,0.776408,403.619995,-2.660000,-73.989998,21.11
2226410,0.471408,-0.742248,0.796904,481.320007,-0.700000,-85.120003,21.16
2226421,0.434808,-0.446520,0.834968,540.960022,-4.270000,-102.830002,21.16
2226432,0.477752,-0.312808,0.900848,575.190002,-6.650000,-111.510002,21.14
2226443,0.516792,-0.246440,0.916952,597.309998,-9.380000,-112.629997,21.11
2226455,0.455792,-0.162016,0.807640,578.409973,-20.650000,-109.199997,21.11
2226466,0.506544,0.165432,0.787632,447.649994,-21.209999,-84.980003,21.15
2226477,0.473848,0.085888,0.755424,312.200012,-12.390000,-71.889999,21.15
2226488,0.370880,0.129808,0.553880,117.459999,-3.780000,-43.259998,21.12
2226499,0.178608,0.437248,0.352824,-109.269997,-0.840000,-12.320000,21.09
2226510,0.300120,0.635864,0.336232,-330.820007,1.540000,25.620001,21.09
2226521,0.447984,0.831064,0.520208,-486.010010,2.800000,65.169998,21.18
2226532,0.554368,0.422608,0.684176,-608.020020,0.980000,88.970001,21.18
2226542,0.686128,-0.143960,0.875960,-643.929993,-1.610000,105.769997,21.14
2226553,0.665632,-0.292312,1.157536,-662.409973,-9.800000,113.400002,21.13
2226564,0.682712,-0.442128,1.243424,-650.159973,-18.059999,123.059998,21.13
2226576,0.661240,-0.519232,1.198528,-592.409973,-18.410000,132.089996,21.14
2226587,0.582184,-0.294264,1.009672,-534.309998,-24.010000,138.880005,21.14
2226598,0.682712,-0.546072,0.690520,-405.790009,-14.070000,112.349998,21.20
2226609,0.569008,-0.424072,0.291336,-250.250000,-6.930000,90.650002,21.11
2226620,0.502152,-0.559248,-0.038064,-90.860001,-8.400000,58.240002,21.11
2226631,0.488976,-0.816424,-0.191784,34.720001,-15.750000,24.360001,21.18
2226642,0.505568,-0.920368,0.024400,162.610001,-27.090000,0.490000,21.18
2226653,0.601704,-1.108248,0.278648,243.389999,-28.280001,-12.740000,21.14
2226664,0.639768,-1.092144,0.631472,265.790009,-15.050000,-27.160000,21.14
2226675,0.461160,-1.340536,0.743712,283.850006,-19.740000,-46.830002,21.13
2226686,0.523624,-1.185840,0.806176,300.790009,-6.510000,-52.849998,21.13
2226697,0.435296,-1.092632,0.780312,332.429993,-4.200000,-63.630001,21.13
2226708,0.398696,-0.916464,0.694912,382.760010,0.000000,-78.190002,21.14
2226719,0.429440,-0.665632,0.718824,471.170013,-1.330000,-97.230003,21.14
2226731,0.404064,-0.453352,0.824232,557.340027,-10.850000,-114.870003,21.12
2226741,0.428952,-0.340136,0.926712,622.580017,-25.340000,-122.010002,21.11
2226752,0.441152,-0.401624,0.909632,665.000000,-43.889999,-123.059998,21.11
2226763,0.535336,0.072712,0.778848,623.489990,-45.220001,-106.820000,21.19
2226774,0.479704,0.219112,0.825208,510.019989,-46.410000,-96.389999,21.19
2226785,0.449936,0.099064,0.765672,332.989990,-34.580002,-83.160004,21.14
2226797,0.280600,0.482632,0.589504,85.959999,-21.209999,-55.020000,21.15
2226808,0.149816,0.709064,0.274256,-118.089996,-11.270000,-13.160000,21.15
2226819,0.281576,0.864248,0.165432,-329.769989,-6.510000,26.740000,21.18
