timestamp_ms,ax,ay,az,gx,gy,gz,tempC
755036,0.421632,0.347944,0.744688,21.629999,-3.360000,-24.360001,19.93
755047,0.458720,0.383568,0.746640,16.450001,1.120000,-25.480000,19.90
755058,0.445544,0.391376,0.780800,14.280000,0.350000,-27.510000,19.86
755069,0.449448,0.379664,0.788120,17.430000,2.520000,-22.889999,19.86
755080,0.413824,0.358192,0.785680,21.980000,-2.870000,-21.070000,19.93
755091,0.433344,0.355752,0.792512,26.459999,-3.220000,-21.629999,19.93
755102,0.428952,0.368928,0.766160,26.040001,0.420000,-19.459999,19.92
755113,0.407968,0.383080,0.738832,21.280001,0.770000,-18.270000,19.90
755124,0.387960,0.406016,0.732488,16.030001,3.640000,-14.560000,19.90
755135,0.391376,0.396744,0.700768,12.600000,6.440000,-14.980000,19.86
755146,0.393816,0.383568,0.664656,5.460000,9.100000,-13.790000,19.86
755157,0.381616,0.378688,0.653920,-0.840000,14.000000,-14.070000,19.93
755168,0.368440,0.378688,0.653432,-4.830000,14.210000,-12.390000,19.93
755179,0.372832,0.358680,0.661728,-10.850000,16.100000,-11.480000,19.86
755190,0.382592,0.354288,0.710528,-14.070000,17.010000,-11.760000,19.87
755201,0.371368,0.362096,0.756400,-13.860000,16.799999,-11.130000,19.87
755212,0.359656,0.382104,0.783240,-14.350000,14.560000,-9.520000,19.91
755223,0.364536,0.380640,0.806176,-14.560000,12.880000,-8.260000,19.91
755234,0.365512,0.364536,0.835944,-14.000000,11.410000,-7.490000,19.88
755245,0.363072,0.356728,0.858880,-12.390000,9.940000,-6.860000,19.88
755256,0.360144,0.346480,0.858880,-10.710000,7.840000,-5.390000,19.88
755268,0.353312,0.329888,0.848144,-9.030000,5.530000,-4.830000,19.91
755278,0.348920,0.310368,0.832528,-6.090000,3.780000,-5.110000,19.91
755289,0.359168,0.294752,0.820816,-3.500000,2.660000,-4.970000,19.97
755300,0.367464,0.303536,0.825208,-3.220000,2.240000,-4.760000,19.86
755311,0.371368,0.304512,0.831552,-2.380000,1.610000,-4.690000,19.86
755322,0.372344,0.327448,0.836920,-2.100000,0.700000,-4.060000,19.90
755333,0.363560,0.361120,0.860344,-2.800000,-1.610000,-2.870000,19.90
755344,0.374784,0.367952,0.869128,-8.960000,-2.520000,-0.770000,19.92
755356,0.391864,0.349408,0.874008,-14.280000,-2.520000,-0.070000,19.89
755367,0.391376,0.317688,0.873520,-17.150000,-1.820000,0.140000,19.89
755378,0.394792,0.282552,0.880840,-18.410000,-2.450000,-0.070000,19.90
755389,0.400160,0.260104,0.886696,-16.379999,-2.660000,-0.770000,19.90
755400,0.408456,0.239120,0.878400,-12.810000,-2.520000,-1.190000,19.93
755411,0.417728,0.229360,0.880352,-7.490000,-2.240000,-2.660000,19.93
755422,0.421632,0.232776,0.872544,-2.310000,-1.330000,-3.780000,19.92
755434,0.416752,0.247416,0.869616,1.540000,-0.980000,-4.620000,19.91
755445,0.419680,0.268400,0.875960,3.780000,-0.910000,-4.970000,19.91
755456,0.416264,0.272792,0.886696,2.520000,-0.280000,-4.690000,19.94
755467,0.419192,0.279624,0.908656,1.470000,-0.420000,-4.900000,19.94
755478,0.414312,0.288896,0.913536,1.820000,-0.490000,-4.830000,19.90
755489,0.419192,0.297680,0.902800,0.980000,-0.490000,-4.200000,19.88
755500,0.425048,0.302560,0.902312,-0.210000,0.350000,-3.920000,19.88
755511,0.416752,0.299144,0.899384,-1.190000,0.770000,-3.500000,19.91
755522,0.404552,0.289384,0.901336,-1.960000,0.420000,-3.080000,19.91
755534,0.403088,0.292312,0.915000,-3.150000,-0.210000,-2.310000,19.87
755545,0.396256,0.294752,0.920856,-4.270000,-0.490000,-1.610000,19.92
755556,0.399184,0.298656,0.919392,-5.810000,-0.840000,-1.540000,19.92
755567,0.403576,0.294264,0.917928,-6.930000,-0.420000,-0.700000,19.90
755578,0.405040,0.290848,0.911096,-7.210000,0.280000,-0.280000,19.90
755589,0.401624,0.283040,0.912560,-8.470000,0.140000,0.140000,19.91
755600,0.400160,0.274744,0.921832,-8.120000,0.140000,-0.280000,19.89
755611,0.399184,0.275720,0.929640,-7.140000,-0.560000,-0.210000,19.89
755622,0.400160,0.272304,0.935984,-7.490000,-1.050000,-0.420000,19.91
755633,0.396256,0.260104,0.941352,-6.650000,-1.750000,-0.910000,19.91
755644,0.402600,0.254736,0.937448,-4.900000,-2.170000,-1.190000,19.92
755655,0.406992,0.252296,0.930616,-4.620000,-2.030000,-1.260000,19.89
755667,0.406504,0.250344,0.921832,-4.060000,-2.240000,-1.400000,19.89
755678,0.398208,0.245952,0.916952,-2.940000,-2.590000,-1.750000,19.96
755688,0.396744,0.247416,0.914512,-1.190000,-3.290000,-1.890000,19.96
755700,0.391376,0.257664,0.902800,-0.280000,-4.130000,-1.680000,19.95
755711,0.392840,0.275232,0.902312,0.000000,-4.690000,-0.910000,19.88
755721,0.406504,0.286456,0.901336,-1.680000,-4.340000,0.140000,19.88
755732,0.413824,0.289872,0.894992,-3.430000,-3.780000,0.700000,19.89
755743,0.413336,0.287432,0.906704,-4.900000,-3.360000,1.750000,19.89
755754,0.410896,0.287920,0.912560,-6.370000,-3.500000,2.380000,19.94
755765,0.403576,0.271816,0.912072,-7.280000,-4.060000,2.730000,19.94
755776,0.403576,0.259128,0.906704,-6.860000,-4.340000,2.800000,19.88
755787,0.408456,0.251808,0.891576,-5.320000,-4.270000,3.010000,19.88
755798,0.407480,0.243512,0.883280,-3.990000,-3.780000,2.520000,19.88
755809,0.406992,0.245464,0.879376,-3.010000,-3.150000,2.660000,19.95
755820,0.404552,0.249368,0.890112,-3.010000,-3.150000,2.730000,19.95
755830,0.402600,0.241072,0.893040,-1.260000,-3.570000,2.800000,19.91
755841,0.398208,0.244000,0.896944,-0.490000,-4.130000,2.730000,19.90
755852,0.401624,0.249856,0.898896,0.630000,-4.690000,2.380000,19.90
755863,0.400648,0.253272,0.898408,0.770000,-5.180000,2.380000,19.93
755874,0.400648,0.261080,0.894992,0.840000,-5.110000,2.800000,19.93
755885,0.404552,0.267424,0.892064,-0.140000,-4.830000,3.220000,19.92
755896,0.406992,0.271328,0.897432,-2.380000,-4.550000,3.780000,19.92
755907,0.402600,0.260104,0.897432,-2.870000,-4.480000,4.060000,19.84
755918,0.399672,0.252784,0.895968,-3.220000,-4.900000,4.060000,19.89
755929,0.400648,0.252296,0.893040,-3.990000,-5.390000,4.340000,19.89
755940,0.406504,0.240584,0.891088,-3.920000,-5.390000,4.480000,19.93
755951,0.409920,0.235704,0.888160,-3.430000,-5.040000,3.990000,19.93
755962,0.410896,0.234240,0.890112,-3.430000,-4.340000,3.920000,19.90
755973,0.409432,0.223504,0.900360,-3.500000,-3.990000,3.640000,19.92
755984,0.410896,0.224480,0.903776,-2.380000,-4.200000,3.290000,19.92
755995,0.401624,0.223016,0.901824,-1.190000,-4.620000,2.590000,19.92
756006,0.400160,0.219600,0.899872,0.490000,-5.110000,1.960000,19.92
756017,0.403576,0.221552,0.891088,2.660000,-5.600000,1.190000,19.92
756027,0.406016,0.236680,0.887672,3.080000,-5.040000,1.400000,19.88
756038,0.409920,0.247416,0.888160,1.400000,-4.480000,1.470000,19.88
756049,0.409920,0.239120,0.889136,0.070000,-3.850000,1.610000,19.94
756060,0.406504,0.232776,0.891576,-0.910000,-3.710000,1.820000,19.94
756071,0.406992,0.228872,0.895480,-0.070000,-3.920000,1.400000,19.89
756082,0.408456,0.224480,0.892064,0.070000,-3.850000,1.260000,19.89
756093,0.407480,0.214232,0.888648,1.050000,-3.710000,0.560000,19.90
756104,0.413336,0.223016,0.894504,2.800000,-2.940000,0.280000,19.85
756115,0.415776,0.238144,0.897920,3.150000,-2.590000,0.630000,19.85
756126,0.409920,0.237656,0.884256,2.520000,-2.100000,0.350000,19.93
756137,0.408944,0.238144,0.885232,3.220000,-1.750000,0.490000,19.93
756148,0.409920,0.257664,0.891576,2.520000,-1.680000,0.980000,19.92
756158,0.411872,0.253272,0.900848,-0.350000,-1.540000,1.190000,19.90
756169,0.410896,0.240096,0.904264,-1.330000,-1.540000,1.050000,19.90
756180,0.413336,0.232776,0.903776,-1.960000,-1.260000,1.260000,19.92
756191,0.411384,0.230336,0.908656,-1.890000,-1.190000,1.330000,19.92
756202,0.405040,0.227896,0.903776,-0.840000,-1.820000,0.840000,19.91
756213,0.413824,0.223992,0.905240,-0.560000,-1.610000,0.840000,19.91
756224,0.411872,0.223992,0.915000,-0.560000,-1.890000,0.840000,19.90
756235,0.413824,0.222528,0.917440,0.000000,-1.890000,0.210000,19.89
756246,0.408456,0.214232,0.905240,1.260000,-1.890000,-0.700000,19.89
756257,0.410408,0.218136,0.902312,2.800000,-2.240000,-0.840000,19.91
756268,0.414800,0.240584,0.904752,2.660000,-2.660000,-0.770000,19.91
756279,0.417728,0.241560,0.911584,0.070000,-3.080000,-0.910000,19.93
756289,0.412360,0.231312,0.912072,-0.770000,-3.640000,-1.120000,19.93
756301,0.415288,0.228384,0.910120,-1.260000,-3.850000,-1.190000,19.93
756311,0.416264,0.233264,0.909632,-1.960000,-4.270000,-1.330000,19.94
756323,0.418216,0.225944,0.909632,-2.170000,-4.480000,-1.330000,19.94
756334,0.421144,0.223504,0.897432,-1.330000,-4.270000,-1.330000,19.95
756345,0.418216,0.224968,0.895968,-1.260000,-4.200000,-1.190000,19.91
756356,0.416752,0.231800,0.896456,-0.070000,-4.270000,-1.330000,19.91
756367,0.418216,0.237168,0.891576,0.560000,-4.270000,-1.540000,19.90
756378,0.421632,0.246928,0.896456,0.420000,-3.780000,-1.050000,19.90
756389,0.422608,0.246440,0.894504,-0.210000,-3.500000,-0.910000,19.96
756399,0.415776,0.238632,0.895968,0.350000,-3.640000,-1.120000,19.96
756411,0.417240,0.245952,0.899384,1.890000,-3.920000,-0.560000,19.90
756422,0.415776,0.252784,0.894504,1.680000,-4.270000,-0.210000,19.91
756432,0.419680,0.251320,0.886208,1.400000,-4.270000,0.140000,19.91
756444,0.416752,0.257176,0.882304,1.050000,-3.780000,0.910000,19.95
756454,0.422120,0.259128,0.889624,-0.140000,-3.430000,1.610000,19.95
756466,0.423584,0.245952,0.897432,-1.470000,-3.080000,2.030000,19.94
756477,0.421144,0.231800,0.910120,-0.980000,-3.220000,2.310000,19.90
756488,0.419680,0.227408,0.909632,0.840000,-3.990000,2.030000,19.90
756498,0.420168,0.228872,0.913048,0.910000,-4.690000,2.100000,19.96
756509,0.416264,0.221552,0.918904,1.400000,-5.600000,1.680000,19.96
756520,0.414312,0.212280,0.909144,3.080000,-6.440000,1.540000,19.93
756531,0.424072,0.219112,0.900360,4.270000,-6.650000,1.470000,19.91
756542,0.420656,0.235704,0.899384,3.430000,-7.280000,1.470000,19.91
756553,0.422608,0.237168,0.911584,1.610000,-7.630000,1.960000,19.88
756564,0.418704,0.246440,0.939888,-0.210000,-8.820000,2.380000,19.88
756576,0.415776,0.260592,0.988200,-5.740000,-11.550000,3.990000,19.93
756587,0.409432,0.244000,1.020408,-11.270000,-15.400000,4.760000,19.92
756598,0.401136,0.223992,1.032120,-16.170000,-20.370001,6.370000,19.92
756609,0.396256,0.227896,1.102880,-23.520000,-26.879999,9.240000,19.91
756620,0.383080,0.235704,1.226344,-32.970001,-34.930000,10.010000,19.91
756632,0.374784,0.371856,1.290272,-33.669998,-47.040001,9.870000,19.95
756643,0.362584,0.265472,1.284416,-35.139999,-62.509998,11.060000,19.92
756655,0.373320,0.278160,1.250256,-42.209999,-79.169998,13.440000,19.92
756666,0.360144,0.244488,1.195600,-50.470001,-95.410004,14.070000,19.88
756677,0.335256,0.155184,1.106296,-49.490002,-113.330002,12.110000,19.88
756687,0.347456,0.165920,0.973560,-40.110001,-126.910004,12.460000,19.93
756698,0.438224,0.435296,0.871568,-45.360001,-136.639999,20.930000,19.93
756709,0.460672,0.639768,0.796416,-72.800003,-145.740005,27.230000,19.91
756720,0.534360,0.588528,0.805688,-111.650002,-148.539993,31.920000,19.93
756731,0.559248,0.419192,0.803736,-127.190002,-151.830002,37.520000,19.93
756742,0.515328,0.233264,0.706624,-135.660004,-156.940002,32.410000,19.89
756753,0.524112,0.249368,0.656848,-139.229996,-162.889999,35.630001,19.89
756764,0.568520,0.204472,0.448472,-115.360001,-167.440002,36.049999,19.98
756775,0.631960,0.270840,0.343552,-142.309998,-153.440002,28.629999,19.96
756786,0.791048,0.245952,0.351848,-118.019997,-151.199997,40.669998,19.96
756797,0.774944,0.248392,0.284992,-112.980003,-130.059998,33.250000,19.92
756808,0.894504,0.141520,0.291824,-93.449997,-129.149994,50.189999,19.92
756819,0.819840,0.138104,0.233752,-63.630001,-108.639999,45.849998,19.93
756830,0.888160,0.254248,0.115656,-32.270000,-95.970001,60.549999,19.93
756841,0.903776,0.421144,0.021960,-33.599998,-71.750000,70.559998,19.93
756852,0.981856,0.327936,-0.004880,-39.340000,-41.930000,87.570000,19.92
756863,0.959408,0.204960,0.077104,-44.939999,-17.709999,100.730003,19.92
756874,0.872056,0.216672,0.232288,-40.250000,1.330000,113.889999,19.93
756885,0.791048,0.239608,0.377712,-60.130001,20.860001,121.940002,19.93
756895,0.771040,0.119072,0.540216,-84.769997,27.650000,141.190002,19.94
756906,0.705648,-0.069296,0.647088,-110.809998,28.139999,154.910004,19.89
756917,0.565104,-0.335256,0.634400,-124.949997,37.590000,145.460007,19.89
756928,0.609512,-0.608536,0.725656,-134.190002,29.680000,154.770004,19.93
756939,0.486536,-0.882792,0.710528,-144.970001,31.850000,130.410004,19.93
756950,0.480192,-1.105808,0.683688,-132.440002,26.180000,117.250000,19.93
756961,0.397720,-1.215120,0.738832,-131.949997,18.549999,88.410004,19.88
756973,0.331352,-1.615280,0.768600,-114.169998,9.940000,48.790001,19.88
756984,0.348920,-1.883192,0.838872,-62.020000,-1.960000,11.900000,19.93
756995,0.404552,-1.897832,0.933544,-13.720000,-18.620001,-33.950001,19.93
757006,0.480192,-1.814872,0.973072,13.440000,-35.490002,-74.129997,19.91
757017,0.514352,-1.538176,0.950624,33.180000,-48.790001,-108.919998,19.93
757028,0.527528,-1.323944,0.766648,36.820000,-59.709999,-134.050003,19.93
757039,0.528016,-1.082872,0.739808,53.270000,-80.430000,-153.160004,19.95
757050,0.577792,-0.833016,0.575352,53.270000,-69.160004,-197.190002,19.95
757061,0.634400,-0.703208,0.393816,79.800003,-78.260002,-211.259995,19.93
757072,0.618784,-0.472872,0.372832,128.100006,-84.980003,-223.720001,19.93
757083,0.603656,-0.170800,0.353312,193.410004,-95.269997,-227.220001,19.90
757094,0.605120,0.163480,0.330864,244.789993,-110.180000,-220.429993,19.90
757105,0.637328,0.467016,0.256200,319.899994,-123.269997,-199.990005,19.90
757117,0.721752,0.778360,0.117608,397.600006,-135.380005,-179.199997,19.95
757128,0.885232,0.942816,-0.012200,467.109985,-138.460007,-150.850006,19.88
757139,1.001376,0.933056,-0.096624,492.519989,-127.610001,-117.739998,19.88
757150,1.034560,0.907680,-0.385032,458.570007,-103.879997,-96.040001,19.93
757161,1.034560,0.541680,-0.307928,425.459991,-80.360001,-83.370003,19.93
757172,0.913048,0.153232,-0.387472,350.209991,-25.549999,-68.599998,19.95
757183,0.629032,0.471896,-0.404064,259.140015,10.150000,-48.230000,19.95
757194,0.515816,0.867664,-0.360144,127.330002,28.559999,-12.810000,19.89
757205,0.615856,1.078480,-0.419680,-18.480000,44.310001,19.389999,19.90
757217,0.791536,1.231712,-0.447008,-181.160004,65.169998,53.410000,19.90
757228,0.874496,0.966728,-0.336720,-302.820007,89.949997,78.050003,19.91
757239,0.831552,0.596824,-0.194224,-374.709991,106.050003,105.839996,19.91
757250,0.751520,0.267424,0.138592,-424.269989,109.830002,133.350006,19.90
757261,0.704184,0.178120,0.536312,-432.529999,105.279999,154.699997,19.88
757273,0.851560,-0.014640,0.938912,-413.070007,128.100006,206.500000,19.88
757284,0.680272,-0.124928,1.023824,-375.760010,91.489998,192.500000,19.96
757295,0.842288,-0.049288,1.165832,-374.220001,76.300003,196.350006,19.96
757306,0.826184,-0.143472,1.055544,-353.149994,61.389999,178.639999,19.88
757317,0.975512,-0.086864,0.796904,-334.250000,50.330002,174.860001,19.87
757328,0.808616,-0.304512,0.357704,-317.730011,41.650002,156.100006,19.87
757339,0.575352,-0.952088,0.097600,-232.889999,37.730000,125.230003,19.94
757350,0.425536,-1.498648,0.083936,-78.400002,27.090000,90.930000,19.94
757362,0.515816,-1.695800,0.456768,65.870003,20.299999,31.150000,19.93
757373,0.589504,-1.525976,0.836920,138.949997,-12.180000,2.240000,19.90
757384,0.703696,-1.353712,1.186328,131.460007,-23.799999,-28.280001,19.90
757395,0.683200,-1.209264,1.300032,82.599998,-36.889999,-56.209999,19.95
757406,0.667584,-1.163880,1.173640,29.540001,-55.580002,-76.089996,19.95
757417,0.645624,-0.952576,0.946232,-6.300000,-71.260002,-96.599998,19.94
757428,0.703696,-0.754936,0.620736,-22.680000,-74.760002,-116.339996,19.91
757440,0.710528,-0.645624,0.274744,-11.760000,-75.739998,-126.839996,19.91
757451,0.745176,-0.515328,0.087840,39.200001,-63.139999,-152.600006,19.93
757462,0.739320,-0.377224,0.073200,100.800003,-63.490002,-178.360001,19.93
757473,0.761768,-0.251320,0.073688,181.229996,-63.349998,-165.339996,19.88
757484,0.845704,-0.115656,0.027328,246.470001,-70.209999,-166.250000,19.90
757495,0.906704,0.093208,0.055632,317.799988,-68.250000,-161.419998,19.90
757506,0.972584,0.272792,0.046848,383.670013,-69.160004,-153.509995,19.94
757517,1.013088,0.379664,0.010248,445.200012,-66.849998,-142.940002,19.94
757528,1.030656,0.398696,-0.029768,486.779999,-51.590000,-124.739998,19.93
757539,0.951112,0.608048,0.194712,433.859985,-41.299999,-93.660004,19.94
757550,0.777384,1.030656,0.250832,256.760010,-28.980000,-74.410004,19.94
757561,0.711504,0.817888,0.187392,99.260002,-14.910000,-54.389999,19.92
757572,0.674416,0.403576,-0.240096,-46.759998,7.980000,-30.520000,19.92
757583,0.744200,0.602680,-0.460184,-155.190002,36.470001,12.180000,19.94
757594,0.823256,1.042856,-0.392840,-238.770004,42.419998,63.070000,19.94
757604,0.924760,1.321016,-0.118096,-365.470001,49.910000,107.800003,19.93
757615,0.933056,0.999912,0.129320,-435.260010,59.290001,142.240005,19.86
757626,0.879376,0.404552,0.463112,-439.950012,64.820000,173.880005,19.86
757637,0.907680,0.164944,0.707600,-410.339996,64.540001,188.020004,19.91
757648,0.864248,0.037088,0.809104,-369.459991,49.700001,188.509995,19.91
757660,0.897432,-0.087352,0.796416,-300.299988,46.200001,192.919998,19.93
757671,0.887184,0.222528,0.514352,-245.559998,39.480000,179.199997,19.90
757682,0.812520,0.247416,0.124928,-216.860001,49.840000,171.919998,19.90
757693,0.548024,-0.351848,-0.204960,-149.309998,55.860001,156.309998,19.95
757704,0.515816,-1.279536,-0.173240,-28.209999,54.810001,124.669998,19.95
757715,0.596336,-1.567944,0.261080,63.490002,55.930000,73.360001,19.93
757726,0.570472,-1.403488,0.841800,109.480003,29.959999,47.669998,19.89
757737,0.666120,-1.257576,1.199504,95.830002,11.970000,24.709999,19.89
757748,0.664656,-1.245864,1.337120,57.400002,-7.490000,-3.080000,19.92
757759,0.654896,-1.196088,1.231224,11.060000,-24.990000,-31.570000,19.92
757770,0.659776,-1.063840,0.959896,-25.830000,-39.900002,-56.910000,19.94
757781,0.739808,-1.003328,0.582184,-37.939999,-41.090000,-76.440002,19.88
757793,0.728584,-0.932568,0.305976,-5.670000,-38.500000,-101.150002,19.88
757804,0.696864,-0.768112,0.109312,39.970001,-37.660000,-123.480003,19.90
757815,0.758840,-0.613904,0.057096,104.440002,-26.600000,-147.490005,19.90
757826,0.761768,-0.494344,0.086376,171.710007,-34.369999,-160.580002,19.92
757837,0.779824,-0.378200,0.187392,245.139999,-38.639999,-168.279999,19.92
757848,0.830088,-0.231800,0.226920,316.049988,-50.959999,-173.320007,19.92
757860,0.876936,0.013176,0.276696,374.220001,-55.790001,-174.089996,19.91
757871,0.896944,0.299632,0.247416,434.350006,-63.630001,-157.360001,19.91
757881,0.952088,0.470432,0.244976,463.750000,-66.150002,-142.869995,19.92
757892,0.955992,0.709552,0.299632,443.170013,-59.919998,-120.330002,19.92
757903,0.887184,0.725656,0.390400,360.640015,-52.150002,-101.220001,19.95
757915,0.768600,0.597800,0.258640,232.470001,-36.540001,-88.199997,19.93
757926,0.710528,0.608536,0.033672,87.570000,-10.500000,-69.510002,19.93
757936,0.641720,0.763720,-0.291824,-15.960000,14.840000,-28.490000,19.94
757947,0.679784,1.020408,-0.539728,-128.100006,27.930000,11.970000,19.94
757958,0.841800,1.257576,-0.480680,-261.940002,39.200001,48.230000,19.95
757970,0.874008,1.151680,-0.124928,-361.339996,52.639999,85.120003,19.91
757980,0.856928,0.790072,0.100040,-407.679993,58.869999,123.830002,19.91
757991,0.825696,0.404064,0.422608,-404.600006,69.510002,148.960007,19.92
758002,0.816912,0.260592,0.599264,-365.959991,61.669998,160.229996,19.92
758013,0.850584,0.312320,0.752496,-344.049988,53.619999,173.809998,19.91
758024,0.884256,0.237656,0.713456,-306.390015,59.430000,183.259995,19.86
758035,0.936960,0.058560,0.542656,-274.260010,51.169998,172.970001,19.86
758046,0.921344,-0.051728,0.431392,-237.929993,53.130001,171.570007,19.93
758057,0.709064,-0.115168,0.247904,-190.119995,47.810001,165.339996,19.93
758068,0.598776,-0.478728,0.082960,-137.059998,51.029999,150.289993,19.92
758080,0.538752,-1.075064,0.079544,-54.880001,51.169998,125.860001,19.94
758091,0.553880,-1.315648,0.351848,17.990000,48.020000,88.129997,19.94
758104,0.543144,-1.294176,0.874496,75.669998,31.570000,51.520000,19.94
758116,0.641232,-1.297104,1.158024,69.790001,16.730000,24.150000,19.94
758126,0.650016,-1.286856,1.260016,37.029999,0.630000,-0.560000,19.95
758137,0.622200,-1.170712,1.227320,0.000000,-20.440001,-26.670000,19.91
758149,0.691984,-1.152656,0.976000,-35.419998,-27.930000,-51.939999,19.91
758160,0.687592,-1.091656,0.634400,-29.469999,-29.680000,-78.889999,19.97
758171,0.686128,-0.993568,0.346968,6.020000,-33.110001,-104.300003,19.97
758182,0.711992,-0.873032,0.199592,58.029999,-32.970001,-123.059998,19.95
758193,0.725656,-0.796416,0.159088,130.339996,-32.340000,-148.190002,19.89
758205,0.746640,-0.615368,0.255712,190.190002,-34.930000,-168.490005,19.89
758216,0.730536,-0.420168,0.341112,259.070007,-41.090000,-183.820007,19.93
758227,0.738832,-0.295240,0.391376,330.260010,-56.630001,-186.690002,19.93
758238,0.763232,-0.058560,0.393328,401.309998,-74.690002,-186.130005,19.91
758249,0.839360,0.214720,0.332816,438.690002,-84.209999,-174.160004,19.92
758260,0.910120,0.376248,0.280600,469.489990,-89.669998,-144.759995,19.92
758271,0.939888,0.492880,0.198128,497.559998,-81.269997,-143.500000,19.91
758282,0.880352,0.527040,0.175680,525.770020,-73.919998,-123.059998,19.91
758293,0.793000,0.772016,0.172264,485.589996,-52.500000,-103.459999,19.95
758304,0.638792,1.044808,0.079544,309.679993,-43.400002,-88.620003,19.92
758315,0.628544,1.054568,-0.078080,127.190002,-27.790001,-53.900002,19.92
758326,0.601216,0.812520,-0.360144,-33.110001,8.050000,-27.299999,19.91
758337,0.612928,0.926712,-0.650016,-123.550003,36.540001,13.300000,19.91
758348,0.700768,1.192672,-0.571936,-247.169998,38.849998,49.980000,19.92
758360,0.816912,1.242936,-0.331352,-361.339996,42.770000,76.650002,19.91
758371,0.834480,0.958920,-0.027328,-448.910004,46.340000,102.129997,19.91
758382,0.762744,0.519720,0.378200,-463.540009,45.919998,120.889999,19.96
758393,0.773968,0.383080,0.634400,-455.209991,41.930000,139.369995,19.96
758404,0.813008,0.310368,0.844240,-433.089996,25.129999,163.169998,19.94
758415,0.976000,0.110776,0.911096,-398.440002,76.300003,193.550003,19.94
758425,0.814960,0.281088,0.848632,-385.209991,30.520000,183.190002,19.91
758440,0.970144,0.230824,0.620248,-346.709991,31.080000,178.570007,19.92
758451,0.852048,0.122976,0.345992,-332.149994,22.190001,167.929993,19.92
758462,0.709064,-0.337208,0.126392,-271.809998,25.410000,150.779999,19.90
758472,0.622688,-0.886696,-0.150792,-165.130005,25.129999,130.059998,19.91
758483,0.569496,-1.270264,-0.077592,-18.760000,29.260000,93.169998,19.91
758494,0.581696,-1.293200,0.199592,86.660004,26.389999,54.740002,19.94
758506,0.653920,-1.204872,0.665632,123.900002,9.940000,33.180000,19.94
758517,0.707112,-1.179008,1.056032,115.919998,-3.850000,11.340000,19.93
758528,0.722728,-1.127280,1.232688,69.510002,-16.240000,-11.200000,19.94
758539,0.676368,-1.077016,1.138992,15.400000,-30.309999,-32.130001,19.94
758550,0.655872,-0.932568,0.892552,-19.530001,-44.029999,-56.840000,19.95
758561,0.713456,-0.902312,0.522648,-15.260000,-41.580002,-79.239998,19.95
758572,0.749080,-0.704672,0.183976,8.260000,-40.740002,-91.559998,19.93
758583,0.773968,-0.654408,-0.000976,60.759998,-31.570000,-107.940002,19.90
758595,0.784704,-0.634400,-0.063440,144.410004,-29.190001,-124.879997,19.90
758606,0.770552,-0.417728,0.079544,215.529999,-30.870001,-141.889999,19.90
758617,0.763720,-0.208864,0.233752,297.709991,-37.730000,-157.850006,19.90
758628,0.853512,-0.078568,0.348920,365.609985,-45.009998,-163.660004,19.91
758639,0.954528,0.096624,0.409920,423.850006,-52.430000,-160.580002,19.91
758650,0.978928,0.212768,0.467992,471.589996,-53.900002,-152.320007,19.93
758661,0.981856,0.413336,0.461160,522.200012,-50.750000,-135.449997,19.92
758672,0.887672,0.600240,0.523136,532.210022,-50.400002,-119.699997,19.92
758684,0.773968,0.638304,0.487024,512.119995,-43.889999,-108.220001,19.95
758695,0.710528,0.748104,0.373808,424.269989,-42.070000,-82.809998,19.95
758705,0.652944,0.657824,0.144936,281.049988,-23.660000,-60.270000,19.94
758716,0.692472,0.692472,-0.300608,109.900002,9.170000,-45.009998,19.94
758728,0.647576,0.881328,-0.579744,-75.320000,36.119999,-2.100000,19.94
758739,0.737368,1.129232,-0.569984,-198.029999,31.500000,37.730000,19.90
758750,0.751520,1.264408,-0.271816,-341.179993,23.730000,81.830002,19.90
758761,0.809592,1.054080,0.068808,-430.290009,19.250000,94.989998,19.93
758772,0.783240,0.642696,0.464576,-467.179993,16.660000,111.230003,19.93
758783,0.768600,0.322568,0.740296,-472.850006,9.800000,125.160004,19.93
758794,0.822280,0.229360,0.905240,-455.279999,-3.570000,140.699997,19.94
758805,1.195600,0.128344,0.944768,-414.260010,59.360001,180.039993,19.94
758816,0.862296,0.117120,0.680760,-357.769989,0.700000,161.490005,19.91
758827,1.026264,0.266936,0.633912,-354.899994,9.310000,159.880005,19.94
758837,1.015528,0.361120,0.358680,-325.779999,8.260000,152.880005,19.94
758848,0.872056,0.112240,0.167872,-315.420013,14.630000,139.369995,19.92
758859,0.706624,-0.308904,-0.030744,-223.860001,20.020000,120.889999,19.92
758870,0.624640,-0.836920,-0.101992,-102.129997,18.690001,103.669998,19.93
758881,0.639280,-1.196576,-0.044896,6.510000,20.160000,72.099998,19.93
758892,0.746640,-1.070672,0.265472,90.019997,21.490000,47.389999,19.92
758903,0.755912,-0.961848,0.662704,106.050003,14.070000,30.100000,19.91
758914,0.714432,-0.963312,0.895480,95.410004,-1.680000,15.470000,19.91
758925,0.806176,-0.976488,1.021872,52.990002,-10.570000,-8.050000,19.92
758936,0.721264,-0.880840,0.991616,-5.320000,-22.889999,-19.950001,19.92
758947,0.746152,-0.887184,0.842776,-40.950001,-27.299999,-36.750000,19.98
758959,0.768600,-0.888648,0.471896,-33.040001,-25.200001,-54.669998,19.91
758970,0.756888,-0.718824,0.157624,-0.630000,-20.299999,-67.690002,19.91
758981,0.766648,-0.606584,-0.052216,51.660000,-10.220000,-85.820000,19.92
758992,0.772504,-0.590480,-0.101016,135.380005,-3.150000,-106.470001,19.92
759004,0.756888,-0.411872,0.135176,225.820007,-3.990000,-125.650002,19.90
759015,0.796416,-0.354776,0.317200,321.720001,-10.080000,-148.820007,19.87
759026,0.876936,-0.278160,0.500688,413.209991,-21.770000,-164.009995,19.87
759038,0.941840,-0.068320,0.609024,469.630005,-31.990000,-159.179993,19.95
759049,0.936472,0.138592,0.685640,516.460022,-46.480000,-152.320007,19.95
759060,0.919880,0.445544,0.692960,485.029999,-57.049999,-134.470001,19.93
759070,0.878888,0.578280,0.654896,436.239990,-60.340000,-118.650002,19.91
759082,0.796416,0.393328,0.534360,415.309998,-51.029999,-119.699997,19.91
759093,0.735904,0.376248,0.165432,375.480011,-39.900002,-102.830002,19.94
759104,0.643184,0.311832,-0.066368,349.929993,-19.459999,-75.110001,19.94
759115,0.689544,0.938912,-0.332816,193.479996,6.860000,-49.490002,19.91
759126,0.730048,1.432768,-0.546072,18.900000,22.680000,-11.970000,19.93
759137,0.736880,1.186328,-0.713944,-178.220001,33.250000,24.780001,19.93
759148,0.732000,0.915000,-0.490440,-303.239990,42.770000,69.019997,19.91
759159,0.704184,0.924760,-0.109800,-375.760010,43.400002,60.130001,19.91
759170,0.691008,0.856440,0.212768,-422.380005,35.630001,83.720001,19.95
759181,0.723216,0.540704,0.466040,-442.399994,28.490000,99.400002,19.91
759193,0.790560,0.280600,0.651968,-433.579987,23.520000,118.089996,19.91
759204,1.026752,0.168848,0.693936,-399.070007,57.330002,156.800003,19.92
759214,0.936472,0.070760,0.729560,-343.910004,39.270000,153.160004,19.92
759226,0.877424,0.271816,0.792024,-359.100006,29.750000,156.449997,19.95
759237,0.980392,0.236192,0.714920,-339.500000,22.680000,164.080002,19.91
759248,0.929640,0.044408,0.556808,-336.140015,11.130000,155.119995,19.91
759259,0.931104,-0.041968,0.433832,-303.869995,19.389999,144.899994,19.91
759270,0.729560,-0.251320,0.239608,-252.070007,16.030001,135.800003,19.91
759280,0.658800,-0.606584,0.167872,-156.449997,14.490000,119.769997,19.92
759292,0.598776,-0.914024,0.094184,-64.330002,13.440000,93.449997,19.92
759303,0.630008,-1.045296,0.207400,31.990000,12.600000,63.980000,19.95
759314,0.693448,-1.132160,0.456768,83.720001,6.650000,44.169998,19.91
759325,0.716384,-1.162904,0.726144,97.370003,1.680000,20.930000,19.91
759335,0.719312,-1.074088,0.948672,77.769997,-5.670000,-3.080000,19.95
759347,0.668560,-0.957944,1.011136,33.250000,-17.430000,-18.480000,19.95
759358,0.683200,-0.904264,0.919880,-8.540000,-27.299999,-44.939999,19.90
759369,0.702720,-0.975024,0.629032,-13.160000,-32.410000,-63.209999,19.96
759380,0.709064,-0.738344,0.346480,5.390000,-31.430000,-84.279999,19.96
759391,0.742736,-0.615856,0.115656,33.880001,-26.320000,-98.699997,19.97
759403,0.753960,-0.657824,0.080520,101.570000,-24.219999,-112.209999,19.97
759414,0.739808,-0.559736,0.167384,187.740005,-28.280001,-133.210007,19.95
759425,0.762256,-0.368928,0.292800,256.130005,-34.230000,-154.000000,19.91
759436,0.841312,-0.260104,0.393816,334.320007,-41.439999,-162.050003,19.91
759447,0.918904,-0.122488,0.468968,400.609985,-45.990002,-166.320007,19.95
759458,0.911584,0.103456,0.490928,451.220001,-51.450001,-159.320007,19.95
759469,0.910608,0.261080,0.479704,480.970001,-56.700001,-143.289993,19.91
759480,0.919880,0.367464,0.455304,512.190002,-57.049999,-126.839996,19.91
759491,0.848144,0.337696,0.439200,537.809998,-55.509998,-114.800003,19.91
759503,0.724192,0.379664,0.346968,538.510010,-47.599998,-95.900002,19.94
759514,0.680272,0.721264,0.141520,443.940002,-43.119999,-90.790001,19.94
759525,0.657336,0.813008,0.038064,349.230011,-22.049999,-58.240002,19.96
759536,0.705648,0.946720,-0.284992,175.350006,-3.640000,-46.410000,19.93
759547,0.703208,1.057496,-0.508496,-22.260000,19.740000,-16.940001,19.93
759558,0.660752,0.950136,-0.608536,-154.910004,35.139999,11.620000,19.98
759569,0.683200,0.809104,-0.519232,-270.059998,40.529999,38.500000,19.98
759580,0.764208,0.781288,-0.351360,-345.519989,41.090000,57.959999,19.91
759591,0.854000,0.671488,-0.099552,-418.179993,42.139999,70.699997,19.91
759602,0.773480,0.432856,0.363072,-453.250000,37.169998,80.709999,19.93
759613,0.723704,0.430904,0.666120,-471.170013,30.870001,98.769997,19.93
759624,0.779824,0.395280,0.800808,-468.649994,20.020000,118.370003,19.93
759635,1.230248,0.181536,0.835456,-444.079987,88.550003,167.860001,19.95
759645,0.793488,-0.071248,0.782752,-382.059998,42.490002,139.440002,19.95
759657,0.919880,0.130296,0.833504,-388.149994,29.610001,138.880005,19.91
759667,0.959896,0.041968,0.686616,-352.450012,11.690000,146.720001,19.89
759678,0.993080,-0.247904,0.443104,-345.450012,7.280000,130.970001,19.89
759689,0.996496,-0.455792,0.368928,-270.339996,21.840000,117.389999,19.95
759700,0.732488,-0.351360,0.268888,-189.699997,16.240000,104.510002,19.95
759711,0.643672,-0.568520,0.129320,-119.910004,12.040000,92.050003,19.93
759722,0.675880,-0.809592,0.121512,-24.150000,18.969999,71.959999,19.91
759733,0.660752,-0.980392,0.261568,53.689999,18.620001,43.119999,19.91
759744,0.704672,-1.097024,0.509472,87.919998,13.160000,19.879999,19.95
759755,0.743224,-1.080432,0.774944,98.139999,8.610000,-1.120000,19.95
759766,0.708088,-0.977952,0.895968,71.540001,4.060000,-26.040001,19.94
759777,0.633912,-0.881328,0.884744,40.110001,-5.600000,-46.830002,19.94
759788,0.700768,-0.920368,0.785192,19.809999,-14.910000,-63.490002,19.90
759799,0.737368,-0.728584,0.600728,14.280000,-19.180000,-78.680000,19.96
759810,0.786656,-0.649040,0.347456,27.650000,-15.680000,-94.919998,19.96
759821,0.764696,-0.583160,0.222040,61.110001,-16.030001,-110.599998,19.93
759832,0.760792,-0.498736,0.228872,120.120003,-13.860000,-126.980003,19.93
759843,0.757864,-0.521184,0.295728,207.759995,-18.480000,-141.330002,19.96
759854,0.762256,-0.382104,0.406016,308.630005,-24.639999,-160.369995,19.91
759867,0.805200,-0.023424,0.512888,389.480011,-37.450001,-165.130005,19.91
759878,0.884744,0.159088,0.540216,436.660004,-49.070000,-158.270004,19.95
759889,0.975512,0.277672,0.521672,470.119995,-50.119999,-151.199997,19.95
759900,0.924760,0.490928,0.578768,500.989990,-39.549999,-170.449997,19.91
759914,0.815448,0.459696,0.628056,516.950012,-30.520000,-117.320000,19.92
759926,0.578280,0.613416,0.355752,470.399994,-25.830000,-93.239998,19.92
759936,0.626104,0.845216,0.097600,337.959991,-20.790001,-76.720001,19.95
759947,0.615368,0.925248,-0.099064,199.850006,0.420000,-47.810001,19.95
759959,0.541192,1.133136,-0.353800,10.990000,13.510000,-15.260000,19.95
759970,0.589016,1.354200,-0.533872,-170.729996,18.480000,23.799999,19.93
759981,0.709552,1.304424,-0.460184,-315.769989,20.299999,54.040001,19.93
759992,0.758840,0.996984,-0.212280,-409.920013,19.040001,83.230003,19.91
760003,0.735904,0.611952,0.170800,-424.339996,12.740000,98.980003,19.93
760014,0.743712,0.494344,0.462136,-435.049988,12.950000,96.459999,19.93
760025,0.828136,0.349408,0.647576,-426.440002,19.459999,113.750000,19.93
760036,0.848632,0.216672,0.675880,-397.109985,9.800000,127.959999,19.93
760047,1.272216,0.052704,0.732000,-346.570007,97.440002,168.210007,19.90
760058,0.835944,0.237656,0.614392,-311.359985,30.170000,146.160004,19.88
760069,1.029192,0.416264,0.654408,-316.959991,31.850000,164.639999,19.88
760080,0.915000,0.122488,0.424560,-315.000000,31.360001,149.940002,19.92
760091,0.911096,-0.091256,0.413336,-287.910004,36.750000,140.070007,19.92
760102,0.710040,-0.395280,0.337208,-238.490005,33.320000,128.520004,19.96
760113,0.636840,-0.757864,0.339648,-173.039993,21.629999,115.290001,19.96
760124,0.601216,-0.887672,0.279624,-79.239998,20.650000,89.949997,19.95
760135,0.645136,-1.001864,0.344528,-8.890000,21.629999,67.690002,19.92
760146,0.652456,-1.100928,0.478728,44.380001,16.870001,40.250000,19.92
760157,0.682224,-1.179984,0.689544,67.690002,10.360000,12.950000,19.95
760168,0.657824,-1.106784,0.941352,66.779999,7.140000,-20.790001,19.95
760179,0.679296,-0.949160,0.959896,31.639999,-4.760000,-33.880001,19.94
760190,0.663680,-1.026752,0.861808,29.469999,-17.290001,-54.529999,19.89
760201,0.691984,-0.770064,0.646600,22.889999,-23.730000,-75.180000,19.89
760212,0.740296,-0.803248,0.377712,43.750000,-22.889999,-90.160004,19.94
760223,0.725168,-0.576328,0.268888,91.489998,-24.780001,-109.830002,19.94
760234,0.705160,-0.396256,0.312320,129.429993,-26.320000,-126.910004,19.96
760246,0.749080,-0.401136,0.366976,201.110001,-33.810001,-143.220001,19.93
760257,0.800808,-0.296704,0.463112,284.200012,-39.270000,-158.619995,19.93
760268,0.864248,-0.066368,0.576816,348.950012,-46.759998,-159.460007,19.92
760279,0.859368,0.171776,0.621224,410.970001,-56.770000,-150.990005,19.92
760290,0.906704,0.297192,0.621224,440.019989,-61.950001,-144.759995,19.93
760300,0.891088,0.440176,0.632936,472.359985,-52.919998,-156.029999,19.93
760312,0.879376,0.431392,0.591944,478.589996,-52.500000,-114.239998,19.93
760323,0.725168,0.393816,0.456768,468.160004,-36.540001,-87.989998,19.92
760334,0.659776,0.684176,0.307928,366.380005,-29.540001,-70.349998,19.92
760345,0.601216,0.988200,0.153720,188.929993,-21.629999,-45.990002,19.94
760356,0.571448,1.045296,-0.085888,21.000000,-17.430000,-20.790001,19.94
760368,0.630008,1.024800,-0.440664,-129.429993,-3.010000,14.560000,19.92
760379,0.738832,1.076040,-0.357216,-256.410004,1.540000,47.110001,19.96
760390,0.808616,1.003816,-0.157136,-334.809998,4.200000,73.500000,19.96
760401,0.817888,0.716384,0.082472,-399.489990,2.520000,96.739998,19.95
760412,0.786168,0.414312,0.304512,-420.910004,2.450000,103.040001,19.94
760423,0.829112,0.374784,0.508984,-413.489990,9.030000,107.099998,19.94
760434,0.887184,0.346480,0.642208,-398.089996,13.930000,123.339996,19.93
760445,1.118984,0.093696,0.707600,-339.989990,88.269997,162.259995,19.93
760456,0.782264,0.402112,0.635864,-330.890015,26.389999,129.500000,19.91
760467,0.967704,0.231800,0.584136,-326.829987,23.660000,152.110001,19.91
760477,0.938424,0.005856,0.356240,-286.790009,26.180000,137.199997,19.93
760488,0.904264,-0.058072,0.234240,-250.949997,31.010000,133.000000,19.96
760499,0.770552,-0.342576,0.093696,-190.330002,38.430000,122.709999,19.96
760510,0.648064,-0.594384,0.100528,-109.970001,37.939999,109.900002,19.95
760522,0.589992,-0.891088,0.180560,-14.000000,35.209999,88.970001,19.95
760533,0.651480,-0.979416,0.413824,39.200001,35.560001,63.770000,19.93
760543,0.664168,-1.000400,0.671000,66.779999,29.469999,36.330002,19.93
760554,0.648552,-1.060424,0.903288,63.700001,23.309999,15.540000,19.93
760565,0.711992,-0.940376,1.002352,38.779999,9.170000,-5.670000,19.94
760576,0.668560,-0.955504,0.986736,8.400000,-0.980000,-25.690001,19.94
760587,0.711504,-0.915488,0.776896,4.480000,-6.300000,-45.290001,19.96
760598,0.725656,-0.730048,0.552416,11.900000,-9.730000,-66.430000,19.96
760609,0.736880,-0.729560,0.381616,45.009998,-9.870000,-85.470001,19.95
760620,0.718336,-0.766160,0.326472,120.400002,-12.320000,-122.150002,19.94
760631,0.754448,-0.605608,0.392352,207.550003,-18.270000,-127.610001,19.94
760643,0.757864,-0.366976,0.518256,286.510010,-30.030001,-144.830002,19.96
760654,0.787144,-0.184464,0.651968,338.589996,-41.650002,-153.300003,19.96
760665,0.854976,-0.024888,0.740296,395.429993,-50.750000,-155.889999,19.91
760676,0.872056,0.162504,0.681736,435.679993,-61.740002,-153.020004,19.93
760687,0.881816,0.267424,0.585600,465.989990,-62.020000,-159.179993,19.93
760698,0.982344,0.317688,0.543632,477.260010,-62.020000,-135.029999,19.99
760709,0.870104,0.065392,0.483120,541.309998,-48.369999,-118.089996,19.99
760720,0.704184,0.190320,0.307440,546.000000,-26.740000,-101.430000,19.95
760731,0.557784,0.734928,0.116632,433.089996,-22.400000,-80.010002,19.89
760742,0.558760,1.091168,-0.095160,291.760010,-23.590000,-55.160000,19.89
760753,0.567544,1.141432,-0.290360,79.099998,-16.730000,-29.610001,19.93
760765,0.591944,1.187304,-0.503128,-112.699997,2.590000,-3.500000,19.93
760776,0.667584,1.042856,-0.605608,-234.080002,16.730000,26.250000,19.94
760787,0.747128,1.004792,-0.507520,-307.649994,24.570000,55.580002,19.91
760798,0.753960,0.812520,-0.166408,-358.609985,24.290001,77.000000,19.91
760809,0.676856,0.499224,0.141520,-369.250000,15.890000,82.809998,19.96
760819,0.671000,0.467992,0.500688,-380.170013,13.510000,84.489998,19.96
760831,0.746152,0.491416,0.705648,-388.709991,15.820000,101.150002,19.96
760842,0.800320,0.355264,0.703208,-378.070007,9.660000,115.290001,19.89
760853,1.090680,0.064904,0.757864,-330.750000,88.970001,152.110001,19.89
760864,0.834480,0.347456,0.670024,-343.140015,32.549999,130.270004,19.94
760875,0.976976,0.267424,0.784704,-340.619995,26.040001,158.899994,19.94
760887,0.939400,0.190808,0.573888,-332.079987,23.450001,152.110001,19.95
760898,0.921344,0.106872,0.492392,-333.200012,29.820000,146.929993,19.96
760909,0.784704,-0.200080,0.406504,-288.119995,28.490000,135.029999,19.96
760920,0.713944,-0.494344,0.259616,-229.110001,18.620001,123.339996,19.91
760931,0.641232,-0.709064,0.208864,-126.419998,21.490000,97.300003,19.91
760942,0.618296,-0.762744,0.209840,-34.580002,20.090000,79.169998,19.91
760953,0.651480,-0.952576,0.321104,41.580002,20.160000,52.150002,19.91
760964,0.710528,-1.073112,0.564616,77.000000,17.219999,28.420000,19.92
760974,0.746152,-1.024800,0.803248,85.750000,7.630000,19.740000,19.91
760985,0.737368,-0.906704,0.996496,61.459999,3.500000,-10.640000,19.91
760996,0.624152,-0.922808,1.022848,30.940001,-13.790000,-30.100000,19.96
761007,0.684664,-0.801296,0.857904,6.370000,-21.070000,-46.689999,19.96
761018,0.723216,-0.747128,0.635864,4.970000,-21.910000,-67.760002,19.95
761029,0.708088,-0.588528,0.400648,27.370001,-21.420000,-86.379997,19.92
761041,0.713456,-0.519232,0.341112,69.720001,-21.559999,-102.900002,19.92
761052,0.710528,-0.553880,0.363560,143.990005,-23.170000,-118.580002,19.91
761063,0.739320,-0.528992,0.431392,235.199997,-29.610001,-139.580002,19.91
761074,0.820328,-0.293776,0.508008,294.000000,-39.060001,-149.869995,19.90
761085,0.878400,-0.152256,0.610000,346.989990,-44.590000,-154.910004,19.91
761096,0.915000,-0.080032,0.654408,389.829987,-51.450001,-151.759995,19.91
761107,0.952576,0.109312,0.641720,423.850006,-52.570000,-142.869995,19.94
761118,0.925248,0.203008,0.569008,443.660004,-46.130001,-163.520004,19.94
761129,0.782264,0.209352,0.546072,451.220001,-44.799999,-132.089996,19.91
761141,0.714432,0.217648,0.321104,483.980011,-29.190001,-101.849998,19.95
761152,0.666120,0.476288,0.135176,464.100006,-22.049999,-87.290001,19.95
761163,0.578280,1.024312,0.168848,321.299988,-13.230000,-54.950001,19.96
761174,0.503616,1.504504,0.002928,153.369995,-22.330000,-28.139999,19.96
761185,0.607072,1.463512,-0.128344,-54.110001,-20.440001,12.950000,19.93
761196,0.697840,0.892552,-0.416752,-173.740005,2.870000,21.000000,19.89
761207,0.757376,0.699792,-0.512400,-237.020004,20.090000,42.630001,19.89
761218,0.740296,0.815448,-0.125904,-310.589996,21.490000,61.250000,19.96
761229,0.661240,0.730536,0.206912,-345.380005,7.280000,74.760002,19.96
761240,0.667584,0.613904,0.402600,-381.779999,-4.690000,89.529999,19.92
761251,0.840336,0.524112,0.666120,-384.510010,-3.150000,104.650002,19.92
761262,0.900848,0.434808,0.761768,-375.829987,4.200000,118.720001,19.91
761273,1.241960,0.353800,0.970632,-367.640015,87.220001,159.600006,19.91
761285,0.677344,0.349896,0.781776,-342.369995,23.170000,132.440002,19.91
761295,1.035048,0.360632,0.749080,-376.250000,18.830000,169.679993,19.92
761306,0.886208,0.078568,0.534848,-334.109985,17.010000,155.050003,19.92
761317,0.930616,0.100528,0.383568,-312.829987,19.809999,146.580002,20.00
761328,0.764696,-0.092720,0.298168,-254.309998,26.250000,130.690002,19.90
761339,0.660264,-0.405040,0.121024,-194.179993,27.650000,121.169998,19.90
761350,0.577304,-0.826184,0.078080,-74.339996,24.290001,100.239998,19.95
761361,0.636352,-0.959408,0.179584,34.230000,27.020000,71.260002,19.95
761372,0.693448,-0.946232,0.459696,78.120003,25.129999,46.340000,19.89
761383,0.672464,-0.990640,0.801784,99.680000,17.990000,28.000000,19.90
761394,0.728096,-0.795928,1.036024,74.970001,5.950000,19.459999,19.90
761405,0.715896,-0.731512,1.072136,42.700001,-1.680000,-3.990000,19.93
761416,0.677344,-0.707600,0.972096,-14.070000,-13.020000,-18.410000,19.93
761427,0.703208,-0.795440,0.781776,-32.060001,-18.480000,-51.520000,19.93
761439,0.725656,-0.654408,0.583648,-33.880001,-21.980000,-53.759998,19.95
761450,0.752008,-0.699304,0.349408,6.580000,-19.110001,-70.349998,19.95
761461,0.744688,-0.615856,0.251808,62.090000,-21.559999,-89.389999,19.93
761472,0.760304,-0.494344,0.327448,135.380005,-22.049999,-105.699997,19.93
761483,0.786656,-0.452376,0.445544,217.070007,-28.209999,-120.610001,19.96
761494,0.846680,-0.341600,0.537776,292.950012,-32.830002,-133.630005,19.96
761505,0.876936,-0.224480,0.685640,339.989990,-41.650002,-140.419998,19.95
761516,0.904264,-0.090280,0.684176,394.239990,-46.060001,-139.369995,19.96
761528,0.882792,0.074176,0.752984,433.790009,-53.549999,-132.369995,19.96
761539,0.788120,0.180560,0.730536,469.980011,-61.389999,-129.500000,19.93
761550,0.789584,0.003416,0.525576,515.619995,-69.930000,-110.110001,19.93
761561,0.826672,0.002440,0.175680,534.380005,-65.029999,-108.080002,19.93
761572,0.790560,0.271328,0.209840,498.609985,-38.570000,-79.169998,19.89
761583,0.644160,0.923296,0.109800,327.109985,-17.920000,-59.990002,19.89
761594,0.648064,1.240984,0.023424,157.429993,-17.780001,-42.490002,19.88
761605,0.618296,1.105808,-0.119560,-10.920000,-15.540000,-14.840000,19.88
761616,0.559736,0.885232,-0.335256,-128.869995,-12.950000,11.270000,19.93
761627,0.738832,0.912560,-0.413824,-235.339996,-1.330000,34.580002,19.94
761638,0.819840,0.828624,-0.252296,-303.660004,11.340000,53.340000,19.94
761649,0.783728,0.609512,-0.052704,-351.260010,13.300000,70.629997,19.93
761661,0.663192,0.499712,0.303536,-371.489990,4.270000,77.070000,19.93
761672,0.720776,0.508008,0.531920,-368.970001,-1.470000,90.720001,19.94
761683,0.836920,0.407480,0.649528,-356.649994,3.080000,109.690002,19.91
761694,1.131672,0.164944,0.752008,-329.980011,84.629997,150.990005,19.91
761706,0.833992,0.444568,0.689544,-319.549988,26.320000,133.350006,19.93
761717,0.987712,0.285968,0.857416,-316.750000,19.740000,161.699997,19.93
761728,0.996984,0.243512,0.693936,-307.649994,24.010000,156.240005,19.91
761738,0.971120,0.341112,0.546072,-310.730011,22.540001,163.589996,19.97
761749,0.823256,0.159088,0.376248,-283.709991,23.940001,154.979996,19.97
761760,0.677832,0.035136,0.224968,-228.759995,19.110001,148.679993,19.97
761771,0.587064,-0.308416,0.052216,-170.380005,25.969999,122.639999,19.97
761783,0.614392,-0.930616,-0.034648,-51.939999,26.740000,103.320000,19.93
761794,0.632448,-1.024800,0.173240,61.740002,29.400000,72.379997,19.94
761805,0.711992,-0.939400,0.447496,107.870003,29.400000,53.060001,19.94
761816,0.691984,-0.881816,0.867664,106.050003,23.590000,40.180000,19.92
761826,0.652944,-0.824720,1.131672,77.139999,11.550000,31.709999,19.92
761837,0.649040,-0.771528,1.199016,20.370001,-0.840000,19.670000,19.93
761848,0.685152,-0.801784,1.074576,-22.330000,-10.290000,0.070000,19.93
761860,0.689056,-0.838872,0.830576,-60.549999,-22.260000,-15.820000,19.87
761871,0.694424,-0.656360,0.572424,-62.439999,-22.260000,-38.220001,19.92
761882,0.702232,-0.718824,0.336720,-54.389999,-21.280001,-57.750000,19.92
761893,0.723216,-0.811544,0.114192,-0.280000,-17.080000,-72.379997,19.98
761905,0.729072,-0.732488,0.099064,78.750000,-16.520000,-87.779999,19.98
761916,0.783728,-0.463112,0.232288,121.309998,-16.309999,-103.110001,19.99
761927,0.789096,-0.429928,0.415288,175.559998,-18.059999,-121.660004,19.95
761938,0.829600,-0.382592,0.546072,234.500000,-27.020000,-131.110001,19.95
761949,0.863760,-0.265472,0.688080,269.079987,-30.450001,-143.429993,19.96
761960,0.891576,-0.146400,0.729072,307.230011,-33.180000,-144.270004,19.96
761971,0.855464,-0.051240,0.732488,349.369995,-38.009998,-142.169998,19.91
761983,0.843752,0.051240,0.689544,390.390015,-47.599998,-127.959999,19.91
761994,0.811544,0.132248,0.655872,425.390015,-55.930000,-120.889999,19.91
762005,0.783728,0.170312,0.555344,463.609985,-62.299999,-109.900002,19.97
762016,0.798856,0.183000,0.383080,450.869995,-57.330002,-91.139999,19.97
762027,0.728584,0.485560,0.263032,376.459991,-50.610001,-104.089996,19.94
762038,0.711504,0.718336,0.227896,227.009995,-30.940001,-66.500000,19.91
762048,0.680760,0.798856,-0.001464,100.239998,-12.670000,-48.090000,19.91
762060,0.641232,0.851072,-0.221064,-67.550003,0.210000,-15.820000,19.95
762072,0.586088,0.817400,-0.233264,-173.809998,3.780000,16.940001,19.95
762083,0.705160,0.975024,-0.059536,-263.619995,0.420000,50.959999,19.91
762095,0.769576,0.801296,0.241560,-330.399994,-4.480000,73.570000,19.94
762107,0.827160,0.477264,0.489952,-362.809998,-1.890000,90.580002,19.94
762118,0.820328,0.395280,0.703208,-371.070007,-3.640000,99.680000,19.94
762129,0.862784,0.508984,0.804224,-364.489990,-0.210000,111.019997,19.95
762140,0.994544,0.500200,0.762744,-340.970001,30.100000,135.800003,19.95
762151,0.830088,0.752496,0.693936,-366.869995,-7.840000,145.600006,19.97
762163,0.990152,0.711504,0.486048,-339.850006,-4.480000,159.529999,19.97
762174,1.021384,0.596336,0.211792,-349.929993,16.170000,145.250000,19.93
762185,0.847656,0.171776,0.139568,-307.160004,35.560001,133.559998,19.93
762196,0.627568,-0.300608,-0.005368,-235.199997,31.780001,120.680000,19.93
762207,0.602680,-0.799344,-0.106384,-112.699997,23.590000,103.529999,19.93
762218,0.671000,-0.941840,0.032696,8.190000,20.370001,85.190002,19.93
762229,0.688080,-0.859856,0.291824,74.480003,24.500000,67.269997,19.92
762240,0.707600,-0.820328,0.647576,85.400002,24.290001,45.919998,19.92
762251,0.698328,-0.834480,0.949648,68.529999,15.890000,34.790001,19.92
762263,0.691496,-0.816912,1.062376,33.950001,0.700000,20.580000,19.95
762274,0.734928,-0.722240,0.970144,-22.469999,-5.950000,6.370000,19.95
762285,0.701744,-0.816912,0.833992,-51.939999,-12.320000,-12.810000,19.93
762296,0.749568,-0.782264,0.582184,-62.790001,-13.510000,-30.379999,19.93
762307,0.736880,-0.802272,0.346968,-43.610001,-11.900000,-50.259998,19.89
762318,0.751032,-0.740296,0.198616,0.350000,-9.590000,-61.320000,19.95
762330,0.770552,-0.625128,0.183000,49.910000,-4.480000,-76.300003,19.95
762341,0.757376,-0.565592,0.235216,107.309998,-5.600000,-92.680000,19.95
762352,0.780312,-0.460184,0.400648,157.149994,-8.610000,-112.980003,19.95
762363,0.786168,-0.306464,0.494344,189.000000,-15.890000,-124.459999,19.94
762375,0.868640,-0.244000,0.582184,232.679993,-21.629999,-133.699997,19.96
762386,0.911584,-0.183488,0.625616,276.010010,-23.170000,-137.619995,19.96
762397,0.905728,-0.041968,0.649528,310.029999,-25.969999,-136.500000,19.95
762409,0.868640,0.154696,0.664656,339.850006,-31.080000,-130.339996,19.93
762420,0.831552,0.316712,0.639768,374.079987,-37.590000,-116.830002,19.93
762431,0.774456,0.393328,0.626104,375.200012,-36.330002,-122.639999,19.95
762442,0.812520,0.384056,0.544120,361.269989,-39.270000,-92.959999,19.95
762454,0.771528,0.330864,0.313784,321.929993,-31.850000,-78.680000,19.95
762465,0.768600,0.508496,0.244976,234.570007,-16.520000,-63.840000,19.95
762476,0.711016,0.683200,0.146888,146.860001,-4.410000,-41.580002,19.95
762487,0.663192,0.937936,0.020008,13.720000,1.890000,-10.570000,20.00
762498,0.678808,0.980392,-0.033672,-105.839996,0.350000,13.230000,20.00
762509,0.761280,0.832528,0.021472,-202.929993,7.000000,40.880001,19.93
762520,0.771528,0.768600,0.134200,-266.630005,7.770000,63.560001,19.93
762531,0.776896,0.628056,0.350872,-328.160004,2.730000,75.599998,19.98
762542,0.791536,0.447496,0.543632,-346.359985,0.490000,91.070000,19.92
762553,0.834480,0.391376,0.679784,-347.690002,-1.330000,104.089996,19.92
762564,1.127768,0.299144,0.723216,-329.980011,65.099998,133.630005,19.96
762575,0.808616,0.427488,0.663680,-334.459991,16.799999,134.960007,19.96
762586,0.897432,0.290360,0.709064,-301.209991,0.560000,152.880005,20.00
762597,1.060424,0.262056,0.434320,-270.480011,10.500000,149.380005,19.95
762608,1.010648,0.314760,0.342088,-257.739990,21.629999,139.929993,19.95
762619,0.803248,0.150792,0.238632,-214.550003,34.090000,132.509995,19.98
762630,0.634400,-0.244488,0.130784,-163.800003,27.650000,124.040001,19.98
762641,0.661728,-0.735416,0.077592,-74.199997,29.540001,105.139999,19.97
762652,0.661728,-1.001376,0.241072,12.110000,28.980000,84.839996,19.92
762663,0.675880,-0.967216,0.478728,60.340000,28.350000,57.959999,19.92
762674,0.685640,-0.911584,0.772504,65.449997,17.570000,39.689999,19.94
762685,0.630496,-0.919880,0.984784,51.099998,10.360000,17.150000,19.94
762696,0.705160,-0.835456,0.984296,14.770000,0.840000,8.330000,19.99
762707,0.680272,-0.889624,0.922808,-7.840000,-8.820000,-10.010000,19.99
762718,0.711504,-0.758840,0.690032,-16.590000,-10.920000,-32.689999,19.96
762729,0.723704,-0.669536,0.474336,-17.500000,-10.920000,-49.630001,19.91
762740,0.730536,-0.696376,0.339160,11.200000,-10.080000,-62.930000,19.91
762751,0.705648,-0.691008,0.314760,69.019997,-10.290000,-83.580002,19.96
762763,0.746640,-0.503128,0.362584,113.820000,-13.090000,-100.940002,19.96
762774,0.779336,-0.349896,0.460672,161.419998,-16.799999,-113.750000,19.95
762785,0.833016,-0.291824,0.572424,208.320007,-24.080000,-122.220001,19.89
762796,0.866688,-0.231312,0.654408,254.309998,-32.270000,-127.540001,19.89
762807,0.868640,-0.092720,0.745664,284.200012,-36.540001,-133.839996,19.94
762818,0.862784,0.087352,0.785192,318.149994,-41.580002,-129.500000,19.94
762829,0.825696,0.241072,0.741272,342.089996,-47.669998,-121.730003,19.95
762840,0.785192,0.293776,0.717848,359.589996,-56.560001,-111.930000,19.95
762851,0.763232,0.263520,0.543144,367.149994,-59.709999,-104.580002,19.95
762862,0.818864,0.281088,0.394792,347.269989,-56.419998,-97.650002,19.96
762873,0.791536,0.299632,0.200568,303.239990,-36.470001,-72.660004,19.96
762884,0.755424,0.655872,0.052704,226.729996,-13.510000,-53.900002,19.95
762895,0.739808,0.839360,-0.026352,109.059998,-0.910000,-29.750000,19.93
762906,0.671488,0.892064,-0.021472,-9.590000,7.910000,-4.270000,19.93
762917,0.608536,0.942328,-0.063928,-99.190002,0.560000,21.700001,19.96
762927,0.672952,0.821792,0.000488,-185.639999,1.260000,41.650002,19.96
762938,0.744688,0.693936,0.106384,-239.960007,6.510000,55.230000,19.99
762949,0.758840,0.526552,0.203008,-269.010010,7.560000,65.589996,19.99
762960,0.766648,0.316712,0.353312,-306.459991,4.480000,76.370003,19.98
762971,0.903776,0.280600,0.528504,-316.049988,31.290001,99.120003,19.96
762982,0.807640,0.250344,0.660264,-296.799988,43.820000,110.669998,19.96
762993,0.804712,0.439688,0.762744,-342.579987,26.459999,128.029999,19.98
763003,0.854000,0.103944,0.903776,-311.709991,11.130000,137.550003,19.98
763014,0.943792,0.110288,0.789584,-295.890015,9.170000,134.539993,19.96
763025,0.974048,0.131272,0.671000,-298.410004,6.440000,129.919998,19.96
763036,0.990640,-0.061488,0.530456,-264.670013,-1.260000,132.440002,19.96
763047,0.839848,-0.131272,0.354288,-222.600006,-3.780000,122.779999,19.93
763058,0.763232,-0.288408,0.239120,-157.429993,2.310000,102.620003,19.93
763069,0.695888,-0.556320,0.125416,-77.559998,6.860000,90.930000,19.98
763080,0.664656,-0.848144,0.182024,16.379999,9.590000,67.480003,19.98
763091,0.696376,-0.882792,0.345992,67.199997,10.920000,40.740002,19.92
763102,0.744200,-0.917440,0.607560,91.349998,9.240000,25.690001,19.93
763113,0.738832,-0.892064,0.810080,87.500000,7.350000,1.120000,19.93
763124,0.711504,-0.766160,0.907192,54.110001,-9.870000,-11.690000,19.95
763135,0.733952,-0.890112,0.782264,37.590000,-12.250000,-30.940001,19.95
763146,0.736880,-0.699304,0.630984,32.200001,-17.219999,-47.320000,19.94
763157,0.798856,-0.534848,0.379176,29.190001,-14.210000,-58.450001,19.96
763168,0.800320,-0.609512,0.223504,58.029999,-12.460000,-74.339996,19.96
763179,0.806664,-0.613416,0.266448,118.930000,-10.850000,-106.400002,19.96
763191,0.780312,-0.534848,0.380640,190.960007,-14.280000,-108.430000,19.96
763201,0.815448,-0.443104,0.465552,264.179993,-19.459999,-123.339996,19.90
763213,0.861808,-0.284016,0.548512,309.750000,-25.059999,-133.490005,20.00
763224,0.888648,-0.021472,0.617808,353.429993,-28.490000,-133.139999,20.00
763235,0.886208,-0.007320,0.642208,385.350006,-33.110001,-128.169998,19.90
763246,0.877424,0.152744,0.652456,406.769989,-38.639999,-113.820000,19.90
763257,0.850096,0.229360,0.557784,415.380005,-30.660000,-130.690002,19.98
763268,0.746640,0.269864,0.556808,404.109985,-33.180000,-106.540001,19.93
763279,0.690032,0.482144,0.523136,345.869995,-25.340000,-82.949997,19.93
763290,0.670512,0.839848,0.310856,197.679993,-21.490000,-64.820000,20.00
763301,0.671000,0.854976,0.166896,66.570000,-14.140000,-42.910000,20.00
763312,0.621712,0.791536,-0.008296,-62.930000,-10.500000,-14.770000,19.94
763323,0.674416,0.816424,-0.109312,-160.720001,-3.500000,8.120000,19.88
763335,0.771040,0.860344,-0.044408,-242.690002,-2.030000,32.060001,19.88
763346,0.805688,0.763720,0.148840,-285.179993,-1.750000,50.330002,19.95
763356,0.784704,0.638792,0.296216,-322.700012,0.630000,61.810001,19.95
763367,0.814960,0.439200,0.391376,-344.470001,3.220000,70.419998,19.95
763378,0.979904,0.302072,0.491904,-347.130005,36.189999,89.110001,19.95
763389,0.929640,0.131272,0.569008,-307.790009,55.090000,94.849998,19.98
763400,0.787144,0.310856,0.538264,-318.850006,28.700001,98.910004,19.94
763411,0.861808,0.095160,0.615856,-286.089996,19.040001,113.470001,19.94
763422,0.914512,0.156648,0.520696,-253.889999,28.490000,108.500000,20.01
763433,0.965264,0.252296,0.508984,-249.479996,30.590000,111.510002,20.01
763444,0.850096,0.091256,0.410896,-231.559998,30.730000,114.099998,19.95
763455,0.759816,-0.137128,0.353312,-187.460007,26.110001,110.040001,19.99
763466,0.750544,-0.267912,0.299144,-133.070007,28.559999,100.940002,19.99
763476,0.715408,-0.474824,0.322568,-91.699997,35.349998,82.529999,19.95
763487,0.658800,-0.730536,0.456768,-33.599998,29.469999,72.169998,19.95
763498,0.651968,-0.736392,0.607072,14.980000,25.129999,58.730000,19.96
763509,0.693936,-0.760304,0.761768,31.080000,21.070000,42.560001,19.96
763520,0.692960,-0.810568,0.889136,28.770000,14.770000,22.540001,19.96
763531,0.690520,-0.802272,0.937936,12.040000,4.410000,6.230000,19.94
763541,0.685152,-0.716384,0.912072,-7.210000,-3.080000,-12.180000,19.94
763553,0.698328,-0.859856,0.752984,-18.200001,-7.140000,-30.870001,19.94
763564,0.732488,-0.809104,0.502152,11.550000,-9.100000,-46.200001,19.94
763575,0.746152,-0.729560,0.406504,66.849998,-12.180000,-64.750000,19.94
763586,0.754448,-0.556808,0.430416,105.769997,-12.320000,-82.250000,19.94
763597,0.763720,-0.575352,0.516792,163.449997,-18.830000,-101.500000,19.94
763608,0.818376,-0.493856,0.638792,222.320007,-25.760000,-115.500000,19.91
763619,0.820328,-0.306952,0.726632,262.850006,-36.959999,-127.750000,19.91
763630,0.991128,-0.200568,0.769088,285.250000,-45.849998,-131.809998,19.98
763641,0.868640,-0.204960,0.756888,315.769989,-52.639999,-138.179993,19.97
763652,0.889136,-0.147376,0.625128,352.309998,-59.849998,-127.330002,19.97
763663,0.881328,0.050264,0.520696,365.750000,-50.330002,-137.619995,19.98
763675,0.772016,0.055632,0.507032,387.589996,-52.500000,-120.610001,19.98
763686,0.761768,0.205936,0.464576,408.519989,-46.410000,-96.180000,19.96
763697,0.714920,0.569984,0.382104,362.250000,-41.299999,-82.949997,19.92
763708,0.651968,0.966240,0.398208,224.490005,-41.160000,-58.099998,19.92
763719,0.625616,1.047736,0.233264,92.190002,-39.060001,-36.470001,19.93
763730,0.628544,0.957944,0.052216,-55.790001,-30.660000,-12.600000,19.93
763741,0.682712,0.630496,-0.194224,-130.970001,-16.799999,2.870000,19.93
763752,0.736392,0.638304,-0.236680,-196.559998,-6.930000,25.270000,19.93
763763,0.745176,0.817888,-0.025376,-240.380005,-6.370000,43.820000,19.93
763774,0.718336,0.757376,0.154696,-291.130005,-8.960000,61.599998,19.96
763785,0.794952,0.596824,0.362096,-317.660004,-4.410000,75.040001,19.96
763796,0.812032,0.522160,0.514840,-321.510010,2.240000,89.529999,19.93
763807,0.839360,0.484584,0.584136,-316.119995,48.090000,118.440002,19.93
763818,0.875472,0.284504,0.591456,-289.519989,52.220001,112.699997,19.95
763829,0.817400,0.345992,0.606096,-306.320007,30.309999,128.729996,19.91
763840,0.841800,0.107360,0.657336,-267.329987,19.389999,137.759995,19.91
763851,0.931104,0.144936,0.450424,-255.289993,30.940001,125.580002,19.97
763862,0.882792,0.035624,0.410408,-239.610001,36.820000,120.120003,19.97
763873,0.772992,-0.179584,0.299632,-207.339996,35.070000,111.860001,19.96
763884,0.683688,-0.446032,0.298656,-150.779999,29.049999,94.919998,19.93
763895,0.689544,-0.724680,0.326960,-81.480003,29.680000,80.919998,19.93
763906,0.669536,-0.917928,0.459696,-20.650000,25.059999,58.939999,19.98
763917,0.670024,-0.923296,0.628056,11.830000,20.230000,35.980000,19.98
763928,0.688080,-0.918416,0.780312,25.830000,14.210000,10.710000,19.99
763939,0.687104,-0.949648,0.855952,27.160000,5.110000,-7.420000,19.90
763950,0.709552,-0.851560,0.886696,23.660000,-4.830000,-29.820000,19.90
763961,0.727608,-0.826184,0.796904,12.670000,-11.060000,-51.380001,19.95
763972,0.744688,-0.810568,0.612440,31.639999,-13.090000,-71.750000,19.95
763983,0.740296,-0.619760,0.497272,69.230003,-17.430000,-85.820000,19.95
763994,0.760304,-0.447496,0.451888,117.879997,-19.740000,-99.400002,19.95
764006,0.752984,-0.398208,0.463112,156.729996,-24.850000,-114.099998,19.95
764017,0.802760,-0.284016,0.492880,221.690002,-31.219999,-127.050003,19.96
764028,0.859856,-0.107848,0.572912,272.160004,-35.770000,-133.279999,19.96
764039,0.846192,0.031720,0.669048,313.459991,-29.820000,-155.750000,19.95
764051,0.923784,0.179584,0.681248,338.730011,-35.840000,-140.419998,19.95
764062,0.859856,0.166408,0.657824,371.420013,-48.160000,-122.639999,19.94
764073,0.868640,0.135176,0.563152,432.600006,-45.150002,-113.680000,19.96
764084,0.877424,0.130296,0.425536,476.279999,-33.529999,-103.459999,19.96
764095,0.793488,0.223992,0.315736,503.720001,-23.030001,-88.900002,19.95
764106,0.659288,0.630496,0.205448,456.820007,-18.410000,-67.620003,19.95
764117,0.646600,0.862784,0.189832,330.470001,-22.820000,-45.709999,19.96
764128,0.636840,1.071160,0.088816,147.279999,-18.200001,-32.410000,19.94
764139,0.660752,1.029680,-0.066856,0.210000,-5.600000,-8.820000,19.94
764150,0.626104,0.891088,-0.231800,-137.130005,8.750000,13.300000,19.98
764161,0.683688,0.819352,-0.291824,-225.399994,12.460000,31.080000,19.98
764172,0.750056,0.838872,-0.167872,-287.839996,7.000000,54.810001,19.96
764183,0.729072,0.692472,0.076616,-334.529999,1.190000,67.970001,19.96
764194,0.738344,0.543632,0.342576,-357.559998,3.150000,73.779999,19.96
764205,0.785192,0.452376,0.502640,-362.670013,8.540000,83.370003,19.96
764216,0.826184,0.389912,0.589992,-362.809998,16.240000,94.220001,19.96
764226,0.866200,0.281576,0.667584,-352.519989,16.170000,118.650002,20.02
764237,0.949160,0.058072,0.755424,-304.429993,66.220001,135.520004,19.02
764248,0.751032,0.427000,0.745176,-331.100006,31.639999,124.320000,19.95
764259,0.926224,0.289872,0.797880,-322.769989,18.129999,148.119995,19.99
764270,0.890112,-0.046848,0.620736,-296.660004,16.520000,133.139999,19.99
764281,0.968192,-0.074176,0.510936,-272.510010,19.809999,124.529999,19.95
764292,0.804712,-0.211792,0.379664,-227.360001,17.290001,112.980003,19.95
764303,0.719312,-0.463112,0.245952,-155.820007,15.190000,100.589996,19.99
764314,0.676368,-0.594384,0.203496,-68.949997,15.400000,77.419998,19.96
764325,0.675880,-0.707600,0.290360,-11.830000,18.969999,54.529999,19.96
764336,0.675392,-0.853024,0.509960,44.310001,18.200001,29.330000,19.96
764347,0.712968,-0.906216,0.788120,60.900002,12.950000,9.520000,19.96
764358,0.696376,-0.907192,0.946232,52.360001,-1.470000,-5.460000,20.01
764369,0.663680,-0.851560,0.979904,40.529999,-15.190000,-25.900000,19.95
764381,0.706136,-0.732976,0.829600,17.570000,-20.650000,-45.220001,19.95
764392,0.738832,-0.700280,0.617808,20.930000,-22.959999,-58.520000,19.97
764403,0.741760,-0.697840,0.376248,62.230000,-23.309999,-76.930000,19.97
764414,0.739808,-0.531920,0.264008,111.440002,-22.469999,-95.760002,20.00
764425,0.753472,-0.467016,0.255712,186.479996,-24.430000,-115.779999,19.98
764436,0.794464,-0.385032,0.386984,270.410004,-27.510000,-132.020004,19.98
764453,0.858392,-0.090280,0.610488,358.260010,-51.939999,-136.149994,19.98
764467,0.994544,0.142008,0.616832,382.619995,-32.619999,-159.949997,19.96
764478,0.821304,0.128344,0.679784,392.420013,-43.610001,-150.850006,19.96
764489,0.854488,0.079056,0.592920,428.399994,-43.259998,-131.039993,19.95
764500,0.822280,0.176656,0.465552,446.950012,-38.430000,-116.129997,19.94
764511,0.730048,0.447496,0.399672,438.619995,-32.060001,-100.029999,19.94
764522,0.627568,0.750056,0.288896,372.190002,-31.570000,-81.620003,19.95
764533,0.640256,0.873520,0.160064,287.700012,-34.790001,-58.099998,19.95
764544,0.681736,0.903776,0.014152,205.660004,-27.930000,-36.610001,19.98
764555,0.685152,0.983808,-0.125904,74.339996,-10.220000,-16.379999,19.97
764566,0.726632,0.898408,-0.278648,-52.430000,7.420000,0.490000,19.97
764577,0.706136,0.839848,-0.384056,-149.869995,20.719999,21.209999,19.98
764588,0.674416,0.848144,-0.196176,-247.169998,18.410000,41.580002,19.98
764599,0.643672,0.873032,0.120048,-299.040009,14.140000,55.860001,19.95
764610,0.644648,0.878888,0.286944,-325.290009,7.910000,73.989998,19.95
764621,0.702232,0.730536,0.499712,-358.750000,4.480000,81.760002,19.93
764633,0.822280,0.523624,0.613904,-365.470001,5.740000,98.769997,19.94
764644,0.863760,0.484096,0.676368,-366.869995,7.000000,114.589996,19.94
764655,0.906704,0.462624,0.714920,-369.390015,6.510000,123.480003,19.97
764667,1.201944,0.295240,0.781776,-360.850006,71.400002,165.550003,19.96
764678,0.830088,0.306952,0.630008,-355.179993,26.250000,139.229996,19.96
764689,0.972096,0.151280,0.600728,-348.040009,25.690001,160.649994,19.92
764700,0.780800,0.029280,0.462136,-300.790009,19.879999,140.559998,19.92
764711,0.792024,-0.115168,0.342088,-249.059998,19.040001,127.190002,19.97
764722,0.687104,-0.404064,0.202032,-166.529999,19.670000,110.529999,19.97
764733,0.640744,-0.768600,0.145912,-79.449997,20.790001,83.790001,19.93
764744,0.668072,-0.883768,0.310368,13.930000,23.730000,50.610001,19.95
764755,0.714920,-0.922320,0.551928,61.810001,26.040001,28.840000,19.95
764766,0.692472,-1.002352,0.838384,80.989998,14.210000,6.440000,19.96
764777,0.687592,-1.105808,0.955992,84.559998,-0.350000,-13.440000,19.96
764788,0.671488,-1.004792,0.955504,93.730003,-17.780001,-29.750000,19.98
764799,0.739808,-0.779824,0.845704,82.879997,-24.500000,-50.119999,19.90
764810,0.763720,-0.826184,0.660752,84.279999,-26.950001,-71.260002,19.90
764821,0.759328,-0.808128,0.498736,123.199997,-28.910000,-92.750000,19.99
764833,0.735904,-0.506056,0.402600,161.210007,-35.000000,-105.070000,19.99
764844,0.765672,-0.356240,0.360632,196.070007,-40.389999,-118.930000,19.97
764855,0.791536,-0.305000,0.380152,227.710007,-47.810001,-129.639999,20.01
764867,0.923784,-0.039528,0.466040,262.779999,-29.959999,-153.300003,20.01
764878,0.824720,0.014152,0.579744,290.570007,-36.820000,-148.679993,20.03
764889,0.788608,0.054656,0.587064,327.670013,-48.090000,-144.130005,20.03
764900,0.883768,0.185928,0.523624,356.579987,-55.439999,-134.820007,20.02
764911,0.913536,0.222528,0.454328,380.869995,-53.340000,-120.050003,19.98
764922,0.866688,0.234728,0.383568,441.910004,-42.349998,-111.860001,19.98
764933,0.756888,0.427000,0.349408,480.410004,-35.000000,-94.010002,19.99
764944,0.638792,0.650504,0.205936,467.809998,-36.400002,-72.800003,19.99
764955,0.694912,0.641720,0.061976,441.630005,-38.709999,-61.040001,19.95
764966,0.731024,0.580720,-0.125416,411.600006,-20.650000,-44.099998,19.94
764977,0.657336,0.736880,-0.143960,328.720001,-3.780000,-30.100000,19.94
764988,0.583160,1.168272,-0.328912,184.169998,-0.700000,-16.240000,19.93
764999,0.696864,1.157048,-0.355752,59.430000,13.020000,1.610000,19.93
765010,0.716872,0.947696,-0.381128,-77.699997,31.639999,19.110001,19.97
765022,0.673928,0.941840,-0.386496,-196.559998,45.500000,30.660000,19.94
765033,0.668072,0.986736,-0.257176,-303.660004,44.730000,40.529999,19.94
765044,0.669048,0.800808,-0.027816,-374.709991,39.619999,55.090000,19.96
765056,0.639768,0.726144,0.281088,-413.279999,32.060001,66.709999,19.96
765067,0.670512,0.648064,0.418216,-447.510010,15.960000,74.269997,19.98
765078,0.740784,0.484096,0.508496,-439.739990,7.840000,82.669998,19.97
765089,0.875960,0.414312,0.609024,-441.350006,10.360000,89.669998,19.97
765100,0.899872,0.430416,0.646600,-441.980011,3.220000,100.589996,19.96
765111,0.945744,0.472872,0.670024,-449.820007,1.680000,119.489998,19.96
765122,1.129720,0.180072,0.653920,-421.820007,61.810001,176.820007,19.97
765133,0.872544,0.311344,0.594384,-440.929993,21.910000,132.929993,19.97
765144,0.825696,0.097112,0.690520,-390.040009,7.910000,152.179993,19.97
765155,0.849120,-0.086864,0.452376,-342.369995,6.510000,132.509995,19.96
765166,0.774456,-0.178120,0.321592,-263.619995,10.360000,112.559998,19.96
765177,0.679784,-0.428464,0.152744,-160.929993,8.890000,98.839996,19.94
765189,0.694912,-0.646600,0.054168,-62.860001,9.380000,77.980003,19.94
765200,0.708088,-0.682224,0.139568,25.620001,15.750000,48.369999,19.93
765210,0.796904,-0.791536,0.435784,69.510002,17.990000,33.320000,19.94
765221,0.733952,-0.869128,0.644160,85.680000,5.250000,23.520000,19.94
765233,0.783240,-0.721752,0.916952,67.059998,1.190000,-0.350000,19.98
765244,0.708088,-0.850096,1.019920,32.549999,-12.950000,-13.020000,19.98
765255,0.730536,-0.855952,0.958432,18.760000,-24.150000,-25.059999,19.93
765266,0.733952,-0.652944,0.801296,-1.890000,-31.219999,-41.650002,19.91
765277,0.756888,-0.656848,0.512888,0.700000,-29.120001,-58.660000,19.91
765288,0.781776,-0.627080,0.239608,47.669998,-25.830000,-74.900002,19.96
765299,0.768112,-0.413336,0.148840,99.889999,-23.030001,-85.330002,19.96
765310,0.780800,-0.326960,0.143472,144.970001,-18.270000,-100.239998,20.01
765321,0.824232,-0.355264,0.228384,213.990005,-16.660000,-115.919998,19.97
765332,0.859856,-0.281088,0.398696,284.829987,-15.400000,-127.610001,19.97
765343,0.752008,-0.199592,0.556808,344.750000,-17.570000,-149.029999,19.93
765354,0.929152,0.063928,0.561688,369.320007,-14.000000,-145.179993,19.93
765365,0.798856,0.117608,0.660264,394.170013,-19.320000,-139.300003,19.95
765376,0.838872,0.220576,0.595360,418.880005,-20.230000,-129.220001,19.91
765387,0.903288,0.270352,0.518744,428.049988,-15.750000,-115.500000,19.91
765398,0.824720,0.199104,0.406016,449.820007,-10.780000,-110.809998,19.97
765409,0.775432,0.203984,0.302072,482.230011,-7.420000,-96.879997,19.97
765420,0.703208,0.313296,0.205936,504.630005,-5.740000,-83.860001,19.99
765431,0.662216,0.511912,0.097600,505.470001,-11.550000,-69.860001,19.99
765443,0.659776,0.783240,0.112728,464.170013,-14.140000,-51.450001,19.94
765453,0.617320,1.073112,-0.011224,319.410004,-9.800000,-36.049999,19.94
765464,0.651968,1.200480,-0.014152,120.540001,-4.900000,-25.549999,19.94
765476,0.650504,1.103856,-0.217160,-88.480003,14.770000,-11.550000,19.99
765487,0.612928,0.952576,-0.339648,-213.919998,33.810001,4.690000,19.99
765498,0.553880,0.936472,-0.249856,-347.829987,33.740002,21.700001,19.98
765509,0.614392,1.018944,0.010736,-461.230011,22.260000,48.090000,20.00
765520,0.644160,1.002840,0.288408,-550.619995,3.150000,67.970001,20.00
765531,0.689056,0.782752,0.577792,-584.150024,-6.790000,82.389999,19.98
765542,0.714920,0.655872,0.779824,-586.109985,-22.120001,94.849998,19.98
765553,0.784704,0.654896,0.826184,-569.659973,-34.509998,104.089996,19.93
765564,0.883280,0.479216,0.787144,-544.179993,-44.240002,114.519997,19.97
765575,1.140456,0.246440,0.742248,-487.549988,6.510000,183.399994,19.97
765586,0.757376,0.158112,0.505568,-396.269989,-3.710000,127.050003,20.04
765597,1.016504,0.533872,0.402600,-381.220001,2.940000,134.679993,20.04
765608,0.922320,0.007808,0.080032,-299.809998,-2.030000,133.279999,19.98
765619,0.839848,-0.046848,-0.038064,-180.389999,17.080000,103.320000,20.00
765630,0.734928,-0.231800,-0.134200,-81.690002,23.309999,88.199997,20.00
765641,0.739808,-0.582672,0.021472,5.530000,37.869999,63.490002,19.99
765651,0.730536,-0.673928,0.339648,76.580002,32.619999,50.119999,19.99
765662,0.745176,-0.689056,0.652456,105.839996,21.770000,40.950001,20.01
765673,0.749568,-0.669048,0.929640,98.349998,20.230000,13.860000,20.01
765684,0.702232,-0.655384,1.043344,63.490002,4.970000,-16.730000,20.00
765695,0.733464,-0.709064,1.001864,36.540001,-7.840000,-10.920000,19.95
765706,0.828624,-0.707600,0.751520,21.700001,-13.720000,-32.759998,19.95
765717,0.788120,-0.674416,0.579744,38.290001,-19.320000,-41.860001,20.01
765728,0.803248,-0.547048,0.384056,70.629997,-20.299999,-54.250000,20.01
765740,0.810568,-0.500688,0.243512,118.720001,-17.150000,-66.150002,19.96
765751,0.812032,-0.454328,0.238144,180.110001,-8.680000,-98.629997,19.94
765762,0.834968,-0.227896,0.339648,246.750000,-6.020000,-110.459999,19.94
765773,0.809104,-0.177632,0.501664,308.279999,-8.540000,-122.779999,19.97
765784,0.832528,-0.112728,0.615368,368.059998,-8.330000,-128.449997,19.97
765795,0.801784,0.110288,0.726632,396.130005,-16.590000,-127.820000,19.96
765806,0.826184,0.143472,0.681248,424.410004,-27.160000,-121.379997,19.92
765817,0.821304,0.204960,0.615856,448.630005,-32.759998,-113.820000,19.92
765828,0.820816,0.295240,0.493856,466.200012,-35.840000,-100.800003,20.00
765839,0.807152,0.315248,0.387472,480.130005,-36.119999,-92.680000,20.00
765851,0.773968,0.396256,0.258640,498.470001,-31.290001,-78.120003,19.98
765862,0.736880,0.469944,0.131272,509.670013,-28.000000,-60.410000,19.99
765873,0.686128,0.592432,0.089792,498.399994,-27.230000,-48.930000,19.99
765884,0.590480,0.996008,-0.041480,414.049988,-26.389999,-27.719999,19.95
765895,0.645624,1.083360,-0.075152,290.149994,-29.330000,-15.890000,19.95
765906,0.683200,1.004792,-0.139568,126.279999,-11.760000,-7.560000,19.96
765917,0.599264,1.099952,-0.217160,-45.290001,9.660000,4.480000,19.96
765928,0.578768,1.165344,-0.341600,-167.509995,19.670000,13.020000,19.98
765939,0.609512,1.151192,-0.295240,-288.190002,25.480000,28.700001,19.99
765950,0.643672,1.097024,-0.156160,-371.350006,30.030001,45.779999,19.99
765961,0.653920,1.020896,0.022448,-433.440002,29.260000,60.200001,20.02
765972,0.680272,0.882304,0.223504,-460.670013,24.010000,69.300003,20.02
765983,0.742248,0.748104,0.373320,-472.429993,29.680000,85.120003,19.97
765994,0.720288,0.552416,0.377712,-458.220001,0.490000,90.019997,19.99
766005,0.816424,0.447008,0.488488,-445.760010,-11.690000,91.559998,19.99
766016,0.908656,0.471408,0.537776,-430.570007,-8.400000,96.040001,20.01
766027,0.901336,0.481656,0.524112,-422.940002,-11.620000,100.379997,20.01
766038,0.942816,0.402600,0.543632,-410.410004,-7.420000,107.589996,19.96
766049,1.037488,0.243512,0.493856,-391.790009,14.630000,139.929993,19.95
766060,0.798368,0.089304,0.528504,-329.420013,30.309999,118.720001,19.95
766071,0.862784,0.162504,0.492392,-319.480011,11.900000,120.260002,19.96
766082,0.756400,-0.303048,0.450424,-261.170013,-1.190000,116.129997,19.96
766093,0.845216,-0.376248,0.305000,-174.929993,2.870000,93.309998,19.96
766104,0.794464,-0.227896,0.289384,-117.809998,13.090000,71.820000,19.96
766115,0.748104,-0.387960,0.256688,-66.430000,11.970000,68.250000,19.96
766126,0.732000,-0.619272,0.328424,-14.490000,9.660000,51.450001,19.95
766137,0.756400,-0.679784,0.500200,22.680000,7.070000,34.090000,19.95
766148,0.770064,-0.721752,0.678808,37.099998,3.500000,20.370001,19.97
766159,0.737856,-0.721752,0.803736,36.889999,-3.010000,5.390000,19.97
766171,0.742736,-0.707600,0.833016,28.070000,-11.760000,-8.050000,19.98
766181,0.752984,-0.625128,0.730048,29.330000,-17.709999,-23.520000,19.97
766193,0.744688,-0.564128,0.593896,30.030001,-22.469999,-53.340000,19.97
766205,0.794464,-0.637816,0.370880,48.930000,-21.980000,-52.150002,20.02
766216,0.798856,-0.592920,0.245952,103.320000,-19.040001,-68.669998,19.97
766227,0.784704,-0.388448,0.219112,160.300003,-16.030001,-82.320000,19.97
766238,0.842776,-0.383080,0.252296,212.380005,-8.470000,-110.180000,19.97
766249,0.864248,-0.288408,0.357704,290.079987,-4.830000,-123.269997,19.97
766261,0.785680,-0.064904,0.515328,349.299988,-9.590000,-130.619995,20.00
766272,0.808616,0.185928,0.643184,376.880005,-17.219999,-128.589996,19.96
766284,0.854976,0.234240,0.716872,389.130005,-23.170000,-123.970001,19.96
766295,0.888648,0.196664,0.677832,407.190002,-26.180000,-115.220001,19.98
766306,0.901336,-0.031720,0.521184,459.480011,-23.379999,-108.150002,19.98
766317,0.823744,0.154208,0.402112,517.440002,-15.680000,-98.980003,19.99
766328,0.720288,0.441640,0.259616,553.280029,-15.750000,-84.839996,20.02
766339,0.691496,0.664168,0.131272,568.820007,-25.549999,-65.870003,20.02
766350,0.725656,0.763720,0.128832,554.190002,-27.299999,-44.380001,19.97
766361,0.681248,0.957456,-0.079056,439.459991,-19.180000,-32.549999,19.97
766372,0.724680,0.942816,-0.089304,305.339996,-16.590000,-21.980000,20.02
766383,0.628056,0.847656,-0.074664,175.839996,4.830000,-12.040000,20.02
766394,0.514840,1.090680,-0.200080,-21.139999,16.240000,3.010000,19.97
766404,0.536312,1.325408,-0.322568,-225.889999,22.610001,14.350000,19.97
766415,0.671488,1.265384,-0.430416,-361.410004,36.189999,37.799999,19.97
766427,0.727608,1.114592,-0.302072,-484.049988,42.770000,61.669998,19.97
766438,0.663680,0.997960,-0.017080,-569.659973,33.950001,72.519997,19.97
766449,0.662216,0.723704,0.244976,-600.320007,13.230000,85.959999,19.98
766460,0.657824,0.508008,0.570960,-597.099976,-13.440000,95.900002,20.00
766471,0.742248,0.519232,0.726632,-575.609985,-30.799999,99.610001,20.00
766482,0.898896,0.514352,0.738832,-547.750000,-40.529999,112.699997,20.04
766493,0.977464,0.401136,0.641720,-512.190002,-33.110001,102.199997,20.04
766504,1.094584,-0.064904,0.587064,-459.410004,48.650002,182.770004,19.99
766515,0.845216,0.380640,0.342576,-427.279999,17.150000,128.729996,19.96
766526,0.882792,0.096136,0.372832,-369.950012,1.190000,147.070007,19.96
766537,0.796904,-0.356240,0.090768,-272.649994,3.990000,118.370003,19.98
766548,0.786656,-0.294752,0.034648,-168.279999,24.920000,87.220001,19.98
766559,0.670512,-0.488976,-0.064904,-71.190002,31.010000,73.150002,19.99
766570,0.726144,-0.709064,0.057096,21.980000,36.330002,56.209999,19.99
766581,0.658312,-0.794464,0.342576,68.110001,27.580000,36.330002,20.03
766592,0.732976,-0.817888,0.628056,86.029999,22.190001,6.370000,19.99
766603,0.687104,-0.898408,0.891088,77.000000,16.309999,1.680000,19.99
766614,0.733952,-0.776408,0.971608,48.650002,10.850000,-18.830000,20.03
766625,0.719312,-0.828624,0.939888,10.990000,-2.590000,-30.030001,20.03
766636,0.766648,-0.779824,0.782752,-8.190000,-10.360000,-44.310001,19.99
766647,0.785680,-0.723216,0.630984,-20.160000,-14.560000,-58.310001,19.94
766658,0.787144,-0.712968,0.458232,-7.000000,-12.600000,-74.199997,19.94
766669,0.777384,-0.662216,0.245464,27.020000,-10.290000,-86.029999,20.02
766680,0.772016,-0.640256,0.192272,91.489998,-3.640000,-103.809998,20.02
766691,0.732000,-0.384544,0.206424,147.139999,-3.010000,-113.330002,20.03
766702,0.760792,-0.236192,0.301096,181.509995,-9.520000,-117.040001,20.00
766714,0.838872,-0.158112,0.330376,219.169998,14.770000,-157.919998,20.00
766725,0.738832,-0.113704,0.479704,263.410004,6.930000,-159.389999,20.00
766736,0.707600,0.008784,0.571448,313.040009,-6.160000,-153.160004,20.00
766747,0.807152,0.172752,0.588528,350.839996,-8.750000,-148.259995,19.98
766758,0.852536,0.405528,0.613416,378.070007,-3.010000,-139.789993,20.01
766769,0.787632,0.485560,0.617320,417.760010,-8.260000,-127.889999,20.01
766780,0.692960,0.557784,0.594872,458.290009,-12.600000,-113.400002,19.98
766791,0.623176,0.833992,0.371368,453.109985,-16.240000,-92.190002,19.98
766802,0.645624,0.863760,0.235704,416.010010,-22.260000,-74.339996,20.00
766813,0.663192,0.752008,0.085400,385.000000,-15.680000,-62.020000,19.91
766824,0.528016,0.943304,0.181048,314.230011,-0.420000,-35.770000,19.91
766835,0.397232,1.466440,0.024400,159.529999,-2.240000,-17.080000,20.00
766846,0.524112,1.581608,-0.081008,-6.860000,-3.360000,6.580000,20.00
766857,0.598288,1.268800,-0.122488,-133.279999,9.870000,31.639999,20.00
766868,0.647576,1.101416,-0.297192,-211.889999,23.100000,49.419998,20.00
766879,0.662216,1.043832,-0.245952,-300.929993,24.500000,57.959999,20.00
766889,0.646112,0.855464,0.002928,-368.339996,25.129999,73.919998,19.98
766900,0.600240,0.848144,0.162016,-409.709991,9.310000,83.930000,19.98
766911,0.675392,0.794464,0.417240,-463.959991,-6.440000,98.629997,20.04
766922,0.756888,0.569984,0.677832,-473.269989,-4.830000,110.529999,20.04
766933,0.804712,0.536800,0.837896,-468.230011,-11.550000,124.949997,20.00
766944,0.909144,0.416264,0.882304,-454.160004,-13.440000,140.419998,19.98
766955,1.344928,0.110288,0.933056,-407.190002,67.550003,218.470001,19.98
766966,0.835944,0.446520,0.844240,-378.420013,7.140000,161.279999,20.02
766977,0.909144,0.529480,0.752008,-370.299988,-4.060000,176.889999,20.02
766988,0.775920,0.226432,0.236192,-315.070007,-10.710000,165.690002,19.98
766999,0.735904,-0.088816,-0.086376,-206.220001,11.760000,141.610001,19.98
767010,0.580232,-0.657824,-0.228384,-98.349998,25.059999,102.339996,19.98
767022,0.636352,-1.023824,-0.009272,44.240002,29.330000,66.080002,20.00
767033,0.683688,-1.026264,0.426512,124.250000,17.920000,43.049999,20.00
767043,0.726632,-1.067744,0.768112,161.979996,9.520000,23.379999,19.98
767054,0.726144,-0.883768,1.043344,155.330002,-3.010000,12.460000,19.98
767065,0.718824,-0.931592,0.975024,141.820007,-7.980000,-21.559999,19.99
767076,0.707600,-0.799344,0.773968,133.910004,-17.570000,-39.270000,20.00
767087,0.667096,-0.694424,0.677344,134.960007,-29.330000,-62.930000,20.00
767098,0.852536,-0.614392,0.454328,144.130005,-31.639999,-73.500000,19.97
767109,0.824720,-0.687104,0.377712,208.600006,-35.490002,-78.120003,19.97
767120,0.819352,-0.466040,0.367952,288.049988,-31.990000,-101.779999,19.99
767131,0.744200,-0.375272,0.426024,341.459991,-38.150002,-120.959999,19.99
767143,0.866200,-0.154696,0.489464,368.549988,-39.970001,-122.010002,19.99
767154,0.839360,-0.063440,0.591456,388.500000,-41.650002,-117.809998,19.99
767165,0.854976,-0.006832,0.555832,411.529999,-36.610001,-119.070000,19.99
767176,0.794464,0.249856,0.576816,419.859985,-32.900002,-107.239998,19.98
767187,0.725168,0.277672,0.481168,455.070007,-39.130001,-89.599998,19.98
767198,0.694912,0.437248,0.373808,486.709991,-43.820000,-79.239998,19.98
767209,0.686128,0.679784,0.260592,508.410004,-49.070000,-63.910000,19.98
767220,0.740784,0.674904,0.064416,513.869995,-45.849998,-47.599998,19.98
767231,0.793976,0.596824,-0.026840,513.239990,-42.910000,-18.830000,19.98
767242,0.719312,0.713456,-0.030744,430.220001,-28.980000,-22.120001,19.98
767253,0.627568,1.037000,0.035624,287.559998,-29.680000,-12.460000,19.98
767264,0.652456,1.140456,-0.055632,69.440002,-24.920000,-6.790000,19.99
767275,0.647088,0.941352,-0.190808,-119.349998,10.570000,-1.190000,19.99
767286,0.507032,0.921344,-0.227408,-254.309998,26.250000,8.890000,20.02
767297,0.576816,1.044808,-0.261568,-345.730011,18.480000,29.889999,20.02
767308,0.722728,1.020408,-0.112240,-452.760010,17.500000,57.189999,20.01
767319,0.750056,0.854000,0.106384,-524.580017,15.680000,64.400002,19.96
767330,0.740296,0.694424,0.310856,-566.510010,10.290000,71.400002,19.96
767341,0.762744,0.607072,0.511424,-574.770020,-16.030001,81.059998,19.98
767352,0.720288,0.555832,0.621712,-575.960022,-18.059999,82.669998,19.98
767363,0.867664,0.396256,0.605120,-552.299988,-22.540001,88.199997,19.99
767374,0.944280,0.298656,0.557296,-531.299988,-21.420000,96.250000,19.98
767385,1.302472,0.061000,0.640744,-473.549988,53.830002,165.619995,19.98
767396,0.726632,0.259128,0.472872,-408.589996,16.590000,99.260002,20.00
767407,0.903776,0.249368,0.450912,-415.029999,12.950000,119.910004,20.00
767418,0.799344,-0.361608,0.294752,-306.600006,10.500000,103.669998,20.00
767429,0.834968,-0.290360,0.181048,-199.639999,17.150000,83.860001,20.00
767440,0.739808,-0.413336,0.083936,-117.529999,29.400000,62.020000,20.00
767451,0.743712,-0.562664,0.131760,-20.510000,33.250000,40.880001,19.98
767462,0.716384,-0.596824,0.339648,50.680000,28.139999,29.190001,19.98
767476,0.740784,-0.658312,0.668560,89.459999,23.030001,7.210000,20.00
767487,0.748592,-0.622200,0.864248,82.040001,17.360001,-11.060000,20.02
767498,0.709064,-0.622200,1.025288,67.620003,4.340000,-23.379999,20.02
767509,0.758840,-0.762744,0.904264,55.160000,-3.570000,-37.380001,19.99
767520,0.777384,-0.647576,0.813984,67.550003,-12.810000,-57.400002,19.99
767531,0.724680,-0.467992,0.702720,88.480003,-24.780001,-66.709999,19.98
767542,0.797880,-0.450912,0.476776,125.160004,-28.420000,-80.570000,20.02
767553,0.828624,-0.290360,0.440176,187.250000,-25.690001,-98.980003,20.02
767564,0.833992,-0.188856,0.411872,255.080002,-25.760000,-109.970001,20.00
767575,0.882304,-0.151768,0.444080,315.140015,-24.150000,-116.410004,20.00
767586,0.849608,0.025864,0.562176,361.690002,-29.330000,-114.800003,20.00
767598,0.831552,0.261080,0.672464,395.850006,-41.439999,-102.480003,20.00
767609,0.838384,0.355264,0.668560,410.619995,-52.849998,-93.660004,20.00
767620,0.866200,0.444080,0.678320,418.459991,-56.279999,-82.879997,20.00
767631,0.820816,0.490440,0.588528,428.049988,-59.430000,-70.139999,20.00
767642,0.833992,0.375760,0.415776,467.809998,-58.450001,-55.930000,20.02
767652,0.830576,0.422608,0.250832,495.040009,-50.959999,-45.080002,20.00
767663,0.742248,0.733952,0.193736,451.709991,-46.900002,-26.250000,20.00
767675,0.700280,0.952576,0.048312,319.269989,-55.230000,-14.350000,20.01
767685,0.805688,0.786656,-0.044896,194.740005,-51.939999,-7.070000,20.01
767696,0.751032,0.594384,0.011224,48.720001,-22.120001,4.410000,20.00
767707,0.573888,0.824232,-0.040992,-73.360001,-11.060000,7.280000,20.00
767718,0.549000,0.976488,-0.187880,-220.850006,-15.820000,21.280001,19.99
767729,0.681736,0.969168,-0.294264,-352.589996,-12.670000,38.639999,20.00
767740,0.793976,0.995032,-0.321104,-436.100006,0.000000,65.800003,20.00
767751,0.742248,0.964776,-0.059536,-521.289978,3.010000,74.269997,20.00
767762,0.759328,0.823256,0.111752,-557.549988,3.220000,86.940002,20.00
767773,0.746640,0.534848,0.221552,-546.489990,-0.630000,105.349998,19.98
767784,0.832040,0.354288,0.380640,-511.140015,7.490000,103.250000,19.93
767796,0.893528,0.326960,0.468968,-463.820007,7.420000,111.440002,19.93
767807,1.331264,0.109800,0.554856,-393.750000,90.650002,182.139999,20.00
767818,0.770064,0.199592,0.369904,-324.239990,42.980000,112.070000,20.00
767828,0.949160,0.134200,0.360144,-319.130005,35.139999,138.110001,19.98
767839,0.818376,-0.206424,0.112728,-231.699997,30.450001,123.830002,20.00
767850,0.901824,-0.192272,0.056120,-166.880005,44.310001,103.949997,20.00
767861,0.802272,-0.362096,0.109312,-129.639999,60.200001,81.199997,19.96
767872,0.671488,-0.661728,0.242048,-53.689999,54.320000,61.250000,19.96
767883,0.634888,-0.802272,0.426512,18.969999,40.599998,43.680000,20.01
767894,0.706136,-0.806664,0.620736,53.970001,31.010000,21.070000,20.01
767905,0.728096,-0.825208,0.760792,79.029999,24.570000,-3.640000,19.99
767916,0.731024,-0.726632,0.803736,90.790001,17.500000,-23.100000,20.02
767927,0.762256,-0.796416,0.704184,108.360001,9.310000,-44.730000,20.02
767938,0.796416,-0.682712,0.596824,152.320007,6.370000,-61.950001,20.02
767949,0.808128,-0.427488,0.553880,195.789993,4.620000,-89.529999,20.02
767960,0.737856,-0.312320,0.625128,247.869995,-3.570000,-104.300003,20.02
767971,0.744688,-0.205448,0.711016,296.309998,-13.370000,-115.430000,19.98
767982,0.802760,-0.057584,0.753960,339.149994,-19.600000,-122.150002,19.98
767993,0.854976,0.106872,0.775920,367.290009,-26.180000,-124.180000,20.00
768004,0.870592,0.185440,0.670512,385.559998,-30.660000,-117.739998,20.00
768015,0.873520,0.221552,0.588528,412.510010,-36.820000,-98.349998,19.98
768026,0.813984,0.352336,0.465064,410.829987,-39.970001,-95.339996,19.99
768037,0.830576,0.414800,0.435784,391.510010,-36.540001,-75.529999,19.99
768048,0.732000,0.476776,0.453352,373.660004,-32.270000,-60.200001,19.96
768059,0.610000,0.727608,0.390400,283.500000,-28.629999,-46.549999,19.96
768070,0.590968,0.967704,0.301584,175.350006,-30.100000,-28.840000,19.98
768081,0.636352,1.004304,0.149816,83.370003,-23.379999,-6.720000,19.98
768092,0.683200,1.047248,-0.023424,-24.780001,-14.980000,16.450001,20.02
768103,0.742248,0.961360,-0.082472,-113.959999,-5.320000,27.930000,20.03
768114,0.775432,0.898408,-0.072712,-189.699997,12.810000,39.130001,20.03
768125,0.625128,0.769576,0.077592,-224.210007,18.830000,52.290001,19.98
768136,0.682712,0.648552,0.294264,-232.399994,18.620001,56.560001,19.98
768148,0.664168,0.685640,0.420168,-226.729996,13.860000,57.049999,20.05
768158,0.756888,0.703696,0.516792,-222.949997,14.770000,69.370003,19.94
768169,0.771528,0.648552,0.564616,-222.949997,6.090000,82.110001,19.94
768180,0.812520,0.536800,0.686128,-212.240005,9.590000,84.489998,20.04
768191,0.848144,0.387960,0.661728,-191.169998,18.760000,82.879997,20.04
768202,0.894504,0.347944,0.609024,-188.720001,23.660000,84.279999,20.05
768213,0.892552,0.356240,0.504592,-204.610001,25.059999,88.620003,19.97
768224,0.916464,0.225944,0.414800,-226.520004,24.500000,88.129997,19.97
768235,0.912072,-0.119072,0.378200,-232.399994,27.930000,79.029999,19.96
768246,0.885232,-0.307440,0.562664,-213.710007,35.700001,68.739998,19.96
768257,0.903776,-0.316224,0.908168,-176.399994,54.880001,97.790001,20.00
768268,0.677344,-0.156160,1.065792,-140.419998,29.120001,70.629997,20.00
768279,0.783728,-0.065880,1.187792,-130.059998,10.080000,86.519997,20.01
768290,0.756400,-0.129808,1.120448,-71.540001,-7.840000,82.250000,19.98
768301,0.753472,-0.049288,0.966728,-19.250000,-12.390000,76.720001,19.98
768312,0.772504,0.021960,0.762256,6.860000,-10.710000,67.690002,20.02
768323,0.757376,-0.030744,0.524600,26.740000,-4.060000,65.449997,20.02
768334,0.690032,-0.077592,0.351360,30.100000,0.140000,59.150002,20.02
768345,0.688568,-0.309880,0.414312,31.150000,10.710000,47.880001,20.02
768356,0.741272,-0.447984,0.618296,70.349998,5.320000,36.680000,20.02
768367,0.752008,-0.428952,0.745176,120.680000,8.050000,30.309999,19.98
768377,0.725656,-0.314760,0.765672,158.479996,4.690000,24.150000,19.98
768388,0.705648,-0.207888,0.690032,151.690002,10.920000,21.420000,19.99
768399,0.705160,-0.026840,0.636840,149.800003,-0.630000,31.430000,20.02
768411,0.769576,0.119560,0.519720,143.990005,-7.910000,41.439999,20.02
768421,0.710040,0.255712,0.392352,112.000000,2.800000,57.049999,19.98
768432,0.755424,0.301584,0.354288,59.779999,6.580000,59.570000,19.98
768443,0.859368,0.184952,0.407480,13.090000,20.719999,60.900002,19.98
768454,0.851560,-0.097600,0.534848,-4.480000,35.419998,54.880001,19.98
768465,0.766160,-0.288896,0.641232,9.660000,43.750000,42.209999,19.98
768476,0.718824,-0.331352,0.688080,48.860001,36.889999,32.970001,19.96
768487,0.714920,-0.250344,0.709552,75.879997,21.980000,34.790001,19.96
768498,0.729560,-0.155184,0.707600,98.489998,12.250000,36.750000,20.01
768508,0.748104,-0.028304,0.681736,104.300003,10.150000,40.250000,20.01
768519,0.798856,0.017080,0.626104,96.879997,1.050000,43.049999,20.00
768530,0.796904,-0.048312,0.514352,76.510002,8.960000,39.480000,19.96
768541,0.845216,-0.055144,0.487512,46.060001,26.459999,33.669998,19.96
768552,0.809104,-0.055144,0.533384,30.450001,31.639999,27.510000,20.01
768563,0.803736,-0.081984,0.555832,15.610000,37.869999,22.889999,20.01
768573,0.815936,-0.165432,0.581696,5.110000,43.750000,17.290001,20.00
768584,0.855464,-0.232776,0.621224,0.630000,46.060001,13.230000,20.00
768595,0.859368,-0.249368,0.640256,0.070000,43.259998,9.520000,19.96
768606,0.884256,-0.273768,0.627080,2.380000,39.410000,11.480000,19.93
768618,0.892064,-0.309392,0.614880,6.510000,33.389999,10.360000,19.93
768629,0.949648,-0.342576,0.583160,11.340000,35.490002,6.930000,20.00
768640,1.002352,-0.370392,0.553880,12.880000,39.970001,3.500000,20.00
768651,1.033096,-0.367464,0.565592,14.840000,43.259998,2.730000,20.02
768662,1.072136,-0.353800,0.604632,15.050000,41.860001,5.250000,20.06
768673,1.103856,-0.380640,0.607072,7.070000,39.619999,7.980000,20.06
768684,1.158024,-0.396256,0.572424,-11.480000,38.500000,9.030000,19.96
768695,1.175592,-0.409432,0.550952,-29.190001,41.369999,10.710000,19.96
768706,1.161928,-0.490440,0.522160,-30.940001,38.779999,11.970000,19.97
768717,1.154608,-0.571936,0.521184,-25.900000,37.099998,11.970000,19.99
768728,1.158024,-0.631472,0.505568,-14.770000,35.349998,7.840000,19.99
768739,1.140944,-0.677832,0.492880,-1.120000,32.759998,0.910000,20.00
768750,1.159976,-0.681736,0.466040,7.910000,32.270000,-8.750000,20.00
768762,1.182424,-0.633912,0.399672,16.100000,35.910000,-14.980000,19.94
768773,1.157048,-0.575840,0.407480,16.520000,37.310001,-20.090000,20.00
768784,1.160952,-0.478728,0.418216,13.440000,38.500000,-27.299999,20.00
768795,1.205848,-0.409920,0.386008,6.860000,43.119999,-38.080002,19.99
768807,1.202432,-0.358192,0.369416,-4.340000,52.639999,-42.070000,19.99
768818,1.126304,-0.335744,0.384056,-17.219999,60.480000,-52.990002,20.00
768829,1.084824,-0.325496,0.357704,-31.430000,74.550003,-71.959999,20.03
768840,1.076528,-0.328424,0.303536,-51.450001,99.959999,-82.529999,20.03
768851,0.977952,-0.341600,0.358192,-69.930000,119.000000,-107.379997,20.01
768863,0.949160,-0.319640,0.414312,-79.099998,123.480003,-122.849998,20.01
768874,0.892064,-0.395280,0.425536,-70.699997,127.120003,-143.149994,19.98
768886,0.717360,-0.508008,0.360144,-63.000000,133.630005,-169.889999,19.98
768897,0.596336,-0.547048,0.345992,-55.369999,141.470001,-193.550003,19.98
768908,0.383568,-0.499712,0.408944,-41.090000,145.809998,-217.630005,19.98
768920,0.167872,-0.320616,0.523136,-38.639999,152.529999,-241.779999,19.98
768931,-0.099552,-0.089792,0.694424,-53.130001,156.380005,-262.290009,20.02
768942,-0.442616,0.153232,0.875960,-102.129997,162.750000,-279.720001,19.98
768954,-0.835944,0.186904,1.171200,-173.880005,198.800003,-316.540009,19.98
768965,-1.095560,0.127856,1.288808,-186.339996,183.750000,-334.529999,19.98
768976,-1.204872,0.219112,1.438136,-188.720001,192.639999,-301.350006,19.98
768987,-1.516704,0.310856,1.601616,-184.380005,206.710007,-287.489990,20.00
768998,-1.731424,0.360144,1.617720,-163.449997,176.470001,-261.170013,19.95
769009,-1.791936,0.506056,1.715808,-137.270004,102.129997,-217.070007,19.95
769020,-1.455704,0.751520,1.659688,-105.629997,42.630001,-165.550003,19.98
769031,-0.710528,0.886696,1.559648,-96.879997,-14.840000,-104.160004,19.98
769043,-0.343552,0.864248,1.420080,-80.570000,-33.389999,-46.759998,20.03
769054,-0.186416,0.320128,0.916952,-54.180000,-42.419998,-1.470000,20.00
769065,-0.053680,-0.425536,0.521672,-6.440000,-34.230000,10.570000,20.00
769077,0.030256,-0.737368,0.433344,77.489998,-28.770000,15.610000,20.02
769088,0.068808,-0.708576,0.569496,137.899994,-7.910000,42.279999,20.02
769099,-0.077592,-0.488976,0.872056,180.460007,11.130000,73.290001,20.05
769110,-0.210328,-0.355264,1.138992,194.529999,-2.310000,72.309998,20.01
769121,-0.126392,-0.278648,1.249768,178.500000,-5.880000,59.080002,20.01
769132,-0.040992,-0.227408,1.252696,128.449997,-2.100000,42.209999,19.99
769143,-0.045384,-0.224480,1.203896,74.620003,-5.810000,32.689999,19.99
769155,-0.012688,-0.238632,1.078968,45.500000,-9.240000,28.420000,20.00
769166,0.035136,-0.203984,0.980880,28.980000,-13.720000,28.139999,20.00
769177,0.074176,-0.151280,0.962336,5.740000,-18.900000,26.459999,20.00
769189,0.050752,-0.197640,0.979904,-11.270000,-21.209999,17.920000,20.02
769200,0.054168,-0.228872,0.998936,-9.030000,-21.840000,8.890000,20.02
769211,0.234728,-0.190808,1.027240,0.210000,5.530000,59.080002,20.03
769222,-0.162016,-0.422120,1.047736,56.700001,-8.820000,16.870001,20.04
769233,0.112728,-0.031232,1.000888,48.720001,-11.130000,26.389999,20.04
769244,0.078080,-0.029768,1.068720,27.230000,-3.990000,16.730000,20.03
769255,0.020496,-0.004392,1.081896,39.130001,-16.240000,19.809999,20.03
769266,-0.031232,0.009272,1.027728,56.349998,-25.340000,38.360001,19.96
769277,-0.056608,0.142984,0.998936,64.820000,-31.850000,47.669998,19.96
769290,0.028792,0.271328,0.973072,52.220001,-25.200001,53.549999,19.96
769302,-0.201544,0.247416,0.812032,45.500000,-71.680000,73.919998,20.04
769313,0.169824,0.332816,0.969168,6.580000,-10.290000,46.900002,19.04
769324,0.129808,0.258152,1.121912,-0.630000,2.240000,44.310001,19.97
769335,-0.061000,0.198128,1.143384,-7.840000,-8.470000,49.630001,20.01
769346,-0.142496,0.138592,1.137528,5.530000,-24.080000,57.049999,20.01
769357,-0.123464,0.146888,1.087752,34.509998,-30.100000,67.480003,20.02
769368,-0.186904,0.151768,0.979416,48.930000,-41.299999,79.099998,20.02
769379,-0.093696,0.144448,0.929640,48.439999,-41.790001,85.540001,19.99
769390,0.046360,0.140056,0.956480,51.029999,-40.599998,87.709999,20.00
769401,0.040992,0.210328,0.988200,60.270000,-35.980000,86.029999,20.00
769412,0.017080,0.291824,0.996496,66.639999,-35.419998,86.309998,20.00
769423,0.007320,0.314760,0.975024,57.259998,-36.400002,88.339996,20.00
769435,0.010736,0.296704,0.971120,43.610001,-38.290001,90.440002,20.01
769445,0.047336,0.259616,0.971608,37.029999,-39.900002,91.559998,20.03
769457,0.056608,0.270840,0.988200,38.919998,-43.540001,97.580002,20.03
769468,0.092232,0.291336,1.004304,41.860001,-54.110001,104.370003,20.01
769478,0.162992,0.289384,0.982344,40.740002,-67.129997,110.389999,20.01
769489,0.180072,0.230824,0.941840,35.910000,-74.550003,121.239998,20.04
769500,0.257664,0.179096,0.854000,40.950001,-82.669998,126.209999,19.96
769511,0.358680,0.117120,0.808128,49.209999,-56.349998,125.160004,19.96
769522,0.383080,0.110776,0.826184,52.009998,-51.450001,123.620003,20.02
769533,0.436760,0.138104,0.858392,52.290001,-56.910000,116.269997,20.02
769544,0.501176,0.124440,0.880352,47.250000,-50.750000,122.010002,20.04
769555,0.525088,0.104920,0.862296,43.889999,-55.299999,112.139999,20.04
769566,0.557296,0.145912,0.903776,36.820000,-43.750000,103.110001,20.01
769576,0.545584,0.144448,0.896944,34.720001,-50.330002,102.199997,20.01
769587,0.574864,0.084424,0.858880,31.990000,-50.259998,91.910004,20.01
769598,0.666120,-0.002928,0.851072,31.570000,-40.529999,89.180000,20.02
769609,0.714920,-0.029768,0.874496,32.619999,-35.490002,73.500000,20.02
769620,0.735904,-0.013664,0.911584,32.410000,-29.540001,68.599998,20.00
769631,0.697352,0.002928,0.877912,32.619999,-31.290001,63.560001,20.02
769642,0.686616,0.024400,0.849608,20.160000,-34.650002,56.560001,20.02
769653,0.690032,-0.020984,0.835456,15.260000,-31.080000,47.389999,19.98
769664,0.664656,-0.054656,0.791536,12.880000,-20.370001,34.650002,19.98
769675,0.637328,-0.113216,0.752008,10.570000,-10.220000,20.930000,20.02
769686,0.631960,-0.077104,0.762744,15.960000,-6.230000,9.590000,20.02
769697,0.636840,-0.040504,0.789096,27.790001,-8.190000,6.440000,19.96
769707,0.744688,-0.048800,0.721264,24.990000,-6.790000,6.370000,19.95
769718,0.773480,-0.080032,0.762256,18.620001,-5.320000,3.150000,19.95
769729,0.774456,-0.090768,0.802272,24.080000,-5.320000,0.420000,20.02
769740,0.743712,-0.050752,0.853024,24.920000,-7.770000,0.700000,20.02
769751,0.733464,0.053680,0.918416,18.830000,-12.460000,2.870000,20.02
769762,0.696376,0.154208,0.970144,12.810000,-34.720001,7.560000,19.97
769773,0.679784,0.210328,0.962824,3.990000,-28.350000,14.840000,19.97
769784,0.747128,0.148352,0.913048,-5.950000,-31.290001,22.540001,20.00
769795,0.788120,0.008296,0.839848,-15.960000,-26.740000,23.940001,20.00
769806,0.801296,-0.074664,0.796416,-17.920000,-22.889999,21.490000,20.00
769817,0.771528,-0.157136,0.801296,-10.990000,-21.209999,14.140000,20.00
769828,0.794464,-0.183976,0.766648,1.470000,-21.420000,8.750000,19.97
769839,0.812032,-0.176656,0.750544,14.280000,-21.420000,5.320000,20.01
769850,0.838872,-0.110776,0.753472,21.420000,-21.420000,2.450000,20.01
769861,0.853512,-0.053192,0.767624,25.410000,-20.510000,3.850000,20.02
769871,0.896456,-0.040016,0.750544,22.610001,-19.740000,6.160000,20.02
769882,0.932080,-0.038552,0.748592,17.219999,-18.690001,8.960000,20.04
769894,0.950624,-0.030744,0.713944,14.210000,-14.420000,9.240000,19.99
769905,0.960384,-0.022448,0.698816,3.220000,-15.050000,15.400000,19.99
769915,0.999424,-0.045872,0.681736,-6.860000,-12.180000,17.709999,19.97
769927,1.027240,-0.062952,0.670024,-14.630000,-10.080000,21.490000,19.97
769937,1.028216,-0.084912,0.683688,-21.490000,-10.640000,25.129999,20.03
769948,1.038464,-0.115168,0.679296,-26.040001,-9.520000,28.280001,20.02
769959,1.047248,-0.163968,0.674904,-23.870001,-12.530000,31.780001,20.02
769970,1.108248,-0.214720,0.645624,-22.120001,-12.320000,35.700001,20.02
769981,1.152168,-0.304512,0.613904,-22.959999,-9.380000,37.169998,20.02
769993,1.154120,-0.390400,0.590480,-23.240000,-3.360000,33.180000,20.02
770003,1.188280,-0.466528,0.558272,-17.360001,4.690000,24.780001,20.02
770014,1.220976,-0.527040,0.510448,-13.860000,15.050000,9.310000,20.01
770025,1.228296,-0.550464,0.486048,-7.140000,23.240000,-4.830000,19.98
770036,1.239520,-0.546072,0.496296,-4.760000,31.500000,-22.680000,19.98
770048,1.177056,-0.614392,0.469456,-0.980000,41.650002,-40.529999,20.02
770058,1.142896,-0.545096,0.466528,6.790000,39.549999,-50.889999,20.02
770069,1.059448,-0.448472,0.491416,16.940001,31.990000,-56.910000,20.02
770080,1.093608,-0.259128,0.483120,9.730000,41.580002,-77.699997,19.99
770092,1.094584,-0.157624,0.483608,-14.420000,60.689999,-93.169998,19.99
770102,1.028704,-0.170800,0.503128,-38.220001,57.049999,-103.040001,20.03
770114,0.934520,-0.327936,0.493368,-57.189999,70.209999,-122.989998,20.03
770125,0.823256,-0.454816,0.476288,-87.779999,77.629997,-151.690002,19.99
770135,0.692472,-0.637328,0.435296,-73.989998,84.000000,-193.270004,19.98
770147,0.503128,-0.714920,0.388936,-57.750000,102.339996,-232.470001,19.98
770157,0.233264,-0.591456,0.420168,-31.080000,117.320000,-277.480011,20.04
770169,-0.084424,-0.333792,0.537288,-20.860001,143.289993,-320.040009,20.04
770180,-0.277184,0.066856,0.660264,-18.690001,144.199997,-313.320007,19.97
770191,-0.615368,0.320128,0.869616,-80.220001,145.809998,-306.600006,20.00
770202,-0.937936,0.459208,1.128256,-157.639999,153.300003,-296.799988,20.00
770213,-1.280024,0.491416,1.479128,-182.699997,156.100006,-296.589996,20.00
770224,-1.700192,0.570960,1.539152,-149.729996,143.080002,-285.179993,20.00
770235,-1.882216,0.577792,1.445456,-135.169998,106.330002,-266.489990,20.00
770246,-1.608448,0.678320,1.446920,-123.900002,57.959999,-221.059998,20.00
770257,-1.227808,0.734928,1.406904,-100.870003,19.950001,-170.240005,20.04
770268,-0.851560,0.907192,1.397144,-79.519997,-6.440000,-121.239998,20.02
770279,-0.460184,1.120448,1.368840,-61.880001,-21.139999,-78.959999,20.02
770290,-0.153720,1.081896,1.222928,-71.400002,-35.700001,-17.080000,20.03
770301,-0.054168,0.528992,0.813008,-74.480003,-40.669998,24.990000,20.03
770312,-0.028304,-0.089792,0.635864,-53.549999,-33.110001,39.200001,20.01
770323,0.057096,-0.551440,0.704184,23.520000,-20.160000,51.939999,20.03
770334,0.027816,-0.476776,0.904264,104.860001,5.810000,78.680000,20.03
770345,-0.142008,-0.137128,1.206336,134.679993,17.430000,94.919998,20.00
770356,-0.236192,-0.015128,1.317600,129.429993,6.860000,95.129997,20.00
770367,-0.134200,-0.118584,1.298080,90.019997,-4.130000,80.570000,20.02
770378,-0.028304,-0.212280,1.281976,57.119999,-4.830000,58.240002,20.00
770389,0.000976,-0.184464,1.256112,24.780001,-1.540000,47.599998,20.00
770400,0.002440,-0.139080,1.218536,0.490000,-0.350000,41.580002,19.98
770411,0.013176,-0.151768,1.133624,-14.630000,-6.930000,33.459999,19.98
770423,0.100040,-0.246928,1.078480,-30.240000,-5.740000,47.529999,20.00
770434,0.002440,-0.376736,1.018456,-14.280000,-15.470000,16.799999,20.00
770445,0.128832,-0.386984,1.003328,1.610000,-6.440000,17.080000,20.00
770457,0.086376,-0.319152,1.046272,28.559999,-1.680000,0.910000,20.01
770468,0.041480,-0.183000,1.039440,47.810001,-5.600000,3.080000,20.01
770480,0.017080,-0.063928,1.050664,60.410000,-14.630000,5.250000,20.01
770491,0.048800,0.043432,1.057008,65.660004,-12.810000,8.050000,19.97
770502,0.031232,0.206424,1.047736,63.980000,-12.110000,11.130000,19.97
770513,0.034160,0.335744,1.065304,45.849998,-7.350000,20.230000,19.98
770523,-0.051240,0.345992,1.085800,27.719999,-7.420000,24.360001,19.98
770535,0.074176,0.345016,1.037000,25.059999,2.870000,34.650002,20.03
770546,-0.072224,0.322568,1.012112,18.200001,4.270000,41.860001,20.01
770557,-0.142984,0.299144,1.036024,16.940001,-3.570000,53.340000,20.01
770568,-0.131272,0.235704,1.031632,22.400000,-6.580000,64.260002,19.98
770579,-0.130784,0.169824,1.017968,29.049999,-14.000000,76.650002,19.98
770590,-0.147864,0.173728,1.030168,39.270000,-16.520000,84.699997,19.97
770601,-0.172264,0.242048,0.994544,51.869999,-17.850000,87.570000,19.99
770612,-0.212280,0.322568,0.968192,49.490002,-20.860001,93.239998,19.99
770623,-0.210328,0.340136,0.923296,39.480000,-22.750000,94.849998,19.95
770634,-0.184952,0.306464,0.902800,22.610001,-19.040001,98.209999,19.95
770645,-0.141520,0.227408,0.907192,15.470000,-17.080000,97.440002,19.99
770656,-0.100040,0.202520,0.928176,21.139999,-17.150000,99.260002,19.99
770667,-0.075640,0.208864,0.932568,28.980000,-20.160000,100.029999,20.02
770677,-0.006344,0.220088,0.937936,29.959999,-23.799999,101.360001,19.99
770689,0.026840,0.226432,0.952576,30.030001,-24.290001,101.570000,19.99
770699,-0.002928,0.244488,0.958432,33.669998,-28.629999,100.870003,19.99
770710,-0.012200,0.256688,0.941352,30.030001,-32.270000,102.129997,19.99
770721,0.030744,0.245464,0.921344,19.670000,-35.560001,105.419998,20.01
770733,0.104432,0.197640,0.936472,6.440000,-32.619999,102.760002,20.00
770743,0.137616,0.156648,0.946232,3.080000,-32.200001,98.070000,20.00
770754,0.166896,0.112240,0.949160,9.730000,-31.920000,98.489998,20.05
770765,0.201544,0.064904,0.920368,28.559999,-37.450001,95.199997,20.05
770776,0.283528,0.020008,0.877912,49.840000,-43.470001,93.660004,20.01
770787,0.364048,-0.002928,0.868152,61.250000,-41.580002,87.080002,20.01
770798,0.467016,0.042944,0.866200,70.349998,-41.790001,82.599998,20.07
770808,0.461160,0.123464,0.883280,70.559998,-39.689999,84.000000,19.98
770819,0.444568,0.175680,0.877912,68.389999,-40.110001,75.040001,19.98
770830,0.443104,0.213744,0.855952,54.740002,-42.560001,72.239998,20.02
770841,0.469944,0.226432,0.828624,43.189999,-41.509998,69.580002,20.02
770853,0.496296,0.163968,0.786168,38.360001,-37.660000,61.389999,19.99
770864,0.594872,0.064904,0.741760,38.290001,-36.119999,50.959999,20.02
770875,0.655872,0.059536,0.801296,37.029999,-17.430000,42.070000,20.02
770886,0.588528,0.084424,0.890600,47.110001,-17.990000,25.830000,19.97
770897,0.658312,0.236680,0.886208,32.900002,-16.590000,29.610001,19.97
770908,0.613904,0.213744,0.925736,8.330000,-23.240000,27.719999,19.99
770919,0.661240,0.161040,0.962336,6.230000,-32.340000,32.200001,20.00
770929,0.728584,0.127368,0.917440,8.680000,-39.970001,36.330002,20.00
770940,0.806176,0.157624,0.885232,3.360000,-39.410000,35.000000,20.02
770951,0.814960,0.200568,0.916952,-2.380000,-36.049999,35.070000,20.02
770962,0.794464,0.135176,0.889624,-5.110000,-37.450001,31.709999,20.02
770973,0.813008,-0.111264,0.855464,-7.700000,-29.190001,24.360001,20.02
770984,0.810568,-0.088816,0.852536,-0.980000,-25.480000,16.940001,20.00
770995,0.825208,-0.086376,0.868640,11.830000,-23.590000,8.750000,20.02
771006,0.822768,-0.053192,0.849120,24.360001,-28.280001,7.000000,20.02
771016,0.882304,-0.009760,0.827648,27.090000,-28.420000,7.210000,19.98
771027,0.927688,0.009760,0.811056,23.799999,-25.340000,6.230000,19.98
771038,0.968192,0.027328,0.806176,17.010000,-19.530001,4.970000,19.99
771049,0.998936,0.045384,0.838384,4.970000,-14.840000,6.440000,19.98
771060,0.996984,0.049288,0.854976,-3.150000,-15.890000,10.710000,19.98
771071,1.018456,0.026352,0.829112,-10.780000,-17.500000,17.500000,20.04
771082,1.050176,0.013176,0.799832,-23.799999,-14.840000,21.139999,20.04
771093,1.064328,-0.039040,0.785680,-38.220001,-11.130000,24.500000,20.01
771104,1.054080,-0.089792,0.755912,-46.200001,-9.170000,25.969999,20.01
771114,1.057496,-0.127856,0.765672,-50.610001,-8.330000,26.879999,20.00
771125,1.072136,-0.205448,0.765184,-50.750000,-6.860000,25.549999,19.97
771136,1.081896,-0.285480,0.737856,-46.689999,0.840000,17.990000,19.97
771147,1.109712,-0.319152,0.714920,-41.020000,8.120000,10.710000,20.00
771158,1.087752,-0.356728,0.713944,-34.580002,15.330000,2.660000,20.00
771169,1.070184,-0.377712,0.721264,-28.559999,17.500000,-5.180000,20.00
771180,1.072136,-0.385032,0.734440,-15.890000,14.980000,-11.340000,20.02
771191,1.118984,-0.335256,0.691496,-4.690000,11.830000,-17.570000,20.02
771202,1.129232,-0.269376,0.668072,-4.270000,18.830000,-24.150000,20.00
771213,1.103856,-0.170312,0.695400,-10.920000,23.590000,-34.160000,20.00
771224,1.064328,-0.141032,0.718336,-20.370001,23.309999,-33.599998,20.02
771235,0.981856,-0.219600,0.690520,-29.190001,18.830000,-43.540001,20.02
771246,0.963312,-0.327448,0.595848,-33.740002,21.490000,-55.860001,20.05
771257,0.925736,-0.370880,0.532896,-32.900002,29.889999,-75.529999,20.01
771268,0.981856,-0.264496,0.486536,-36.750000,44.520000,-89.040001,20.01
771279,0.834480,-0.182512,0.535824,-53.689999,51.939999,-109.690002,19.99
771290,0.735416,-0.207400,0.590968,-70.349998,60.270000,-127.959999,19.99
771301,0.617808,-0.327936,0.657824,-78.820000,66.989998,-153.509995,19.98
771312,0.507520,-0.498248,0.646112,-72.589996,70.980003,-176.610001,20.02
771323,0.367464,-0.526064,0.654408,-41.650002,79.099998,-210.699997,20.02
771334,0.199592,-0.319152,0.751032,0.280000,86.379997,-234.990005,20.04
771345,-0.070760,-0.095160,0.791048,17.080000,88.410004,-238.699997,20.04
771356,-0.353312,0.162504,0.831064,3.430000,86.730003,-245.770004,20.02
771367,-0.717848,0.253760,0.887672,-27.930000,73.570000,-251.929993,20.02
771378,-0.773480,0.004392,0.769576,-56.560001,75.320000,-270.829987,20.02
771389,-0.910608,0.112728,0.780312,-72.870003,82.040001,-275.100006,20.02
771401,-1.141432,0.173728,0.971608,-85.889999,97.160004,-281.329987,20.02
771412,-1.285392,0.438224,1.353712,-89.809998,112.139999,-254.100006,20.02
771423,-1.658224,0.728096,1.659200,-66.779999,87.570000,-218.259995,20.03
771434,-1.611376,1.163392,1.727520,-38.430000,19.530001,-180.460007,20.03
771445,-0.847168,1.224392,1.483520,-50.610001,-29.469999,-125.790001,19.99
771456,-0.468968,0.871080,1.052128,-82.669998,-25.549999,-94.989998,19.99
771467,-0.284992,0.510448,0.892064,-64.610001,-12.320000,-54.599998,20.02
771478,-0.119560,0.176656,0.865712,7.210000,-2.100000,-33.810001,20.01
771489,-0.067344,0.173728,0.894504,71.470001,-2.800000,11.270000,20.01
771500,-0.068320,0.276696,0.933056,122.989998,-7.210000,54.040001,20.02
771511,-0.104920,0.307928,1.070184,126.489998,-8.610000,75.040001,20.02
771522,-0.126880,0.257176,1.199504,107.589996,-9.590000,76.860001,20.01
771533,-0.003904,0.140056,1.291736,78.610001,-7.770000,66.989998,20.01
771544,-0.102480,-0.033184,1.267824,44.310001,-5.390000,53.970001,20.02
771555,-0.075152,-0.222040,1.195600,33.669998,-4.130000,43.750000,19.98
771566,-0.023912,-0.241560,1.122400,38.570000,3.290000,33.250000,19.98
771577,-0.072712,-0.135176,1.083360,44.520000,-16.379999,26.110001,20.03
771588,0.119560,0.102480,1.015040,27.020000,3.780000,8.540000,20.03
771599,0.047336,0.224968,1.018944,-5.110000,7.070000,10.080000,20.04
771609,-0.017080,0.157136,1.068720,-15.610000,-3.010000,14.000000,20.00
771620,0.032696,0.074664,1.043344,-7.840000,0.700000,14.560000,20.00
771631,-0.121024,0.135664,1.045296,-3.920000,-4.130000,18.760000,20.00
771642,-0.013664,0.145912,1.035536,-2.380000,-4.970000,20.370001,20.00
771653,-0.009272,0.124440,0.996496,5.810000,-4.830000,18.270000,19.99
771664,-0.002928,0.188856,0.990640,16.379999,-2.660000,19.879999,19.99
771675,-0.031232,0.300608,0.961848,23.309999,1.190000,26.389999,20.01
771686,0.006832,0.379664,1.023336,23.590000,15.330000,65.940002,19.99
771697,-0.229360,0.386984,0.972584,39.480000,3.570000,49.630001,19.99
771708,-0.137128,0.493368,0.939400,21.559999,5.040000,73.919998,20.03
771719,-0.147376,0.438224,0.931592,10.990000,9.030000,78.750000,20.03
771729,-0.130784,0.399672,0.902800,11.480000,9.660000,84.559998,19.99
771740,-0.156648,0.381616,0.906704,10.010000,10.010000,94.290001,19.99
771751,-0.202032,0.397232,0.915000,12.740000,7.840000,99.889999,19.99
771762,-0.244976,0.377224,0.904752,14.980000,0.490000,107.660004,20.01
771773,-0.217160,0.341112,0.894504,15.260000,-3.080000,110.110001,20.01
771784,-0.177632,0.343064,0.893528,15.050000,-0.280000,110.389999,19.96
771795,-0.149328,0.324520,0.893528,13.510000,8.120000,108.570000,20.96
771806,-0.166408,0.290848,0.915000,16.730000,7.770000,108.570000,20.03
771817,-0.136640,0.284504,0.933544,22.610001,3.710000,110.250000,19.98
771827,-0.020496,0.286944,0.943304,22.400000,-0.350000,110.180000,19.98
771838,0.001952,0.314760,0.948184,17.150000,-6.790000,106.400002,19.97
771849,-0.032208,0.350872,0.964776,6.440000,-20.860001,106.470001,19.97
771860,-0.045872,0.333304,0.972096,1.260000,-35.070000,103.669998,20.04
771871,0.142008,0.193736,1.016016,1.050000,-3.500000,124.949997,19.98
771882,0.054656,0.191784,0.966728,22.540001,-28.000000,97.019997,19.98
771893,0.164456,0.267424,0.973560,2.660000,-31.709999,109.550003,20.01
771904,0.192760,0.167872,0.951600,3.220000,-34.790001,103.320000,20.01
771915,0.251808,0.147376,0.933544,9.450000,-32.689999,99.050003,20.05
771926,0.297192,0.099064,0.905728,13.440000,-31.219999,91.839996,20.05
771936,0.343552,0.126392,0.916464,13.930000,-28.000000,82.320000,20.00
771947,0.348432,0.134200,0.989176,12.810000,-28.629999,78.820000,19.98
771958,0.380152,0.178120,1.036024,14.210000,-33.950001,80.080002,19.98
771969,0.370880,0.207400,1.052616,19.670000,-47.950001,77.769997,20.01
771980,0.451400,0.188368,0.975024,19.670000,-50.189999,75.599998,20.01
771990,0.509960,0.115168,0.930128,16.379999,-58.590000,72.239998,20.04
772001,0.528992,0.077592,0.859368,23.030001,-59.009998,68.599998,19.93
772012,0.608048,-0.018544,0.849608,26.389999,-54.669998,62.509998,19.93
772023,0.637816,0.020008,0.886696,33.250000,-51.380001,48.580002,19.98
772034,0.655384,0.113216,0.935008,40.529999,-45.430000,42.770000,19.98
772045,0.683200,0.188368,0.922808,37.450001,-48.860001,43.400002,20.00
772055,0.724192,0.142984,0.897432,30.450001,-49.139999,41.580002,20.00
772066,0.754936,0.150792,0.864736,28.350000,-47.459999,39.619999,19.99
772077,0.802760,0.121512,0.842288,18.270000,-38.919998,32.200001,19.96
772088,0.843264,0.082960,0.863760,9.800000,-32.060001,28.840000,19.96
772098,0.883768,0.037088,0.869616,3.500000,-23.590000,23.799999,20.02
772109,0.912072,0.049288,0.898408,0.350000,-16.309999,20.090000,20.02
772120,0.891576,0.034648,0.889136,-2.450000,-13.440000,15.470000,20.01
772131,0.876448,0.005368,0.878888,-5.600000,-10.360000,10.780000,19.01
772142,0.854488,-0.033672,0.869128,-5.740000,-9.660000,7.910000,19.94
772153,0.842288,-0.061000,0.865224,-3.080000,-12.880000,7.560000,19.98
772164,0.871080,-0.068808,0.854488,2.170000,-16.520000,9.450000,19.98
772175,0.935008,-0.062952,0.843264,1.820000,-16.590000,10.780000,20.00
772186,0.949160,-0.050752,0.814472,-0.840000,-16.170000,11.200000,20.00
772197,0.943304,-0.037576,0.792024,-8.400000,-15.330000,12.180000,19.96
772208,0.948184,-0.050264,0.774944,-15.400000,-15.960000,14.000000,20.02
772219,0.949648,-0.070272,0.763720,-19.180000,-16.730000,14.700000,20.02
772230,0.955016,-0.072224,0.764696,-22.820000,-16.450001,15.050000,19.98
772241,0.961848,-0.068808,0.763720,-27.510000,-14.210000,14.280000,19.98
772252,1.011136,-0.075640,0.751520,-30.309999,-10.500000,13.510000,20.01
772263,1.039440,-0.099064,0.732488,-32.200001,-7.700000,12.950000,19.96
772274,1.096048,-0.110776,0.707112,-31.430000,-0.140000,12.180000,19.96
772285,1.111176,-0.122976,0.719312,-29.260000,5.740000,9.520000,19.97
772296,1.123864,-0.103456,0.706136,-30.940001,8.890000,9.030000,19.97
772307,1.095560,-0.124440,0.709064,-38.150002,12.460000,5.390000,19.99
772318,1.098976,-0.163968,0.690520,-39.130001,16.030001,-1.120000,19.97
772329,1.033096,-0.207400,0.684176,-35.279999,9.660000,-8.190000,19.97
772340,1.094096,-0.225456,0.650504,-28.629999,5.180000,-7.700000,19.99
772351,1.081408,-0.324520,0.633424,-21.910000,-1.120000,-16.240000,19.99
772362,1.098976,-0.396744,0.599264,-6.860000,0.700000,-35.910000,20.01
772373,1.048712,-0.365512,0.564128,0.070000,14.770000,-65.379997,20.01
772384,1.055056,-0.335256,0.544608,-0.490000,27.860001,-82.529999,20.00
772395,0.948184,-0.231800,0.519720,-7.350000,37.660000,-99.190002,19.98
772406,0.821792,-0.222528,0.564128,-18.410000,32.060001,-115.290001,19.98
772417,0.743712,-0.386496,0.583648,-41.790001,40.040001,-146.020004,19.99
772428,0.671000,-0.597800,0.473848,-40.110001,52.990002,-175.630005,19.99
772439,0.552904,-0.638304,0.482144,-4.690000,78.120003,-200.479996,20.05
772450,0.393328,-0.328424,0.543632,22.190001,96.739998,-225.539993,19.96
772461,0.085400,0.025376,0.657824,18.129999,90.930000,-230.160004,19.96
772472,-0.317688,0.284016,0.758840,-36.750000,84.699997,-232.259995,20.00
772483,-0.503128,0.391864,0.880352,-83.370003,81.339996,-245.630005,20.00
772494,-0.664168,0.286456,0.885232,-129.149994,79.309998,-257.250000,20.02
772505,-0.881816,0.093208,0.884744,-133.839996,82.809998,-273.000000,19.97
772516,-1.083848,0.092720,0.988688,-133.559998,92.750000,-271.809998,19.97
772527,-1.227320,0.252784,1.240984,-113.750000,99.190002,-252.210007,20.03
772538,-1.409344,0.510936,1.517192,-92.959999,100.029999,-223.720001,20.03
772549,-1.459120,0.817400,1.731424,-71.820000,70.139999,-198.729996,19.99
772560,-1.293200,0.996984,1.705560,-61.950001,25.200001,-163.449997,19.99
772571,-0.874984,0.933544,1.476200,-69.580002,-6.020000,-123.410004,20.03
772582,-0.461648,0.759328,1.202432,-92.959999,-17.360001,-82.809998,20.00
772593,-0.244976,0.503128,1.042368,-90.019997,-20.020000,-53.970001,20.00
772604,-0.148840,0.184464,0.959896,-64.610001,-19.459999,-26.320000,20.00
772615,-0.115168,-0.082960,0.974536,0.770000,-19.250000,-8.260000,20.00
772626,-0.076128,-0.150792,0.881816,67.970001,-15.540000,10.780000,20.03
772637,-0.035624,-0.147864,0.893528,89.669998,-9.940000,35.070000,19.99
772648,-0.026840,-0.077592,1.042368,102.410004,-2.170000,45.360001,19.99
772659,-0.076128,0.009272,1.125328,91.139999,2.940000,41.930000,20.00
772670,-0.079056,0.038064,1.196088,55.160000,0.770000,37.450001,20.00
772681,-0.051240,-0.128344,1.164368,35.840000,1.610000,22.820000,20.05
772692,0.007320,-0.230336,1.124840,32.549999,2.940000,10.150000,19.96
772702,0.003416,-0.191784,1.101904,46.830002,0.980000,6.300000,19.96
772713,0.026352,-0.060512,1.058472,51.099998,-1.960000,4.410000,19.98
772724,0.037576,0.066856,1.054080,39.900002,-1.820000,1.540000,19.98
772735,0.020496,0.167872,1.064328,24.500000,-2.730000,-1.120000,20.02
772746,0.021472,0.162504,1.065792,4.270000,-4.480000,-0.210000,20.02
772757,0.012688,0.093696,1.050176,-7.980000,-4.270000,0.700000,20.04
772768,0.060024,0.074176,1.022848,-4.270000,2.240000,17.010000,19.97
772779,-0.064416,-0.081984,1.044320,21.490000,-1.400000,16.590000,19.97
772790,0.012688,0.148840,1.061400,24.430000,6.160000,16.660000,20.00
772800,-0.114192,0.149328,1.127768,8.610000,-2.380000,24.920000,20.00
772811,0.034160,0.232776,1.053104,29.260000,16.030001,21.629999,20.02
772822,-0.119072,0.261568,1.033584,29.750000,12.180000,36.820000,20.00
772833,-0.200080,0.321104,1.031632,22.820000,1.470000,42.560001,20.00
772844,-0.159576,0.373808,1.033096,17.150000,7.840000,57.610001,20.00
772855,-0.203008,0.330376,1.001864,19.670000,7.070000,71.959999,20.00
772865,-0.224480,0.312808,0.979416,27.719999,7.070000,79.870003,20.02
772876,-0.264984,0.329888,0.970632,28.559999,0.350000,92.330002,20.02
772887,-0.307928,0.305488,0.970632,24.150000,-9.310000,96.669998,20.03
772898,-0.305000,0.278160,0.983808,22.820000,-15.120000,99.330002,20.02
772909,-0.300608,0.250344,0.992104,26.530001,-14.490000,101.290001,20.02
772920,-0.286456,0.254248,0.975024,34.930000,-9.800000,100.099998,20.01
772931,-0.266448,0.261568,0.943792,40.810001,-6.440000,100.940002,20.01
772942,-0.228872,0.232288,0.931592,39.060001,-7.630000,100.730003,19.99
772953,-0.198616,0.223992,0.913536,35.000000,-11.830000,100.660004,19.95
772963,-0.168360,0.232288,0.936960,39.270000,-14.420000,102.410004,19.95
772974,-0.088816,0.289384,0.988200,46.410000,-12.040000,104.650002,20.01
772985,-0.063928,0.386496,1.005280,46.619999,-14.560000,107.169998,20.01
772996,-0.078568,0.472384,1.020896,26.250000,-20.020000,109.410004,19.99
773007,-0.053680,0.456280,1.043832,4.620000,-30.450001,108.220001,19.99
773018,-0.072224,0.260104,1.014552,-10.010000,-46.270000,106.750000,19.98
773029,0.000488,0.290848,0.985272,-15.960000,-53.900002,101.500000,20.01
773040,0.067344,0.183976,0.930128,-15.750000,-55.439999,92.470001,20.01
773051,0.121512,0.107848,0.911584,-4.410000,-63.840000,89.110001,19.96
773062,0.134688,0.093208,0.882304,25.830000,-80.779999,104.510002,19.96
773074,0.320616,-0.005856,0.877424,66.849998,-49.209999,107.239998,19.95
773086,0.335256,0.213256,0.910608,79.379997,-80.709999,89.529999,19.97
773096,0.370392,0.258152,0.949648,72.379997,-70.000000,114.940002,19.97
773107,0.346968,0.308904,0.953552,73.779999,-82.599998,94.779999,20.01
773119,0.480192,0.320128,0.882792,61.110001,-94.010002,96.110001,20.01
773130,0.646112,0.373808,0.801296,32.900002,-54.529999,71.050003,20.02
773140,0.625616,0.314760,0.785680,8.680000,-59.570000,63.070000,19.96
773151,0.574864,0.228872,0.828136,-1.610000,-59.639999,61.599998,19.96
773162,0.585112,0.171288,0.794464,11.690000,-63.630001,58.029999,19.97
773173,0.604144,0.142496,0.805688,11.900000,-80.709999,56.490002,19.97
773184,0.724192,0.139080,0.766160,23.100000,-77.000000,56.980000,20.01
773195,0.774456,0.130296,0.728096,28.910000,-81.760002,55.580002,20.03
773207,0.884744,0.083936,0.698816,26.530001,-76.300003,54.250000,20.03
773218,0.960384,0.052704,0.674904,27.719999,-53.270000,40.740002,20.01
773228,0.943304,0.068808,0.677344,22.680000,-39.270000,23.170000,20.01
773241,0.900848,0.128832,0.728584,14.280000,-27.650000,14.000000,20.02
773251,0.890600,0.142984,0.749080,11.340000,-25.830000,10.850000,19.98
773262,0.939888,0.104920,0.717360,4.270000,-24.780001,11.900000,19.98
773273,0.980880,0.055632,0.705648,1.470000,-19.740000,9.590000,20.01
773284,0.987224,0.044896,0.704184,1.470000,-17.990000,9.520000,20.01
773295,0.992104,0.067832,0.711992,-0.980000,-18.969999,12.180000,19.98
773306,1.019432,0.051240,0.694424,-5.460000,-20.230000,18.410000,19.98
773317,1.071160,0.021472,0.668560,-10.010000,-20.299999,23.520000,20.02
773328,1.119472,0.018056,0.650504,-9.870000,-20.650000,29.190001,20.04
773339,1.162904,0.076128,0.570960,-20.299999,-19.670000,35.279999,20.04
