timestamp_ms,ax,ay,az,gx,gy,gz,tempC
78309,0.384056,0.112240,0.583160,270.269989,97.510002,106.470001,20.19
78320,0.426512,0.174216,0.528992,284.200012,100.099998,96.809998,20.15
78333,0.447984,0.260592,0.465064,287.140015,104.930000,84.769997,20.15
78345,0.421632,0.238144,0.463112,289.170013,109.339996,73.500000,20.23
78357,0.412848,0.367952,0.637328,275.730011,109.620003,64.959999,20.20
78374,0.383568,0.507032,0.808616,262.500000,94.570000,48.720001,20.20
78386,0.422120,0.537288,0.895480,256.480011,78.610001,40.459999,20.20
78397,0.444568,0.643184,0.925736,239.610001,65.239998,30.590000,20.17
78409,0.488976,0.670512,0.916464,218.470001,55.020000,21.000000,20.17
78420,0.521184,0.660752,0.867664,202.720001,45.639999,11.200000,20.16
78431,0.543632,0.634400,0.774944,193.270004,41.369999,2.380000,20.21
78442,0.541680,0.652944,0.683200,183.399994,40.880001,-6.440000,20.21
78454,0.526064,0.769576,0.608536,172.199997,40.740002,-13.650000,20.19
78465,0.557784,0.872056,0.575840,146.089996,37.939999,-18.340000,20.19
78477,0.518256,0.756400,0.596336,140.210007,39.900002,-17.080000,20.18
78488,0.416264,0.546560,0.706136,192.919998,29.680000,-22.120001,20.14
78499,0.416752,0.697840,0.666120,227.149994,20.930000,-24.850000,20.14
78510,0.464576,1.237568,0.696376,203.279999,11.060000,-7.140000,20.17
78521,0.495808,1.409832,0.672952,147.770004,8.050000,-0.210000,20.17
78532,0.478728,1.344928,0.701744,101.080002,3.640000,7.280000,20.26
78543,0.451400,1.438624,0.822768,29.260000,-2.450000,10.710000,20.15
78555,0.469944,1.285880,0.802272,-68.809998,-7.630000,-4.200000,20.15
78566,0.429928,0.714920,0.747128,-88.129997,-13.230000,-19.459999,20.21
78577,0.405528,0.438224,0.643184,-10.430000,-16.030001,-25.480000,20.21
78589,0.435784,0.844240,0.450424,0.000000,-11.900000,-18.969999,20.19
78600,0.544608,0.941840,0.288896,-14.700000,-7.000000,-9.730000,20.20
78614,0.511424,0.949648,0.231800,-45.220001,2.660000,0.490000,20.20
78625,0.500688,0.916952,0.242536,-63.279999,2.030000,-3.710000,20.23
78636,0.553392,0.861808,0.253272,-74.690002,4.480000,-6.930000,20.23
78647,0.574864,0.773968,0.260592,-74.900002,10.640000,-15.820000,20.17
78659,0.536800,0.763720,0.280112,-71.820000,14.140000,-14.420000,20.23
78670,0.534848,0.757864,0.300120,-66.430000,17.360001,-10.570000,20.23
78681,0.528992,0.765672,0.338672,-61.529999,18.830000,-10.570000,20.18
78693,0.487512,0.812032,0.367464,-58.799999,15.750000,-13.020000,20.20
78705,0.470432,0.833016,0.372832,-55.930000,10.850000,-15.190000,20.20
78716,0.475800,0.861808,0.407968,-49.419998,4.480000,-14.210000,20.17
78728,0.483120,0.915488,0.419680,-48.090000,4.340000,-11.550000,20.17
78739,0.482632,0.917440,0.433832,-52.709999,6.930000,-7.280000,20.15
78751,0.467992,0.876448,0.493368,-60.900002,9.730000,-3.640000,20.16
78763,0.447984,0.890112,0.528504,-72.449997,9.870000,-3.080000,20.16
78773,0.448960,0.898896,0.538264,-86.730003,7.140000,-2.170000,20.22
78784,0.445056,0.902312,0.544120,-98.910004,3.290000,-1.820000,20.22
78796,0.431392,0.893040,0.547536,-114.169998,-0.840000,-0.700000,20.21
78807,0.439200,0.869616,0.530456,-131.320007,-5.040000,0.350000,20.23
78818,0.433344,0.817888,0.530456,-143.779999,-9.310000,0.980000,20.23
78829,0.425536,0.780800,0.541192,-156.589996,-12.250000,1.960000,20.23
78840,0.413824,0.736880,0.581696,-161.490005,-16.240000,1.610000,20.23
78851,0.420656,0.717360,0.602192,-160.089996,-20.160000,0.910000,20.19
78862,0.423096,0.636840,0.616832,-151.759995,-23.940001,-3.150000,20.19
78874,0.438712,0.526552,0.640744,-135.940002,-21.629999,-2.870000,20.19
78886,0.431880,0.495320,0.646112,-116.269997,-21.209999,-3.290000,20.16
78898,0.426024,0.525576,0.641232,-101.360001,-24.920000,-5.530000,20.17
78909,0.442616,0.531432,0.656848,-93.239998,-28.420000,-8.540000,20.17
78920,0.438224,0.511424,0.661728,-82.879997,-28.139999,-11.690000,20.22
78931,0.444568,0.488488,0.653920,-69.160004,-27.860001,-13.510000,20.22
78942,0.439200,0.478240,0.638792,-53.060001,-28.070000,-16.450001,20.19
78953,0.445056,0.488000,0.612928,-39.480000,-28.629999,-19.389999,20.19
78964,0.457256,0.498248,0.593408,-30.940001,-28.139999,-21.420000,20.20
78975,0.470920,0.506544,0.578280,-22.889999,-26.670000,-23.450001,20.21
78986,0.481168,0.528504,0.573888,-18.690001,-24.360001,-24.430000,20.21
78997,0.492880,0.558760,0.583648,-16.940001,-22.260000,-24.639999,20.22
79009,0.502640,0.595360,0.600240,-16.030001,-20.370001,-23.940001,20.22
79020,0.499224,0.644160,0.623176,-17.709999,-18.480000,-22.400000,20.21
79031,0.504592,0.661728,0.637328,-23.100000,-17.360001,-20.650000,20.23
79042,0.514352,0.690520,0.656360,-30.799999,-16.379999,-18.690001,20.23
79054,0.512888,0.742736,0.673928,-41.509998,-14.280000,-15.750000,20.18
79066,0.512888,0.743224,0.680760,-52.639999,-11.550000,-12.600000,20.24
79077,0.508984,0.706624,0.680272,-61.250000,-8.890000,-10.080000,20.24
79088,0.491904,0.666608,0.695888,-63.770000,-7.840000,-6.370000,20.19
79100,0.472384,0.628056,0.708576,-60.759998,-6.720000,-3.640000,20.19
79112,0.469944,0.540704,0.705648,-51.660000,-5.320000,-1.820000,20.13
79123,0.478728,0.489952,0.711504,-41.509998,-4.130000,-0.420000,20.17
79135,0.491904,0.472872,0.733952,-28.910000,-3.710000,0.910000,20.17
79146,0.502640,0.461648,0.755912,-14.980000,-1.680000,0.070000,20.20
79158,0.490440,0.468480,0.755424,-2.800000,-0.910000,-0.420000,20.20
79169,0.476288,0.520208,0.747616,2.450000,-1.120000,1.120000,20.17
79181,0.470920,0.536312,0.742248,3.640000,-2.520000,2.590000,20.21
79192,0.471896,0.542168,0.739808,2.660000,-4.060000,4.410000,20.21
79204,0.471408,0.552416,0.733464,-0.910000,-4.970000,5.460000,20.23
79215,0.469944,0.542168,0.728584,-4.690000,-5.810000,6.230000,20.15
79227,0.465064,0.532408,0.727608,-8.260000,-5.250000,6.230000,20.15
79238,0.462624,0.494344,0.728584,-10.150000,-4.480000,5.180000,20.23
79249,0.465552,0.454816,0.733464,-9.870000,-3.500000,3.430000,20.23
79261,0.458720,0.448472,0.733952,-7.980000,-4.200000,2.240000,20.20
79272,0.459696,0.452376,0.731512,-6.650000,-7.000000,1.190000,20.21
79284,0.463600,0.452376,0.725168,-5.180000,-7.980000,-0.560000,20.21
79295,0.462624,0.438712,0.718824,-2.590000,-8.820000,-2.310000,20.26
79306,0.463600,0.453840,0.714920,-1.190000,-9.100000,-3.150000,20.26
79318,0.467504,0.480192,0.718336,-1.330000,-9.450000,-3.850000,20.25
79329,0.468480,0.470920,0.728584,-0.980000,-9.800000,-4.690000,20.23
79341,0.475800,0.444568,0.722728,1.190000,-9.940000,-6.230000,20.23
79352,0.475800,0.453352,0.722240,3.010000,-10.710000,-5.950000,20.23
79363,0.472384,0.488488,0.711504,1.610000,-10.360000,-5.460000,20.23
79375,0.478240,0.444080,0.701256,1.260000,-10.150000,-5.740000,20.19
79388,0.483608,0.437248,0.709064,3.360000,-10.150000,-5.250000,20.20
79400,0.488976,0.452864,0.722240,3.500000,-10.220000,-3.710000,20.20
79411,0.499224,0.447984,0.733952,3.990000,-10.220000,-3.710000,20.21
79422,0.505568,0.441640,0.738832,4.620000,-9.520000,-4.130000,20.20
79434,0.506544,0.466528,0.734928,3.920000,-9.030000,-3.080000,20.20
79445,0.514840,0.480192,0.734928,2.590000,-7.210000,-3.290000,20.22
79457,0.514840,0.470432,0.732488,1.750000,-6.440000,-3.430000,20.22
79468,0.509472,0.468480,0.738832,2.170000,-6.440000,-2.870000,20.20
79480,0.513376,0.493368,0.743712,2.030000,-6.160000,-2.100000,20.22
79491,0.517768,0.491416,0.737368,0.630000,-6.160000,-1.400000,20.22
79502,0.523136,0.488976,0.735904,-0.980000,-6.090000,-0.840000,20.16
79514,0.526552,0.510448,0.732488,-2.870000,-5.040000,-0.070000,20.21
79524,0.522648,0.517280,0.725168,-5.390000,-3.570000,0.560000,20.21
79536,0.523136,0.506056,0.726632,-6.650000,-3.290000,0.840000,20.22
79547,0.520208,0.505080,0.730048,-6.650000,-3.080000,1.260000,20.22
79558,0.522648,0.506544,0.734440,-5.460000,-2.590000,1.400000,20.22
79569,0.521672,0.517280,0.735416,-3.990000,-2.520000,1.190000,20.22
79580,0.520208,0.528992,0.735904,-3.710000,-2.590000,1.540000,20.24
79592,0.519232,0.533872,0.730536,-4.060000,-2.520000,1.540000,20.22
79603,0.511424,0.525088,0.720776,-4.340000,-2.170000,1.540000,20.22
79615,0.505080,0.524112,0.717360,-3.920000,-2.100000,2.380000,20.22
79626,0.499712,0.531920,0.712968,-4.060000,-2.380000,3.220000,20.16
79637,0.499712,0.532408,0.722240,-4.130000,-2.660000,3.500000,20.16
79649,0.497760,0.519720,0.723704,-3.010000,-2.590000,3.570000,20.20
79660,0.497760,0.509472,0.725168,-1.540000,-2.730000,3.640000,20.20
79672,0.493856,0.518744,0.718336,-1.330000,-2.800000,4.060000,20.21
79684,0.488488,0.510448,0.715408,-0.980000,-3.360000,3.990000,20.15
79694,0.486048,0.504104,0.717360,0.140000,-3.920000,3.570000,20.15
79705,0.483608,0.511424,0.714432,0.980000,-4.200000,3.430000,20.20
79717,0.489952,0.507520,0.719800,1.540000,-4.690000,2.940000,20.20
79728,0.489952,0.500200,0.717848,2.170000,-4.480000,2.030000,20.20
79739,0.492392,0.500200,0.715896,2.100000,-4.480000,1.470000,20.25
79751,0.487512,0.511912,0.720776,0.490000,-4.690000,0.910000,20.25
79762,0.486048,0.491904,0.725656,-1.190000,-4.620000,0.070000,20.23
79772,0.482632,0.479704,0.730048,-1.820000,-4.690000,-0.840000,20.23
79783,0.483608,0.487024,0.727120,-2.660000,-4.900000,-1.400000,20.23
79795,0.483608,0.486048,0.730536,-3.430000,-4.970000,-1.960000,20.19
79806,0.488488,0.475312,0.738832,-2.940000,-5.110000,-3.220000,20.19
79818,0.494832,0.471408,0.745176,-2.730000,-5.040000,-3.920000,20.22
79833,0.497760,0.477264,0.750544,-4.200000,-5.180000,-4.270000,20.20
79844,0.500200,0.474824,0.754448,-5.320000,-5.320000,-4.270000,20.20
79856,0.503128,0.471408,0.752496,-5.810000,-5.250000,-4.270000,20.20
79866,0.507032,0.474824,0.743712,-6.580000,-5.390000,-4.130000,20.20
79878,0.505568,0.475800,0.739320,-8.120000,-5.320000,-4.270000,20.24
79890,0.512400,0.465552,0.747128,-9.450000,-5.250000,-4.480000,20.24
79901,0.512400,0.457256,0.745176,-9.800000,-5.040000,-4.900000,20.24
79913,0.517280,0.448960,0.743712,-9.520000,-5.320000,-5.040000,20.22
79924,0.521672,0.454816,0.740784,-9.590000,-5.460000,-5.110000,20.22
79935,0.528992,0.467992,0.739808,-9.870000,-5.460000,-5.040000,20.21
79946,0.533384,0.475312,0.745176,-10.850000,-5.390000,-4.970000,20.21
79958,0.534360,0.480192,0.756888,-12.040000,-5.600000,-4.620000,20.21
79970,0.537288,0.487024,0.768600,-13.860000,-5.460000,-4.060000,20.21
79981,0.529480,0.486536,0.769088,-15.540000,-5.740000,-3.290000,20.22
79992,0.526552,0.482632,0.762256,-17.639999,-6.090000,-2.170000,20.22
80004,0.527040,0.495320,0.763720,-20.650000,-5.880000,-0.700000,20.20
80016,0.526064,0.485560,0.766648,-22.610001,-5.530000,0.140000,20.20
80027,0.526064,0.478728,0.769576,-23.100000,-5.250000,0.630000,20.20
80038,0.521672,0.463600,0.774944,-22.680000,-5.180000,1.260000,20.21
80050,0.524112,0.447984,0.773968,-20.930000,-4.970000,1.750000,20.21
80061,0.517768,0.447496,0.766648,-19.110001,-4.410000,2.170000,20.18
80072,0.514840,0.442616,0.758840,-17.850000,-3.990000,2.310000,20.18
80083,0.518744,0.430904,0.752008,-15.960000,-3.640000,2.240000,20.24
80095,0.513376,0.438712,0.750056,-14.350000,-3.780000,2.800000,20.20
80106,0.513864,0.451400,0.745664,-13.020000,-3.850000,3.080000,20.20
80118,0.519232,0.453352,0.746640,-12.320000,-3.150000,3.010000,20.23
80128,0.512400,0.451400,0.752984,-11.830000,-2.590000,3.010000,20.23
80140,0.508008,0.452864,0.760304,-12.110000,-2.310000,3.080000,20.21
80151,0.506056,0.452864,0.760792,-12.670000,-2.240000,3.500000,20.22
80163,0.500200,0.445056,0.753472,-13.090000,-2.660000,3.920000,20.22
80174,0.497760,0.439200,0.744688,-13.020000,-2.310000,3.640000,20.27
80184,0.489952,0.413336,0.735904,-11.550000,-2.310000,2.940000,20.27
80196,0.487512,0.404064,0.727120,-8.610000,-2.590000,2.450000,20.20
80207,0.492392,0.405528,0.718824,-6.230000,-2.800000,1.820000,20.21
80218,0.489952,0.407968,0.718336,-3.850000,-2.800000,0.630000,20.21
80229,0.492392,0.409432,0.717360,-2.030000,-2.800000,-0.140000,20.29
80241,0.491416,0.419192,0.717360,-0.770000,-3.010000,-1.050000,20.29
80252,0.492392,0.438712,0.721752,-0.840000,-3.220000,-1.890000,20.23
80263,0.496296,0.444080,0.722240,-2.030000,-3.080000,-2.730000,20.23
80275,0.492880,0.433344,0.722240,-2.170000,-3.080000,-3.640000,20.23
80286,0.490928,0.436272,0.723704,-1.260000,-3.290000,-4.620000,20.26
80298,0.493856,0.437736,0.719312,0.140000,-2.730000,-5.390000,20.18
80308,0.490440,0.433832,0.716872,1.400000,-2.730000,-6.230000,20.18
80322,0.491416,0.436760,0.721752,2.310000,-2.800000,-6.650000,20.20
80335,0.500200,0.449448,0.733464,2.380000,-2.730000,-6.790000,20.21
80347,0.500200,0.436760,0.735416,2.870000,-2.590000,-7.280000,20.21
80358,0.498736,0.430416,0.734928,4.270000,-2.520000,-7.070000,20.22
80369,0.501664,0.441152,0.738832,4.130000,-2.660000,-6.650000,20.22
80379,0.503128,0.435296,0.740296,3.710000,-2.310000,-6.580000,20.19
80391,0.504104,0.432368,0.745664,4.340000,-1.820000,-6.160000,20.23
80402,0.508008,0.427976,0.756888,4.480000,-1.540000,-5.810000,20.23
80413,0.511424,0.428464,0.768600,4.480000,-1.120000,-5.530000,20.20
80432,0.517280,0.431880,0.781776,3.850000,-0.070000,-5.250000,20.21
80443,0.519232,0.426512,0.790072,3.710000,0.140000,-5.040000,20.21
80454,0.519720,0.436760,0.799344,3.220000,0.070000,-4.690000,20.19
80465,0.515328,0.452376,0.802272,1.260000,-0.490000,-3.850000,20.19
80476,0.517768,0.444080,0.805200,-0.280000,-0.700000,-3.290000,20.22
80487,0.516792,0.431392,0.804712,-1.470000,-0.770000,-2.520000,20.23
80498,0.515816,0.433832,0.801784,-1.890000,-0.420000,-1.680000,20.23
80510,0.514352,0.426024,0.803248,-1.610000,-0.140000,-1.120000,20.23
80522,0.513376,0.425048,0.803736,-0.910000,0.000000,-0.560000,20.18
80533,0.512888,0.419192,0.806664,0.490000,-0.490000,-0.420000,20.18
80544,0.518256,0.414312,0.805200,2.730000,-1.330000,0.070000,20.20
80556,0.517768,0.420656,0.803736,3.850000,-2.030000,0.280000,20.20
80567,0.518744,0.431880,0.803736,3.920000,-2.310000,0.350000,20.25
80579,0.516792,0.436272,0.801784,3.220000,-2.520000,0.560000,20.20
80590,0.510448,0.441152,0.795440,1.820000,-2.940000,0.840000,20.20
80601,0.508496,0.440176,0.798368,0.140000,-3.220000,1.120000,20.26
80613,0.505080,0.426024,0.793488,-0.840000,-3.780000,0.980000,20.26
80624,0.504104,0.412848,0.790072,-0.490000,-4.410000,0.980000,20.28
80635,0.501664,0.415288,0.780312,0.000000,-4.830000,0.840000,20.24
80646,0.501664,0.403576,0.777384,0.630000,-5.390000,0.280000,20.24
80658,0.504104,0.406504,0.774944,1.330000,-5.810000,-0.280000,20.24
80669,0.504592,0.408456,0.772016,1.120000,-5.880000,-0.700000,20.24
80680,0.511424,0.413336,0.774456,0.630000,-6.090000,-1.050000,20.25
80692,0.513864,0.422120,0.769576,-0.980000,-6.090000,-1.120000,20.26
80703,0.517768,0.426024,0.764696,-3.080000,-6.160000,-1.120000,20.26
80714,0.520696,0.415288,0.758840,-3.710000,-5.880000,-1.400000,20.23
80726,0.520696,0.413824,0.757376,-3.850000,-5.810000,-1.400000,20.23
80737,0.522160,0.420168,0.755424,-4.410000,-5.670000,-1.330000,20.25
80753,0.524112,0.406016,0.754936,-4.130000,-5.740000,-1.400000,20.20
80764,0.526064,0.414312,0.757376,-4.060000,-5.460000,-1.260000,20.23
80775,0.524600,0.423096,0.761280,-4.550000,-5.460000,-0.980000,20.23
80787,0.527040,0.424072,0.768112,-4.550000,-5.460000,-0.840000,20.25
80798,0.530944,0.429928,0.769088,-4.410000,-5.530000,-0.560000,20.25
80809,0.532408,0.433344,0.765672,-4.970000,-5.460000,-0.350000,20.25
80821,0.531920,0.431880,0.763232,-5.530000,-5.460000,0.280000,20.23
80832,0.536800,0.432368,0.757864,-5.810000,-5.390000,0.840000,20.23
80844,0.537288,0.430904,0.759816,-6.090000,-4.970000,1.330000,20.25
80855,0.544120,0.417240,0.762256,-6.300000,-4.410000,1.890000,20.25
80867,0.544120,0.418704,0.764208,-6.370000,-4.060000,3.080000,20.26
80878,0.549976,0.425536,0.769088,-7.140000,-3.710000,4.480000,20.25
80889,0.554856,0.425536,0.777384,-7.980000,-3.360000,5.530000,20.25
80900,0.559736,0.410408,0.788120,-8.260000,-3.080000,6.580000,20.23
80912,0.562176,0.403088,0.794952,-8.190000,-2.730000,7.910000,20.23
80923,0.568032,0.399672,0.790560,-7.770000,-1.960000,9.240000,20.21
80935,0.570472,0.398696,0.794952,-9.030000,-1.680000,10.570000,20.25
80946,0.573400,0.394304,0.793000,-10.920000,-1.050000,11.900000,20.25
80958,0.576328,0.377712,0.788608,-10.990000,-0.140000,12.670000,20.22
80968,0.575352,0.377712,0.789584,-11.550000,0.840000,13.720000,20.22
80980,0.571936,0.375760,0.800808,-12.670000,1.400000,14.700000,20.22
80991,0.577304,0.369904,0.804712,-13.650000,2.520000,15.330000,20.23
81003,0.569496,0.370392,0.809104,-14.140000,2.660000,16.309999,20.23
81014,0.572424,0.368440,0.820328,-15.540000,2.940000,17.150000,20.18
81024,0.572424,0.352824,0.822768,-16.379999,3.850000,17.780001,20.18
81036,0.567544,0.353312,0.834480,-17.500000,3.780000,19.180000,20.25
81047,0.569496,0.366488,0.844728,-19.740000,4.270000,20.299999,20.24
81058,0.565592,0.357704,0.845704,-22.400000,3.990000,21.000000,20.24
81070,0.566080,0.350872,0.854488,-25.410000,3.430000,22.400000,20.21
81081,0.561688,0.348432,0.860832,-28.840000,2.660000,23.520000,20.22
81092,0.562176,0.339648,0.877424,-33.320000,1.050000,24.290001,20.22
81104,0.554856,0.311344,0.907192,-36.189999,-1.400000,24.219999,20.26
81115,0.552416,0.296216,0.918904,-36.259998,-3.920000,23.730000,20.26
81126,0.549976,0.285480,0.932080,-35.279999,-7.070000,22.889999,20.23
81138,0.549000,0.280112,0.923784,-32.830002,-10.920000,22.049999,20.22
81149,0.546560,0.306952,0.923784,-34.230000,-15.120000,21.770000,20.22
81161,0.540704,0.285968,0.932080,-35.700001,-19.670000,20.020000,20.24
81173,0.535824,0.288408,0.920368,-34.790001,-24.639999,18.620001,20.24
81184,0.534848,0.292312,0.892552,-31.990000,-28.559999,17.150000,20.26
81195,0.532896,0.302560,0.865224,-29.469999,-32.689999,15.820000,20.20
81207,0.535824,0.297680,0.831064,-28.980000,-36.680000,14.000000,20.20
81218,0.548512,0.284016,0.816912,-26.950001,-38.919998,12.950000,20.23
81230,0.532408,0.295728,0.767136,-28.070000,-41.230000,11.620000,20.23
81241,0.531920,0.285480,0.720776,-29.820000,-43.540001,9.170000,20.23
81252,0.533384,0.285968,0.685640,-30.309999,-44.099998,7.980000,20.23
81263,0.523624,0.348432,0.599752,-39.830002,-43.750000,7.280000,20.23
81275,0.525576,0.342576,0.516792,-56.770000,-42.840000,3.500000,20.27
81286,0.515816,0.258152,0.476288,-66.150002,-39.619999,-0.140000,20.21
81299,0.499712,0.169824,0.398696,-67.480003,-35.770000,-6.930000,20.21
81311,0.488000,0.138592,0.333792,-61.950001,-29.190001,-13.020000,20.23
81323,0.472872,0.138592,0.262056,-53.970001,-17.360001,-18.900000,20.23
81334,0.458232,0.109800,0.162992,-46.410000,-5.110000,-27.370001,20.27
81346,0.426512,-0.006832,0.101504,-36.540001,6.020000,-36.820000,20.21
81357,0.401136,-0.089304,0.012688,-22.400000,23.030001,-46.060001,20.21
81368,0.370392,-0.081496,-0.063440,-7.280000,42.139999,-53.060001,20.25
81379,0.355264,-0.083936,-0.174216,5.320000,66.570000,-62.299999,20.20
81391,0.335744,-0.080520,-0.257664,11.760000,92.889999,-70.769997,20.20
81403,0.304024,-0.168360,-0.306952,16.590000,122.010002,-83.089996,20.27
81414,0.227408,-0.241072,-0.295728,21.209999,148.330002,-94.430000,20.27
81425,0.118096,-0.226432,-0.231312,18.690001,174.020004,-103.459999,20.21
81440,-0.021960,-0.322080,-0.103944,6.860000,207.270004,-116.199997,20.26
81452,-0.161528,-0.313296,0.141032,-1.120000,228.410004,-123.970001,20.26
81464,-0.322568,-0.284016,0.468480,-4.270000,247.729996,-127.190002,20.21
81475,-0.457256,-0.131272,0.807152,-4.060000,257.809998,-123.970001,20.19
81487,-0.602680,0.310856,1.384944,-8.400000,260.540009,-121.239998,20.19
81498,-0.585112,0.752496,2.072536,-17.639999,238.699997,-105.559998,20.30
81509,-0.260104,0.967216,2.482944,-28.559999,212.380005,-81.269997,20.30
81520,-0.037576,1.159488,2.785504,-40.950001,186.690002,-61.740002,20.25
81532,0.264984,1.177056,2.844552,-33.529999,160.580002,-55.930000,20.23
81543,0.476288,0.918416,2.163792,19.670000,138.039993,-56.070000,20.23
81555,0.727120,0.018544,0.929152,73.500000,135.800003,-74.900002,20.24
81566,0.029280,-0.064416,0.679784,86.449997,146.580002,-105.489998,20.23
81577,-0.727608,0.407968,0.783240,81.199997,148.050003,-86.730003,20.23
81589,-1.069696,0.935984,1.093120,46.060001,119.000000,-48.930000,20.24
81600,-0.972096,0.679296,1.473272,34.720001,82.250000,-23.170000,20.24
81613,-0.747616,0.779336,1.649928,66.290001,36.259998,4.830000,20.24
81625,-0.397232,1.113128,1.761192,50.400002,-6.650000,14.700000,20.23
81636,-0.154696,1.168272,2.000800,16.170000,-45.009998,22.959999,20.23
81648,0.092720,1.149240,2.299944,-38.779999,-54.459999,45.779999,20.27
81660,0.325496,0.489952,2.248704,-47.740002,-65.940002,11.340000,20.28
81673,0.182512,0.065392,2.002752,4.130000,-84.209999,3.710000,20.28
81685,0.158600,0.398696,1.515240,49.490002,-98.279999,7.000000,20.24
81697,0.205936,0.607072,1.232200,29.469999,-103.389999,14.490000,20.22
81708,0.234240,0.485560,1.087264,6.580000,-94.989998,14.140000,20.22
81719,0.162992,0.323056,0.939888,-0.210000,-92.680000,22.260000,20.20
81732,0.104432,0.270352,0.848632,-11.270000,-87.989998,24.780001,20.20
81744,-0.012200,0.255712,1.003816,-18.690001,-75.529999,11.480000,20.25
81755,-0.171288,0.285968,1.167296,-21.139999,-76.160004,5.390000,20.27
81767,-0.206424,0.174704,1.126792,1.820000,-72.099998,-7.000000,20.27
81778,-0.273280,0.209840,0.935496,14.070000,-64.750000,-18.830000,20.28
81790,-0.273280,0.312808,0.817400,13.090000,-59.709999,-15.190000,20.28
81801,-0.265472,1.126792,1.025288,-58.169998,-81.550003,10.710000,20.24
81812,-0.135664,1.759728,0.589016,-218.330002,-49.279999,6.720000,20.20
81823,0.242048,-2.699128,0.576328,8.820000,-7.910000,-77.629997,20.20
81834,-0.242048,-1.871480,-0.189344,220.710007,27.510000,-82.040001,20.26
81845,-0.185928,0.366976,0.170312,278.320007,44.029999,-29.260000,20.26
81856,-0.247416,1.078480,-0.101504,193.690002,40.389999,-41.650002,20.24
81868,-0.366488,0.917928,-0.312808,108.010002,62.299999,-30.940001,20.23
81879,-0.424072,1.057496,-0.068320,43.750000,65.239998,-20.370001,20.23
81891,-0.367464,0.891576,0.405528,-9.240000,40.950001,2.520000,20.25
81904,-0.183976,0.699304,0.878888,-45.220001,14.630000,3.010000,20.22
81917,-0.092232,0.366000,1.503040,-28.910000,-11.200000,6.510000,20.22
81929,0.128344,0.119072,1.626504,30.100000,39.340000,-3.850000,20.26
81941,-0.088816,0.500688,1.545984,81.900002,-5.180000,-15.750000,20.22
81954,0.116144,0.663680,1.447408,102.339996,-8.820000,-4.690000,20.22
81965,0.028304,0.909632,1.315160,105.839996,-36.610001,8.820000,20.25
81976,0.242048,1.119960,1.222928,90.580002,-61.950001,32.060001,20.25
81986,0.243512,1.156560,1.110688,62.930000,-76.230003,45.990002,20.26
81997,0.331840,1.119960,1.073600,29.540001,-87.010002,61.459999,20.23
82008,0.596336,1.044808,1.052616,4.130000,-65.449997,68.250000,20.23
82019,0.492880,1.003816,1.105808,-31.080000,-69.300003,65.029999,20.27
82030,0.510448,0.889624,1.249280,-59.849998,-79.870003,66.290001,20.27
82041,0.443104,0.721264,1.326872,-65.660004,-95.199997,58.520000,20.21
82052,0.414312,0.523136,1.297104,-48.509998,-100.449997,62.369999,20.24
82063,0.282552,0.549488,1.155096,-30.450001,-103.529999,68.110001,20.24
82074,0.179096,0.585112,1.018944,-25.340000,-107.800003,73.150002,20.28
82085,0.145424,0.516792,0.889624,-14.980000,-112.070000,77.489998,20.28
82097,0.187392,0.552904,0.793000,-8.680000,-109.900002,83.720001,20.24
82107,0.215696,0.512400,0.709552,-5.040000,-106.820000,84.559998,20.26
82119,0.227408,0.415288,0.636352,2.940000,-102.900002,87.220001,20.26
82129,0.238632,0.389912,0.543144,8.470000,-97.370003,91.980003,20.30
82140,0.276208,0.523136,0.513376,-5.740000,-94.989998,96.529999,20.30
82151,0.303048,0.723216,0.560712,-45.849998,-97.510002,101.989998,20.29
82162,0.375272,0.678320,0.732000,-75.110001,-104.019997,100.519997,20.29
82173,0.411384,0.466040,0.869128,-85.330002,-103.250000,93.099998,20.26
82184,0.357216,0.229360,0.856928,-77.349998,-93.800003,87.290001,20.27
82195,0.284016,0.114680,0.772016,-65.660004,-91.559998,83.790001,20.27
82206,0.282064,0.223992,0.661728,-57.750000,-91.629997,81.760002,20.28
82217,0.322568,0.283528,0.535824,-66.500000,-84.559998,79.169998,20.28
82228,0.344040,0.154208,0.420168,-72.730003,-74.760002,68.809998,20.24
82239,0.378200,0.120536,0.392840,-66.709999,-65.449997,62.860001,20.20
82250,0.410408,0.192760,0.406992,-64.540001,-60.970001,59.080002,20.20
82261,0.446520,0.152744,0.438712,-61.950001,-56.490002,52.360001,20.23
82272,0.459208,0.112728,0.510448,-56.490002,-56.560001,52.009998,20.23
82283,0.459696,0.054168,0.573888,-55.090000,-53.130001,41.650002,20.28
82294,0.437736,-0.030744,0.542168,-44.240002,-44.240002,35.070000,20.30
82305,0.417240,-0.075152,0.511912,-29.750000,-37.099998,23.240000,20.30
82316,0.417728,-0.162016,0.364048,-15.750000,-21.840000,9.730000,20.29
82327,0.409920,-0.191296,0.188368,-2.730000,-10.990000,-3.500000,20.29
82339,0.400648,-0.168848,0.058072,-0.280000,6.300000,-13.230000,20.32
82350,0.362096,-0.194712,-0.018056,0.280000,22.750000,-20.930000,20.24
82361,0.363560,-0.229848,-0.061488,4.340000,41.720001,-31.080000,20.24
82372,0.356728,-0.256200,-0.082960,12.040000,63.419998,-45.849998,20.28
82383,0.302560,-0.236680,-0.073688,21.700001,79.379997,-58.310001,20.28
82394,0.218624,-0.225456,-0.085400,31.080000,104.230003,-72.800003,20.29
82405,0.164944,-0.292800,-0.182024,34.790001,129.850006,-88.620003,20.29
82416,0.091256,-0.176168,-0.178608,28.420000,152.460007,-99.889999,20.27
82427,0.029280,-0.147864,-0.159088,19.809999,174.020004,-107.449997,20.27
82438,-0.042944,-0.070272,-0.120536,6.230000,199.919998,-112.699997,20.27
82450,-0.090280,-0.146888,-0.048312,-3.430000,228.199997,-120.959999,20.25
82466,-0.265472,-0.119072,0.338672,-0.280000,261.730011,-126.629997,20.23
82477,-0.356240,0.102480,0.829112,0.700000,267.399994,-124.529999,20.23
82488,-0.483608,0.301096,1.453264,-0.490000,263.480011,-120.959999,20.25
82499,-0.414312,0.623664,2.107672,-12.460000,241.429993,-105.279999,20.27
82510,-0.238632,1.179984,2.611288,-47.040001,211.889999,-79.099998,20.27
82521,0.077592,1.168760,2.891888,-75.250000,193.270004,-69.930000,20.26
82532,0.248392,0.771528,2.465376,-60.619999,181.369995,-66.570000,20.26
82543,0.249368,0.379176,1.817312,19.809999,152.740005,-68.879997,20.25
82554,0.041480,-0.000488,0.602680,62.020000,164.149994,-92.610001,20.25
82565,-0.727608,0.465064,0.833504,81.480003,155.889999,-97.230003,20.26
82576,-1.058960,0.776896,1.278560,88.620003,132.369995,-65.029999,20.26
82587,-0.889136,0.894504,1.487424,73.639999,93.940002,-30.730000,20.26
82598,-0.698328,0.955992,1.686528,52.080002,44.380001,-16.030001,20.26
82609,-0.457256,0.927688,1.877336,27.790001,10.360000,-13.020000,20.26
82620,-0.166896,0.950136,2.136952,7.070000,-7.840000,1.190000,20.29
82631,0.054656,0.988200,2.131584,-15.960000,-7.070000,-20.510000,20.25
82642,-0.031232,0.477752,1.978840,-27.930000,-45.500000,-20.160000,20.25
82654,0.055632,0.135664,1.707024,13.300000,-55.369999,-15.610000,20.29
82665,0.206912,0.217648,1.482056,55.580002,-71.889999,-14.000000,20.29
82676,0.190320,0.417240,1.151192,70.629997,-71.820000,-10.080000,20.22
82687,0.214232,0.577792,0.971608,56.560001,-59.990002,4.830000,20.24
82697,0.131272,0.582672,0.880352,30.379999,-66.849998,10.640000,20.24
82708,0.183000,0.472384,0.915976,8.960000,-63.209999,9.730000,20.28
82719,0.169336,0.316712,0.990152,3.570000,-52.080002,1.260000,20.28
82730,-0.060024,0.397232,1.172176,1.540000,-37.590000,-5.600000,20.21
82741,-0.252296,0.292312,1.262944,4.690000,-32.689999,-13.510000,20.21
82752,-0.289872,0.342088,1.220488,20.650000,-37.520000,-16.379999,20.23
82763,-0.366976,0.490928,1.055544,33.669998,-35.560001,-17.709999,20.27
82774,-0.353312,0.508984,0.823256,22.190001,-25.830000,-26.250000,20.27
82786,-0.238632,-0.063928,0.505080,36.680000,-2.800000,-38.290001,20.24
82797,-0.158112,-1.766072,0.192272,189.419998,30.170000,-75.669998,20.24
82808,-0.558272,-0.332328,-0.368928,396.059998,39.549999,-41.160000,20.30
82819,-0.257664,1.320528,-0.142496,246.399994,58.660000,-10.710000,20.26
82830,-0.211792,1.122888,0.267912,145.320007,70.489998,6.930000,20.26
82841,-0.460184,1.161928,0.479704,39.270000,76.860001,1.890000,20.29
82856,-0.067344,-0.731024,0.391376,154.699997,58.660000,-50.540001,20.27
82867,-0.147864,0.124440,0.257176,202.649994,88.900002,-75.879997,20.27
82878,-0.404064,0.403576,0.053680,199.289993,105.139999,-123.690002,20.27
82889,-0.669048,0.350384,0.137616,210.910004,127.820000,-112.070000,20.27
82900,-0.916952,0.618784,0.447984,217.770004,133.699997,-70.489998,20.26
82911,-0.766648,1.342000,0.695400,204.820007,108.709999,-40.250000,20.20
82922,-0.473848,1.540128,1.163880,185.710007,52.080002,-23.379999,20.20
82933,-0.199592,1.779736,1.343464,162.190002,5.040000,-14.350000,20.25
82944,-0.145424,1.801696,1.321016,129.710007,-38.430000,-3.010000,20.25
82955,-0.138104,1.570384,1.269288,92.190002,-62.930000,-1.190000,20.23
82966,-0.138104,1.391288,1.212192,63.910000,-69.930000,3.360000,20.32
82976,-0.168360,1.256112,1.106296,45.570000,-76.650002,15.470000,20.32
82988,0.003416,1.252208,1.074576,39.619999,-76.720001,39.689999,20.26
82999,0.046360,1.339560,0.996008,29.680000,-64.680000,61.110001,20.26
83009,0.039528,1.304424,0.912072,20.020000,-68.180000,82.459999,20.28
83020,0.067832,1.214144,0.870592,13.020000,-76.720001,99.050003,20.28
83031,0.145912,1.257576,0.803736,-7.350000,-93.099998,104.580002,20.29
83042,0.124440,1.301496,0.832528,-20.510000,-113.889999,101.290001,20.24
83053,0.038552,1.211216,0.851560,-26.110001,-124.879997,99.400002,20.24
83064,0.025864,1.089704,0.753472,-27.580000,-119.419998,101.500000,20.28
83075,-0.032696,1.083360,0.653432,-27.160000,-101.639999,108.570000,20.28
83086,-0.091256,1.059448,0.568520,-29.400000,-87.150002,116.269997,20.27
83097,-0.068320,0.896944,0.520696,-28.490000,-79.870003,122.500000,20.24
83109,-0.050752,0.778360,0.488976,-16.030001,-77.419998,124.459999,20.24
83120,-0.038064,0.755912,0.455304,-5.110000,-81.480003,124.040001,20.28
83131,-0.012200,0.797392,0.466528,-7.490000,-90.300003,123.199997,20.28
83142,0.038064,0.868640,0.460184,-26.530001,-100.940002,124.529999,20.26
83153,0.095648,0.833504,0.544120,-43.889999,-108.500000,123.620003,20.27
83164,0.113216,0.832528,0.610488,-51.939999,-103.389999,121.589996,20.27
83175,0.055144,0.854976,0.609024,-47.810001,-89.459999,117.879997,20.30
83186,0.018544,0.786656,0.483120,-43.889999,-74.339996,116.760002,20.30
83197,0.043432,0.675880,0.361120,-37.590000,-60.759998,115.220001,20.27
83208,0.068320,0.543144,0.239608,-25.549999,-46.970001,111.720001,20.26
83221,0.104920,0.502152,0.154208,-14.280000,-39.900002,113.540001,20.26
83233,0.180560,0.712968,0.218624,-27.160000,-40.250000,117.879997,20.26
83244,0.299144,0.917928,0.357216,-59.080002,-49.980000,125.160004,20.26
83256,0.343552,0.887672,0.535824,-79.800003,-64.680000,118.510002,20.29
83269,0.277184,0.853024,0.749568,-81.690002,-70.629997,110.949997,20.27
83281,0.298168,0.778848,0.639768,-99.120003,-60.340000,108.500000,20.27
83292,0.331352,0.752984,0.590968,-114.660004,-45.779999,110.459999,20.26
83305,0.350872,0.788120,0.443592,-139.580002,-19.600000,114.449997,20.25
83316,0.299144,0.817888,0.398208,-178.919998,-22.330000,111.230003,20.25
83328,0.301096,0.642696,0.411872,-213.220001,-33.529999,106.750000,20.28
83339,0.348920,0.411384,0.499712,-233.940002,-48.160000,96.529999,20.24
83351,0.398208,0.225456,0.601216,-231.630005,-39.619999,96.879997,20.24
83363,0.387960,0.261080,0.613416,-225.750000,-42.000000,85.120003,20.27
83374,0.387960,0.133712,0.638304,-209.720001,-44.799999,80.430000,20.27
83385,0.396256,0.042944,0.600240,-182.910004,-45.779999,71.470001,20.30
83396,0.417240,-0.184464,0.551928,-128.449997,-41.650002,59.220001,20.30
83407,0.434320,-0.225456,0.467504,-76.019997,-36.820000,48.860001,20.30
83418,0.420656,-0.003904,0.407480,-52.849998,-31.570000,42.910000,20.25
83429,0.406504,0.020496,0.375760,-43.750000,-22.540001,34.160000,20.25
83440,0.394304,-0.026352,0.358192,-35.560001,-14.000000,22.120001,20.28
83451,0.381128,-0.032696,0.306464,-32.410000,0.070000,12.250000,20.20
83462,0.374784,-0.090280,0.245952,-32.410000,15.890000,-0.560000,20.20
83473,0.376736,-0.201056,0.121512,-27.650000,36.750000,-14.910000,20.27
83493,0.290848,-0.267424,-0.121512,-26.389999,71.260002,-40.740002,20.29
83505,0.251320,-0.327448,-0.138104,-29.959999,94.639999,-55.860001,20.29
83516,0.178608,-0.371368,-0.143472,-19.110001,118.089996,-69.510002,20.30
83527,0.106872,-0.314272,-0.150304,-8.050000,141.190002,-80.989998,20.27
83538,0.071248,-0.287432,-0.201544,5.320000,166.460007,-93.099998,20.27
83549,0.008784,-0.236192,-0.209840,5.950000,187.809998,-101.919998,20.30
83560,-0.066856,-0.260104,-0.188368,9.660000,217.770004,-111.860001,20.30
83573,-0.186416,-0.185928,-0.064904,3.220000,242.270004,-118.370003,20.27
83586,-0.256688,-0.220088,0.117120,-2.660000,269.920013,-125.720001,20.27
83597,-0.352824,-0.155672,0.420656,-2.800000,283.709991,-128.520004,20.27
83610,-0.532896,0.150304,1.156072,-7.000000,283.010010,-127.610001,20.30
83622,-0.678808,0.600240,1.859768,-4.480000,268.450012,-109.760002,20.24
83634,-0.548024,0.822768,2.786968,-6.790000,230.509995,-85.050003,20.24
83647,-0.342576,1.121424,3.405752,-7.490000,190.539993,-81.550003,20.26
83659,0.048800,0.968680,3.135400,7.910000,156.169998,-76.860001,20.23
83670,0.463112,-0.142496,1.788520,99.330002,174.300003,-102.269997,20.23
83681,0.164944,-0.180072,0.652944,157.710007,154.770004,-119.839996,20.23
83691,-0.791048,0.814960,0.647576,143.710007,143.080002,-108.849998,20.23
83703,-0.946720,1.145336,0.949160,95.550003,120.540001,-66.570000,20.30
83714,-0.897432,1.232688,0.863272,47.180000,101.150002,-43.820000,20.29
83725,-0.736880,0.650992,1.211704,0.980000,69.300003,-35.980000,20.29
83736,-0.388448,0.654408,1.851472,-7.420000,36.119999,-31.080000,20.29
83747,-0.286456,0.912560,2.256024,-35.840000,-1.890000,-20.160000,20.29
83758,-0.087352,0.589504,2.408768,-32.480000,-14.000000,-22.750000,20.29
83770,-0.010736,0.198128,2.238456,3.850000,-40.040001,-23.379999,20.24
83781,-0.059536,0.268888,1.888560,70.769997,-61.110001,-30.940001,20.24
83792,-0.109800,0.685640,1.366400,97.580002,-70.769997,-16.940001,20.29
83803,-0.011224,0.806176,0.921832,68.040001,-67.339996,-7.210000,20.29
83814,0.087352,0.719312,0.856928,24.500000,-54.389999,-7.910000,20.25
83825,0.016104,0.482144,0.849608,6.020000,-52.639999,-8.960000,20.24
83836,-0.025376,0.428464,0.901824,7.140000,-52.639999,-2.170000,20.24
83847,-0.030744,0.445544,0.968192,2.030000,-40.880001,0.560000,20.27
83858,-0.085888,0.301096,1.017968,10.430000,-37.380001,1.750000,20.27
83869,-0.191784,0.403576,0.942816,44.169998,-31.430000,4.270000,20.28
83881,-0.257176,0.589504,0.806176,43.889999,-29.610001,3.570000,20.25
83893,-0.197152,0.326960,0.574864,33.950001,-12.600000,-9.100000,20.25
83904,-0.193248,0.081008,0.355752,33.950001,8.960000,-19.459999,20.28
83915,-0.161040,-0.263520,-0.500688,7.910000,61.950001,-36.049999,20.28
83927,-0.419680,-0.297192,1.111664,101.919998,24.570000,-20.510000,20.27
83937,-0.056120,-0.338184,0.434320,233.800003,46.340000,-19.040001,20.27
83948,-0.069784,1.106296,-0.299632,231.490005,69.440002,5.040000,20.27
83960,-0.500688,0.940864,0.102480,103.389999,53.830002,-7.910000,20.32
83971,-0.304024,1.032608,0.504592,39.549999,54.110001,21.629999,20.32
83982,-0.381128,0.952088,0.911584,12.810000,22.260000,-1.470000,20.25
83993,-0.431392,0.786168,1.221952,-5.670000,13.580000,5.040000,20.29
84004,-0.421144,0.792024,1.288808,-0.700000,-1.540000,11.060000,20.29
84015,-0.328912,0.945256,1.244400,3.640000,-14.280000,20.719999,20.25
84026,-0.282552,0.852536,1.216096,12.810000,-19.600000,33.180000,20.25
84037,-0.118584,0.844240,1.227808,21.209999,-17.219999,17.990000,20.26
84048,-0.101016,0.905728,1.264408,18.620001,-26.320000,40.599998,20.28
84059,-0.102968,0.985272,1.314184,11.970000,-41.439999,46.130001,20.28
84070,-0.119072,1.066768,1.385432,-6.440000,-60.549999,51.520000,20.29
84081,-0.056608,0.961848,1.379576,-23.030001,-67.410004,62.790001,20.29
84093,-0.042944,0.874008,1.245864,-35.419998,-76.790001,67.410004,20.26
84104,-0.008784,0.798856,1.186328,-45.990002,-86.029999,73.639999,20.26
84115,0.019032,0.697840,1.081408,-48.790001,-94.709999,73.010002,20.24
84126,0.055632,0.573888,1.017968,-46.970001,-96.110001,72.589996,20.27
84137,0.061976,0.539240,0.995032,-39.900002,-95.129997,70.910004,20.27
84148,0.051728,0.557296,1.007232,-36.049999,-94.570000,71.120003,20.30
84160,0.052704,0.443104,1.009184,-22.889999,-98.349998,71.889999,20.30
84171,0.084912,0.467992,1.007720,-11.970000,-97.650002,73.010002,20.31
84182,0.043920,0.546560,0.942328,-12.600000,-95.410004,73.919998,20.22
84192,0.010248,0.565592,0.850096,-24.010000,-94.220001,76.089996,20.22
84203,0.011224,0.598288,0.787144,-35.770000,-93.379997,80.430000,20.30
84215,0.017568,0.581696,0.757864,-58.240002,-91.629997,80.570000,20.30
84226,0.055144,0.487512,0.742248,-71.190002,-88.690002,78.750000,20.27
84237,0.073688,0.397232,0.764208,-62.369999,-85.820000,77.209999,20.27
84248,0.077104,0.454328,0.810568,-52.779999,-85.470001,76.440002,20.27
84259,0.091744,0.347456,0.760792,-43.049999,-82.809998,71.889999,20.26
84270,0.110288,0.199592,0.744688,-17.360001,-77.559998,69.860001,20.26
84281,0.105408,0.386984,0.741760,-9.520000,-79.099998,71.540001,20.28
84292,0.142496,0.405528,0.725656,-15.260000,-75.599998,68.809998,20.30
84303,0.160064,0.369904,0.725656,-12.390000,-70.629997,66.849998,20.30
84314,0.150304,0.473848,0.727608,-10.570000,-67.339996,66.570000,20.32
84325,0.184464,0.475312,0.752008,-20.790001,-64.190002,66.779999,20.32
84336,0.202520,0.434808,0.762256,-28.629999,-61.110001,66.220001,20.30
84347,0.222040,0.427000,0.782752,-38.290001,-60.200001,67.410004,20.25
84358,0.229848,0.432856,0.790072,-46.060001,-59.150002,66.500000,20.25
84369,0.253760,0.360632,0.784216,-44.520000,-57.610001,64.120003,20.29
84380,0.272792,0.296216,0.753472,-36.259998,-56.560001,62.720001,20.29
84391,0.286944,0.346968,0.733464,-32.689999,-55.720001,61.669998,20.29
84402,0.311344,0.341112,0.730048,-33.320000,-52.570000,60.270000,20.29
84413,0.317688,0.351360,0.737368,-30.309999,-51.169998,59.080002,20.29
84425,0.330864,0.345016,0.732976,-25.059999,-49.770000,56.349998,20.23
84436,0.359168,0.300120,0.733464,-17.780001,-48.509998,36.049999,20.23
84447,0.350872,0.298168,0.712968,-13.370000,-46.830002,51.730000,20.28
84458,0.367952,0.327448,0.673440,-18.340000,-43.959999,49.630001,20.28
84469,0.366488,0.260104,0.628544,-27.860001,-42.070000,44.029999,20.26
84480,0.366976,0.156648,0.594872,-26.670000,-36.119999,38.639999,20.32
84490,0.351848,0.111264,0.546072,-20.860001,-29.680000,31.850000,20.32
84501,0.338672,0.083448,0.469944,-12.740000,-23.240000,23.730000,20.30
84522,0.316224,0.073688,0.328912,-13.090000,-7.210000,10.360000,20.28
84533,0.315736,-0.041968,0.277672,-13.020000,5.880000,-0.420000,20.29
84544,0.288408,-0.170800,0.203496,-8.610000,21.840000,-15.540000,20.29
84555,0.280600,-0.291824,0.100528,1.470000,36.750000,-31.150000,20.25
84566,0.246440,-0.275720,0.045872,7.980000,52.009998,-40.950001,20.25
84577,0.227896,-0.198128,0.007320,6.090000,69.230003,-52.639999,20.29
84588,0.218624,-0.232776,-0.045872,6.650000,86.379997,-65.940002,20.29
84599,0.176656,-0.273280,-0.091744,9.940000,108.709999,-82.320000,20.25
84610,0.105408,-0.225456,-0.081008,10.990000,131.880005,-92.400002,20.26
84621,0.024888,-0.159088,-0.044408,4.550000,154.490005,-101.500000,20.26
84632,-0.039040,-0.182024,0.096624,-0.210000,177.729996,-107.940002,20.29
84644,-0.135664,-0.225944,0.317200,-1.260000,195.369995,-115.639999,20.29
84655,-0.254248,-0.208864,0.667584,1.330000,209.089996,-121.099998,20.27
84666,-0.399672,0.064904,1.050176,3.430000,208.669998,-123.339996,20.27
84677,-0.398208,0.516792,1.537688,-13.650000,198.169998,-119.839996,20.27
84688,-0.260104,0.697352,2.032032,-37.310001,188.929993,-102.620003,20.27
84699,-0.066368,0.957456,2.428288,-45.990002,169.820007,-88.620003,20.27
84710,0.159576,1.137040,2.556144,-40.040001,153.369995,-82.250000,20.29
84721,0.354288,0.935008,1.892464,8.960000,144.059998,-69.230003,20.27
84732,0.472384,0.203008,0.610488,73.430000,143.429993,-92.330002,20.27
84743,0.005856,-0.735904,0.187392,116.550003,160.509995,-148.470001,20.29
84754,-0.650016,0.084912,0.226920,145.809998,156.240005,-139.580002,20.29
84765,-1.094584,0.879864,0.582672,91.629997,133.279999,-75.949997,20.29
84776,-0.562176,0.864736,1.114104,61.459999,110.389999,-47.669998,20.29
84787,-0.443592,1.112152,1.773392,62.090000,56.209999,-21.070000,20.29
84798,-0.373808,1.405440,2.304336,35.490002,5.040000,-4.760000,20.30
84809,-0.066856,1.260016,2.432192,15.610000,4.900000,1.120000,20.30
84820,0.067832,0.973072,2.227720,13.300000,-0.210000,-17.150000,20.27
84831,-0.058560,0.841800,1.813896,11.620000,-19.040001,-34.860001,20.27
84842,-0.038552,0.477264,1.501576,23.240000,-24.010000,-22.820000,20.23
84853,0.093208,0.447496,1.151680,36.820000,-32.060001,-21.559999,20.27
84864,0.095160,0.492880,1.068232,29.680000,-49.980000,0.910000,20.27
84875,0.194712,0.528992,1.030656,23.520000,-48.860001,7.140000,20.31
84885,0.187880,0.566568,1.050664,8.610000,-60.759998,19.879999,20.31
84897,0.197152,0.622688,1.171688,-8.960000,-75.040001,24.219999,20.27
84907,0.216672,0.528504,1.317600,-20.580000,-70.559998,23.870001,20.28
84918,0.266936,0.256688,1.186816,-16.100000,-44.590000,11.900000,20.28
84929,0.170800,0.124440,1.055056,-4.340000,-42.209999,0.910000,20.25
84940,0.091744,0.223992,0.845704,-2.660000,-37.169998,-5.110000,20.25
84952,0.029768,0.162016,0.692960,-4.270000,-41.720001,-7.140000,20.29
84963,0.018544,0.179584,0.628056,-6.370000,-30.450001,-8.330000,20.28
84974,-0.044408,0.244488,0.645136,-18.549999,-23.590000,-9.590000,20.28
84985,-0.085400,0.207888,0.590968,-34.160000,-13.720000,-6.580000,20.29
84996,-0.078568,0.092720,0.504104,-39.549999,0.700000,-12.670000,20.29
85007,-0.128832,0.225944,0.406992,-41.439999,10.850000,-19.879999,20.28
85019,-0.219600,0.303048,0.671000,-62.650002,15.680000,-14.490000,20.28
85030,-0.152256,0.536800,1.196088,-60.340000,-5.320000,-10.290000,20.28
85041,-0.333304,0.796904,1.678720,-65.309998,-30.379999,-2.030000,20.30
85054,-0.440176,-0.200080,1.301984,67.620003,6.090000,17.920000,20.30
85065,-0.348432,0.912072,0.620248,61.250000,-17.360001,-5.530000,20.28
85076,-0.168848,0.105408,0.852536,72.169998,-5.320000,-7.980000,20.27
85087,-0.443104,1.023336,0.676856,36.610001,-10.850000,20.860001,20.27
85097,-0.418704,0.846680,0.712968,12.600000,-4.060000,24.219999,20.32
85108,-0.358680,0.764696,0.890112,7.210000,-12.810000,34.650002,20.32
85119,-0.373808,0.844240,1.195112,-1.470000,-20.160000,37.099998,20.28
85131,-0.306464,0.774456,1.367864,-8.680000,-22.190001,40.040001,20.27
85142,-0.314272,0.673928,1.384456,-1.820000,-33.389999,42.770000,20.27
85153,-0.131760,0.646112,1.268312,4.060000,-39.830002,46.830002,20.30
85164,-0.202520,0.657336,1.163880,3.780000,-46.619999,51.730000,20.30
85175,-0.123464,0.570960,1.048712,3.990000,-50.189999,51.730000,20.28
85186,-0.089792,0.466528,0.994056,17.010000,-51.590000,52.150002,20.28
85197,-0.092232,0.648552,0.979416,8.120000,-55.230000,54.810001,20.29
85208,-0.088816,0.610976,1.054080,-12.250000,-58.169998,56.490002,20.29
85219,-0.088816,0.528992,1.087752,-21.980000,-61.669998,58.380001,20.29
85230,-0.033672,0.455304,1.095560,-24.920000,-66.010002,60.060001,20.27
85242,0.012688,0.371368,1.041880,-12.880000,-68.669998,60.340000,20.27
85253,0.042456,0.407480,0.957944,2.240000,-69.580002,60.619999,20.30
85264,0.070760,0.428952,0.874008,3.710000,-68.040001,60.480000,20.26
85274,0.062464,0.345992,0.857416,0.210000,-66.849998,57.119999,20.26
85285,0.084424,0.146400,0.812032,2.590000,-65.379997,54.040001,20.29
85296,0.112240,0.210328,0.850584,5.110000,-64.750000,54.880001,20.29
85307,0.110776,0.308904,0.894992,2.030000,-65.940002,54.389999,20.25
85318,0.154696,0.275232,0.882304,3.430000,-63.139999,51.240002,20.26
85329,0.156160,0.291824,0.856440,8.470000,-61.459999,50.330002,20.26
85341,0.151280,0.365512,0.801296,9.520000,-59.150002,50.400002,20.31
85351,0.166408,0.446032,0.765672,6.580000,-56.770000,51.310001,20.31
85362,0.162504,0.497760,0.811544,-3.010000,-56.209999,51.730000,20.26
85373,0.150304,0.599752,0.912560,-18.620001,-55.230000,51.099998,20.29
85384,0.191784,0.427000,0.961360,-29.820000,-54.250000,48.509998,20.29
85395,0.191784,0.216672,0.950624,-20.510000,-54.740002,45.290001,20.26
85406,0.182512,0.379664,0.948672,-19.670000,-59.290001,49.419998,20.26
85417,0.218136,0.455792,0.932568,-32.340000,-60.270000,49.000000,20.28
85428,0.370880,0.305976,0.919392,-31.709999,-62.160000,48.860001,20.28
85439,0.250344,0.321592,0.915488,-26.459999,-63.000000,46.830002,20.28
85450,0.264496,0.307928,0.878888,-20.020000,-62.650002,45.990002,20.30
85461,0.276208,0.347944,0.850584,-15.120000,-62.439999,46.270000,20.30
85472,0.302072,0.335744,0.793976,-11.760000,-60.619999,43.470001,20.31
85483,0.319152,0.279136,0.734440,-8.680000,-57.540001,42.630001,20.31
85494,0.319152,0.268400,0.657824,-6.860000,-52.360001,39.200001,20.29
85505,0.318176,0.256200,0.573400,-10.290000,-45.360001,35.000000,20.25
85516,0.323544,0.230336,0.541680,-14.980000,-40.599998,31.290001,20.25
85527,0.338672,0.123464,0.529968,-10.430000,-33.529999,26.180000,20.27
85541,0.322080,0.068808,0.500200,-5.390000,-25.059999,0.770000,20.28
85556,0.283528,0.042456,0.488976,-8.050000,-14.770000,7.700000,20.28
85567,0.271816,-0.028304,0.463600,-7.840000,-7.420000,-1.400000,20.28
85578,0.268400,-0.100528,0.406016,-2.310000,3.150000,-9.800000,20.25
85590,0.271816,-0.126392,0.314272,2.590000,14.840000,-21.490000,20.25
85601,0.276208,-0.180560,0.198616,7.980000,30.940001,-35.770000,20.31
85612,0.241072,-0.183976,0.074176,11.900000,44.869999,-48.299999,20.31
85623,0.206912,-0.195688,-0.000488,9.870000,63.419998,-58.590000,20.26
85634,0.178120,-0.198128,-0.027816,9.870000,86.660004,-70.000000,20.26
85645,0.111752,-0.111752,0.006344,6.300000,111.300003,-77.910004,20.28
85656,0.050752,-0.135176,0.099064,0.630000,131.529999,-84.349998,20.30
85667,-0.007808,-0.134200,0.191784,-2.870000,156.940002,-92.260002,20.30
85678,-0.107848,-0.168360,0.394792,-7.700000,177.869995,-97.580002,20.30
85689,-0.191784,-0.164456,0.728096,-4.900000,189.630005,-105.559998,20.30
85700,-0.245464,-0.019520,1.171200,-2.240000,191.520004,-104.089996,20.30
85711,-0.212768,0.240584,1.549400,0.420000,181.369995,-104.160004,20.30
85722,-0.066856,0.638792,1.945168,5.040000,163.660004,-91.769997,20.30
85734,0.120048,1.094096,2.156472,14.840000,150.080002,-83.440002,20.32
85745,0.223016,1.470344,2.282864,10.080000,126.279999,-63.000000,20.32
85757,0.418704,1.137040,1.869528,28.420000,97.440002,-57.470001,20.23
85770,0.504592,0.294752,0.756888,49.630001,98.910004,-97.089996,20.29
85781,0.107360,-1.269288,0.429928,98.699997,122.290001,-174.300003,20.29
85793,-0.918904,0.486048,0.492392,148.610001,117.529999,-133.350006,20.30
85805,-1.124840,1.066280,0.616344,82.669998,111.440002,-38.360001,20.33
85817,-0.522160,0.653432,0.868152,93.660004,64.190002,-24.570000,20.33
85829,-0.370880,1.234152,1.113128,98.839996,19.250000,-7.490000,20.29
85841,-0.187880,1.601128,1.524024,22.400000,-25.760000,6.090000,20.33
85854,0.091744,1.253672,1.955416,-44.310001,-40.810001,-8.890000,20.33
85867,0.243512,0.390888,2.116944,-27.510000,-35.840000,1.750000,20.31
85878,0.195688,0.434320,1.650416,31.430000,-35.980000,-20.299999,20.32
85890,0.001952,0.753472,1.256112,43.049999,-25.830000,-13.720000,20.32
85902,0.060024,0.662216,0.890112,27.440001,-19.950001,-6.510000,20.28
85914,0.062464,0.597800,0.727608,0.840000,-21.139999,7.420000,20.28
85924,0.135664,0.705160,0.715408,0.490000,-10.430000,8.820000,20.26
85935,0.024888,0.654408,0.798368,-29.120001,-31.010000,13.510000,20.23
85946,-0.031232,0.487512,1.052616,-39.759998,-49.700001,21.070000,20.23
85958,0.079544,0.283528,1.205360,-23.660000,-46.410000,21.770000,20.31
85969,0.025864,0.230336,1.208288,-1.820000,-19.389999,20.790001,20.31
85981,0.054168,0.210328,0.921344,28.209999,-7.210000,-4.270000,20.27
85992,-0.185928,0.238632,0.648064,45.849998,-5.740000,-10.080000,20.28
86003,-0.174704,0.001952,0.344528,65.379997,15.750000,-17.219999,20.28
86014,-0.223016,0.121024,0.219600,73.849998,41.230000,-10.220000,20.31
86025,-0.503128,1.204384,-0.153720,15.190000,48.369999,8.260000,20.31
86036,-0.326960,0.461160,0.818376,-109.760002,13.860000,6.860000,20.30
86047,-0.060512,-0.409920,0.981856,-33.389999,13.650000,-6.370000,20.28
86059,-0.222528,0.218136,0.718336,32.619999,18.059999,-17.920000,20.28
86070,-0.196664,-0.082960,0.662704,129.850006,20.860001,-17.360001,20.32
86081,-0.582184,1.805112,0.374296,135.660004,34.930000,27.160000,20.32
86093,-0.157136,1.309304,0.950624,-28.840000,0.700000,2.940000,20.29
86105,-0.354776,1.010648,1.161440,-81.339996,23.730000,13.440000,20.29
86118,-0.479704,0.617320,1.384944,-95.690002,-13.160000,20.230000,20.29
86132,-0.269376,0.322080,1.382504,-51.660000,-11.410000,15.540000,20.30
86146,-0.331352,0.358680,1.401048,5.530000,-32.689999,27.230000,20.31
86158,-0.214232,0.447496,1.317600,46.270000,-40.669998,38.990002,20.31
86169,-0.141032,0.805200,1.229272,63.840000,-51.380001,47.880001,20.31
86182,-0.045872,0.973072,1.182424,33.880001,-53.480000,48.650002,20.29
86193,-0.066856,0.890112,1.144848,9.310000,-59.150002,54.180000,20.29
86204,-0.052704,0.796904,1.152656,-14.910000,-61.810001,59.430000,20.29
86215,-0.034160,0.740784,1.155096,-39.340000,-69.300003,60.130001,20.29
86226,-0.013664,0.529480,1.121424,-53.410000,-70.419998,61.529999,20.29
86237,-0.000488,0.423584,1.123376,-54.880001,-76.089996,61.880001,20.24
86249,0.001952,0.447008,1.129720,-51.939999,-79.870003,61.040001,20.24
86260,0.009760,0.401624,1.138504,-42.419998,-83.790001,61.250000,20.29
86271,0.017080,0.393328,1.092144,-24.430000,-85.470001,59.779999,20.27
86282,0.022936,0.414312,0.987224,-9.730000,-85.820000,60.900002,20.27
86293,0.023424,0.502152,0.939888,-6.370000,-87.849998,63.560001,20.30
86304,0.047336,0.495320,0.889136,-13.370000,-87.709999,64.680000,20.30
86315,0.064904,0.409920,0.892552,-16.520000,-87.639999,65.239998,20.30
86326,0.064904,0.494344,0.927688,-26.600000,-90.160004,68.180000,20.30
86337,0.087352,0.470432,0.939400,-36.049999,-90.230003,66.919998,20.30
86348,0.111752,0.388936,0.932080,-34.230000,-90.720001,65.660004,20.32
86360,0.128832,0.344528,0.884256,-27.650000,-91.209999,64.889999,20.32
86370,0.160552,0.299632,0.822280,-23.170000,-90.019997,62.650002,20.27
86381,0.166408,0.483608,0.798368,-21.840000,-89.180000,62.790001,20.30
86392,0.181536,0.350384,0.729560,-20.090000,-85.610001,60.970001,20.30
86403,0.216672,0.339648,0.711504,-18.480000,-82.389999,59.919998,20.32
86414,0.212280,0.432856,0.708088,-27.160000,-81.059998,61.459999,20.32
86425,0.252296,0.392840,0.733952,-36.959999,-79.870003,60.480000,20.29
86436,0.275720,0.335744,0.739808,-39.480000,-76.089996,57.470001,20.29
86447,0.281088,0.270840,0.708576,-37.869999,-72.800003,54.040001,20.29
86459,0.288896,0.252296,0.684664,-32.759998,-71.400002,50.889999,20.32
86470,0.297192,0.255224,0.686616,-27.020000,-68.949997,48.020000,20.32
86481,0.310368,0.284016,0.678808,-23.309999,-66.290001,46.619999,20.33
86492,0.340136,0.269376,0.648552,-21.629999,-62.230000,42.770000,20.33
86503,0.354288,0.233264,0.612440,-18.410000,-57.680000,37.799999,20.27
86514,0.331840,0.236192,0.569496,-15.050000,-51.730000,34.020000,20.30
86525,0.330376,0.218624,0.544120,-14.980000,-46.130001,29.469999,20.30
86536,0.328424,0.182512,0.523136,-14.630000,-40.810001,24.150000,20.29
86547,0.332328,0.143960,0.494344,-11.760000,-32.900002,19.320000,20.29
86558,0.331840,0.158600,0.474824,-11.200000,-25.969999,14.560000,20.29
86574,0.334768,0.046360,0.397232,-5.320000,-12.740000,5.110000,20.30
86585,0.325984,-0.056608,0.332816,6.650000,-2.240000,-3.360000,20.30
86596,0.315736,-0.083936,0.242048,14.280000,10.710000,-14.140000,20.27
86607,0.303048,-0.102480,0.171776,17.920000,21.700001,-24.010000,20.30
86618,0.288408,-0.087352,0.118584,16.240000,37.939999,-32.759998,20.30
86629,0.264496,-0.120048,0.051728,12.180000,55.650002,-44.590000,20.33
86640,0.222040,-0.129320,0.009272,4.690000,69.019997,-57.540001,20.33
86651,0.199104,-0.222040,-0.061976,-3.360000,90.230003,-70.419998,20.33
86663,0.171288,-0.317688,-0.087840,-5.460000,111.370003,-84.769997,20.32
86674,0.102480,-0.293288,-0.048800,-1.470000,134.470001,-95.410004,20.32
86685,-0.003904,-0.193248,0.053192,3.500000,157.009995,-102.339996,20.30
86696,-0.081496,-0.100040,0.214720,6.300000,172.830002,-107.519997,20.30
86708,-0.174704,-0.037088,0.437736,8.400000,194.320007,-113.889999,20.32
86719,-0.276208,0.027328,0.667584,1.750000,207.479996,-114.800003,20.30
86730,-0.351848,0.187880,1.143384,-2.450000,210.070007,-123.129997,20.30
86741,-0.359168,0.502152,1.597224,-19.110001,203.979996,-117.320000,20.28
86752,-0.237656,0.624152,2.035448,-34.439999,186.339996,-111.720001,20.28
86763,-0.023912,1.020408,2.376072,-27.860001,164.570007,-87.430000,20.31
86774,0.224480,1.513776,2.282376,-36.259998,155.259995,-67.410004,20.29
86785,0.348920,1.426912,1.677256,-26.530001,148.259995,-62.930000,20.29
86796,0.426024,0.126880,0.630008,21.490000,156.729996,-92.610001,20.31
86806,-0.161040,-0.543632,0.175680,68.529999,164.009995,-140.839996,20.31
86817,-0.803248,0.022936,0.275720,107.519997,157.710007,-123.550003,20.32
86828,-1.110200,0.605608,0.699304,69.019997,144.270004,-74.620003,20.32
86839,-0.603656,0.596336,1.293200,58.029999,101.360001,-37.799999,20.32
86850,-0.439688,1.365424,2.054968,55.930000,49.070000,-2.450000,20.29
86861,-0.306952,1.829024,2.437560,-25.200001,-3.290000,14.630000,20.29
86872,-0.164944,1.059936,2.507344,-60.619999,-5.740000,-20.299999,20.34
86884,-0.179584,0.322080,2.268224,-4.690000,-14.700000,-26.740000,20.34
86895,-0.135664,0.295240,1.852936,41.509998,-28.980000,-21.209999,20.29
86906,-0.040992,0.521672,1.417640,64.050003,-20.650000,-21.070000,20.23
86917,-0.123952,0.558760,1.108248,55.650002,-48.720001,-6.370000,20.23
86928,0.027328,0.516792,1.027728,53.759998,-44.730000,13.090000,20.30
86939,0.116144,0.676856,0.951112,29.400000,-39.200001,14.420000,20.30
86950,0.054168,0.597312,1.018944,-11.830000,-58.450001,11.340000,20.30
86961,0.099064,0.360144,1.116056,-26.040001,-64.680000,11.130000,20.26
86972,0.007808,0.265960,1.245376,-23.590000,-64.050003,18.480000,20.26
86983,0.100528,0.259616,1.251232,-7.840000,-38.919998,5.810000,20.29
86994,0.040992,0.287432,1.079944,6.930000,-38.009998,7.630000,20.29
87005,0.018544,0.214232,0.875960,33.950001,-28.700001,12.250000,20.32
87016,0.002440,0.393328,0.658312,30.799999,-27.440001,3.920000,20.28
87027,0.031720,0.184464,0.498736,20.440001,-7.350000,-2.520000,20.28
87038,-0.097112,0.244000,0.459696,4.480000,-0.770000,-4.060000,20.33
87049,-0.373320,0.565592,0.546560,-20.719999,2.940000,4.830000,20.33
87060,-0.187392,0.381616,0.856928,-91.139999,-8.050000,0.350000,20.31
87071,-0.068808,0.693448,0.934032,-123.830002,-8.750000,6.230000,20.29
87083,-0.188368,-0.254736,1.177544,-81.480003,-3.640000,-21.139999,20.29
87094,-0.315736,-0.198616,1.699704,-4.200000,-22.260000,-38.919998,20.29
87105,-0.323544,-0.343552,1.262944,209.020004,5.600000,-6.020000,20.29
87117,-0.490440,1.534272,0.596824,127.050003,-12.110000,8.400000,20.32
87127,-0.265472,0.704184,0.654408,18.690001,-0.560000,-17.360001,20.27
87138,-0.583160,0.963800,0.711504,-35.349998,-11.130000,21.559999,20.27
87149,-0.551928,1.070672,1.046760,-86.029999,-17.570000,24.709999,20.36
87160,-0.502152,0.621712,1.428864,-94.779999,-15.750000,39.970001,20.36
87172,-0.571936,0.418216,1.608936,-32.689999,-31.010000,36.680000,20.29
87183,-0.462136,0.587064,1.653832,15.960000,-43.330002,46.200001,20.31
87194,-0.405528,0.625128,1.553304,44.730000,-66.080002,56.840000,20.31
87205,-0.251808,0.811056,1.444968,53.549999,-74.059998,68.250000,20.30
87216,-0.223504,0.897920,1.368840,35.560001,-89.599998,73.849998,20.30
87227,-0.135176,0.878400,1.323944,9.170000,-96.320000,77.559998,20.30
87238,-0.099064,0.788120,1.323944,-11.130000,-103.739998,75.599998,20.30
87249,-0.089792,0.597312,1.257088,-26.250000,-108.080002,75.180000,20.30
87260,-0.075640,0.496296,1.160952,-32.410000,-115.150002,76.160004,20.30
87271,-0.014152,0.430904,1.123864,-33.810001,-122.989998,79.800003,20.30
87283,0.022936,0.361608,1.103368,-27.299999,-126.000000,78.889999,20.35
87294,0.042456,0.281576,1.033584,-17.570000,-128.940002,79.169998,20.35
87305,0.109800,0.264008,0.951600,-8.120000,-129.149994,78.190002,20.31
87316,0.143960,0.235216,0.846680,-1.470000,-126.070000,77.629997,20.24
87327,0.153232,0.288896,0.799832,-1.470000,-123.550003,78.540001,20.24
87338,0.164944,0.220576,0.711992,-1.750000,-117.040001,74.760002,20.32
87350,0.183000,0.194712,0.635376,-1.120000,-111.300003,72.449997,20.32
87361,0.165432,0.213744,0.568520,-5.670000,-104.650002,70.769997,20.32
87372,0.181536,0.227896,0.521184,-11.970000,-99.400002,70.629997,20.30
87383,0.229360,0.230336,0.515328,-20.440001,-92.820000,68.529999,20.30
87394,0.237168,0.286944,0.575352,-31.500000,-85.540001,65.660004,20.33
87405,0.237656,0.193736,0.584136,-33.810001,-79.870003,58.660000,20.33
87416,0.273280,0.137128,0.621712,-27.299999,-73.010002,53.689999,20.31
87427,0.253760,0.100040,0.589504,-17.219999,-65.940002,46.549999,20.30
87438,0.278160,0.051240,0.528504,-5.880000,-59.290001,40.669998,20.30
87449,0.303048,0.049776,0.451888,4.340000,-53.200001,34.509998,20.30
87460,0.318664,0.065880,0.399672,10.570000,-43.820000,28.840000,20.30
87471,0.326960,0.120536,0.347456,8.820000,-33.950001,23.170000,20.29
87482,0.337696,0.120536,0.338184,3.710000,-24.639999,17.360001,20.26
87493,0.336720,0.061976,0.334280,2.310000,-12.320000,8.400000,20.26
87504,0.327936,-0.002440,0.307440,2.170000,-0.980000,-0.420000,20.31
87515,0.329400,-0.085400,0.264496,3.500000,9.590000,-11.970000,20.31
87526,0.308416,-0.107360,0.209352,7.490000,23.870001,-21.000000,20.30
87537,0.297192,-0.124928,0.133712,11.690000,40.599998,-33.669998,20.30
87548,0.265472,-0.137616,0.049288,14.490000,55.160000,-44.169998,20.30
87559,0.222528,-0.075640,0.007320,12.110000,67.900002,-55.230000,20.27
87570,0.195200,-0.128832,-0.037088,7.910000,86.660004,-64.750000,20.27
87581,0.176168,-0.210816,-0.059536,10.360000,105.349998,-77.839996,20.32
87592,0.151280,-0.223992,-0.090280,14.630000,128.240005,-89.809998,20.32
87613,0.014152,-0.064904,-0.043432,17.219999,165.619995,-102.760002,20.31
87624,-0.045872,-0.017568,0.068808,14.000000,190.889999,-109.900002,20.31
87635,-0.161040,-0.008296,0.247416,9.520000,216.300003,-114.519997,20.29
87646,-0.286944,-0.003416,0.520696,6.860000,234.080002,-117.040001,20.29
87658,-0.390400,0.055144,0.952088,2.870000,240.520004,-112.910004,20.29
87669,-0.443104,0.248880,1.471808,-12.390000,232.119995,-115.989998,20.27
87680,-0.453840,0.727120,1.764608,-33.389999,218.119995,-106.190002,20.27
87691,-0.280600,1.206336,2.283352,-56.910000,194.320007,-78.750000,20.29
87702,-0.142984,1.617720,2.612264,-85.959999,187.039993,-55.369999,20.29
87713,0.073200,1.305888,1.852448,-49.000000,196.910004,-52.709999,20.30
87724,0.075152,-0.297192,0.928664,37.799999,195.300003,-91.629997,20.30
87735,-0.553880,-0.915976,0.512888,102.410004,185.639999,-139.580002,20.31
87746,-1.260504,0.635864,0.759816,135.589996,150.710007,-69.230003,20.29
87757,-1.255136,1.256112,1.276120,74.199997,115.639999,-16.240000,20.29
87769,-0.627568,1.242448,1.910032,32.200001,68.809998,0.630000,20.30
87779,-0.388936,1.337120,2.214056,6.230000,34.230000,-3.990000,20.30
87790,-0.473848,1.142896,2.298968,-35.700001,-20.020000,-3.220000,20.29
87802,-0.240096,0.572424,2.295064,-39.970001,-0.350000,3.920000,20.29
87813,-0.062464,0.249856,1.900272,3.570000,-33.950001,-11.200000,20.29
87824,-0.055632,0.236680,1.612840,45.500000,-40.040001,-14.910000,20.33
87835,-0.125904,0.393816,1.249768,59.919998,-50.119999,-10.710000,20.33
87846,-0.049288,0.520696,1.092632,52.500000,-52.220001,-4.410000,20.29
87858,-0.054168,0.540704,1.033096,30.660000,-54.040001,-8.470000,20.25
87869,-0.123952,0.464088,1.098000,7.560000,-68.250000,-3.500000,20.25
87880,-0.108336,0.338184,1.072624,-3.850000,-56.980000,2.380000,20.32
87893,-0.152256,0.296216,1.078480,-12.320000,-51.099998,0.490000,20.32
87905,-0.297680,0.230336,1.039928,-3.710000,-53.270000,-4.830000,20.32
87919,-0.238144,0.300120,1.017480,15.120000,-43.750000,-5.880000,20.36
87933,-0.245464,0.451888,0.863272,10.010000,-42.279999,-19.740000,20.32
87946,-0.235216,0.048312,0.711992,20.299999,-28.770000,-26.459999,20.32
87958,-0.356240,0.012200,0.305000,36.610001,-12.180000,-38.009998,20.34
87971,-0.174704,-0.372832,0.791048,17.990000,-22.610001,-40.459999,20.35
87984,-0.274256,0.396744,1.230248,13.090000,-14.070000,-39.130001,20.35
87996,-0.342088,0.198128,1.229272,44.099998,-35.770000,-38.639999,20.32
88009,-0.375760,0.298168,0.662216,163.800003,-6.300000,-3.920000,20.31
88021,-0.320616,1.320528,0.247416,93.379997,16.590000,1.960000,20.31
88033,-0.256688,0.599264,0.646600,17.500000,10.920000,-5.040000,20.31
88045,-0.508008,0.918416,0.847656,-10.990000,14.000000,17.709999,20.27
88056,-0.483608,0.738344,1.190232,-18.270000,8.680000,21.350000,20.27
88068,-0.536800,0.959896,1.451800,-10.290000,-22.959999,35.980000,20.35
88081,-0.496296,0.974048,1.603568,-9.730000,-49.000000,44.169998,20.31
88093,-0.265960,0.776896,1.509384,11.060000,-28.280001,56.349998,20.31
88105,-0.285968,0.828136,1.344928,27.510000,-51.799999,59.639999,20.30
88117,-0.224480,0.857416,1.237568,31.080000,-65.660004,71.820000,20.31
88129,-0.141032,0.939400,1.271728,13.720000,-79.029999,80.010002,20.31
88142,-0.121512,0.815448,1.300520,-10.430000,-87.709999,86.309998,20.29
88154,-0.086376,0.706624,1.320040,-26.740000,-94.639999,88.129997,20.30
88166,-0.084424,0.634888,1.336144,-36.889999,-105.419998,86.940002,20.30
88177,-0.055632,0.609024,1.317112,-37.520000,-111.230003,86.169998,20.32
88188,-0.080520,0.499224,1.232688,-23.100000,-115.080002,84.559998,20.32
88199,-0.054168,0.325008,1.022848,-1.470000,-118.650002,87.849998,20.32
88211,-0.038552,0.569008,0.937448,10.290000,-127.680000,99.260002,20.32
88222,-0.025864,0.826672,0.955992,-17.780001,-131.250000,103.389999,20.32
88233,0.029768,0.576328,1.030168,-36.189999,-130.550003,96.949997,20.29
88244,0.036600,0.218624,1.011624,-28.139999,-129.500000,91.000000,20.29
88255,0.040016,0.351360,0.990640,-24.010000,-134.259995,92.050003,20.31
88266,0.051240,0.359656,0.929640,-32.689999,-136.080002,92.400002,20.28
88277,0.068808,0.400648,0.837896,-43.540001,-137.270004,94.709999,20.28
88288,0.112728,0.397720,0.738832,-48.790001,-136.149994,95.339996,20.27
88299,0.155184,0.353800,0.656848,-56.209999,-133.419998,93.449997,20.27
88310,0.169336,0.294264,0.604144,-53.480000,-127.120003,87.360001,20.33
88321,0.172752,0.151280,0.599264,-38.220001,-122.779999,84.699997,20.30
88332,0.190808,0.132248,0.504592,-25.059999,-115.570000,81.480003,20.30
88344,0.235704,0.119072,0.393816,-16.240000,-106.750000,76.720001,20.35
88356,0.266448,0.154696,0.342088,-12.110000,-94.989998,70.209999,20.35
88368,0.281088,0.104432,0.309392,-9.240000,-84.070000,63.000000,20.29
88381,0.303048,0.065880,0.296704,16.520000,-70.349998,54.740002,20.32
88395,0.298656,0.099064,0.271816,3.710000,-57.189999,45.360001,20.32
88406,0.315248,0.001952,0.317200,-1.680000,-47.810001,35.349998,20.29
88417,0.303048,0.066368,0.337696,-4.830000,-34.650002,26.670000,20.28
88428,0.286456,0.025864,0.316712,-5.390000,-22.400000,16.870001,20.28
88440,0.303536,-0.044408,0.262544,-3.640000,-9.170000,5.250000,20.33
88451,0.313296,-0.133224,0.177632,2.310000,6.580000,-7.630000,20.33
88463,0.282552,-0.155672,0.116144,7.350000,21.700001,-21.629999,20.29
88474,0.264496,-0.213744,0.049776,13.090000,34.650002,-37.169998,20.29
88485,0.211792,-0.185928,0.019520,14.490000,50.119999,-52.009998,20.29
88496,0.184952,-0.197152,0.010248,15.750000,67.410004,-63.560001,20.34
88508,0.140544,-0.177144,-0.033672,22.330000,86.589996,-78.959999,20.33
88520,0.104432,-0.136152,-0.105896,24.709999,107.589996,-94.989998,20.33
88531,0.068808,-0.154208,-0.146400,21.209999,131.110001,-106.470001,20.29
88542,0.031720,-0.149816,-0.130784,16.940001,158.830002,-117.180000,20.29
88553,-0.037576,-0.167384,-0.007320,13.930000,178.779999,-124.459999,20.32
88564,-0.143960,-0.134200,0.202520,10.710000,201.600006,-129.429993,20.34
88575,-0.252784,-0.045384,0.529968,8.540000,217.839996,-136.289993,20.34
88586,-0.360144,0.283040,1.095560,3.780000,217.630005,-131.389999,20.29
88597,-0.351360,0.520696,1.721664,-10.570000,207.690002,-127.750000,20.29
88609,-0.171288,1.000888,2.133536,-31.639999,193.410004,-109.620003,20.27
88626,0.129320,1.352248,2.477576,-57.959999,170.729996,-95.760002,20.32
88638,0.356728,0.590480,1.799256,-3.850000,169.539993,-93.870003,20.32
88649,0.344040,-0.122488,0.248392,86.940002,174.860001,-126.699997,20.31
88660,-0.278160,-0.345504,-0.141520,101.500000,200.410004,-161.770004,20.27
88671,-1.014064,0.446032,0.055144,91.209999,181.720001,-124.320000,20.27
88682,-1.006256,1.254160,0.815448,35.139999,141.330002,-44.310001,20.31
88693,-0.560224,1.413736,1.939312,-41.439999,109.199997,-20.510000,20.31
88704,-0.360632,1.131184,2.713768,-55.930000,40.110001,-14.560000,20.32
88715,-0.379176,0.951112,2.831864,-23.940001,-21.840000,-16.590000,20.30
88726,-0.004880,0.743224,2.741096,6.300000,28.209999,-26.950001,20.30
88737,-0.040504,0.757376,1.861232,37.939999,12.460000,-44.520000,20.34
88749,-0.275720,0.747616,1.474248,44.380001,-22.540001,-14.420000,20.34
88760,0.074664,0.639280,1.231224,46.619999,4.340000,-14.840000,20.35
88771,-0.146888,0.582184,1.024800,41.090000,-37.240002,2.380000,20.30
88782,-0.029280,0.750544,1.123376,28.840000,-34.509998,12.040000,20.30
88793,-0.046848,0.643184,1.185840,-0.280000,-48.580002,15.400000,20.34
88804,-0.111752,0.650992,1.246840,-18.969999,-72.730003,20.299999,20.34
88816,-0.034648,0.498248,1.199016,-26.459999,-69.300003,27.370001,20.32
88827,0.145912,0.295728,1.135088,-17.780001,-19.459999,27.370001,20.27
88838,-0.065392,0.256200,1.039440,-3.990000,-44.730000,14.000000,20.27
88850,-0.017080,0.345504,0.975024,15.610000,-24.850000,17.850000,20.32
88860,-0.028304,0.419192,0.817888,13.720000,-32.130001,12.880000,20.32
88872,-0.021472,0.270352,0.753472,13.370000,-24.780001,2.170000,20.31
88883,-0.095648,0.071736,0.574864,19.250000,-18.129999,-4.760000,20.30
88894,-0.193248,-0.222040,-0.005856,-10.080000,-14.210000,-21.490000,20.30
88905,-0.224968,0.591944,1.551352,64.959999,-39.340000,25.760000,20.32
88916,-0.290360,0.272304,1.643096,77.839996,-39.619999,-14.140000,20.32
88928,-0.234240,0.664656,0.716384,131.320007,-30.730000,35.000000,20.30
88939,-0.231800,1.203896,0.394792,50.959999,-26.040001,34.509998,20.33
88950,-0.002440,0.155672,0.238632,11.690000,7.070000,6.440000,20.33
88961,-0.204960,0.250832,0.595360,21.700001,18.620001,7.420000,20.32
88972,-0.439200,0.938912,0.755424,-18.129999,29.260000,4.830000,20.32
88983,-0.498248,0.616832,0.986248,-22.120001,13.020000,16.940001,20.33
88994,-0.495808,0.686616,1.268800,5.040000,-4.620000,35.490002,20.30
89005,-0.427000,0.910120,1.392752,11.690000,-26.879999,42.139999,20.30
89016,-0.356728,0.831552,1.395192,11.550000,-51.939999,54.320000,20.29
89027,-0.289872,0.797392,1.333704,34.650002,-62.369999,60.130001,20.29
89038,-0.014640,0.830088,1.202432,14.000000,-34.020000,54.459999,20.28
89050,-0.152744,0.832528,1.192672,2.870000,-53.619999,57.400002,20.36
89061,-0.091744,0.773480,1.125328,-10.430000,-52.290001,56.349998,20.36
89072,-0.089304,0.679296,1.152168,-24.290001,-70.139999,60.619999,20.34
89083,-0.058072,0.617320,1.161928,-31.010000,-76.650002,64.540001,20.34
89095,-0.072712,0.653432,1.144360,-38.290001,-80.430000,66.779999,20.30
89106,-0.043920,0.614392,1.134600,-42.419998,-83.230003,69.019997,20.30
89117,-0.007320,0.520208,1.134112,-38.639999,-86.449997,68.599998,20.30
89128,0.019032,0.491416,1.089704,-31.709999,-89.110001,70.279999,20.35
89140,0.044896,0.447984,0.999912,-22.680000,-91.699997,72.519997,20.35
89151,0.091256,0.407480,0.946232,-17.430000,-91.139999,71.610001,20.32
89162,0.059048,0.503616,0.945256,-16.450001,-94.150002,75.809998,20.31
89175,0.072712,0.581696,0.952576,-38.570000,-98.139999,77.139999,20.31
89186,0.106384,0.448960,0.921832,-52.080002,-96.879997,75.320000,20.34
89197,0.104432,0.407480,0.906704,-51.520000,-100.239998,76.790001,20.34
89208,0.145424,0.412848,0.874008,-49.910000,-102.199997,77.489998,20.31
89219,0.189344,0.338184,0.846680,-43.820000,-102.550003,75.879997,20.27
89230,0.196176,0.239120,0.746640,-34.369999,-100.239998,72.099998,20.27
89241,0.207400,0.332328,0.725168,-27.090000,-99.820000,72.940002,20.30
89252,0.209352,0.374296,0.710040,-29.120001,-98.209999,72.239998,20.30
89263,0.250344,0.293776,0.732000,-24.990000,-96.809998,68.320000,20.29
89274,0.263032,0.282552,0.666120,-21.070000,-92.190002,65.379997,20.29
89285,0.279624,0.275232,0.591944,-20.160000,-88.900002,62.230000,20.29
89296,0.318664,0.222040,0.531920,-20.580000,-83.510002,58.590000,20.31
89307,0.328912,0.205936,0.473360,-20.230000,-77.559998,53.549999,20.31
89318,0.365024,0.091744,0.423096,-14.700000,-71.820000,45.639999,20.36
89329,0.365024,0.065880,0.429928,-9.870000,-67.059998,40.810001,20.30
89340,0.366488,0.116632,0.438712,-14.000000,-60.270000,34.790001,20.30
89351,0.384056,0.062464,0.422608,-14.490000,-52.500000,27.580000,20.28
89362,0.368928,0.057096,0.364048,-11.410000,-42.000000,21.209999,20.28
89373,0.372344,-0.043432,0.284992,-7.420000,-28.700001,11.340000,20.33
89384,0.386496,-0.166408,0.206912,6.230000,-18.480000,1.960000,20.33
89395,0.381128,-0.146400,0.137616,15.750000,-3.360000,-5.320000,20.32
89406,0.374296,-0.212280,0.071736,18.129999,14.980000,-18.969999,20.30
89417,0.328424,-0.204960,0.043920,14.280000,32.759998,-32.549999,20.30
89428,0.263520,-0.259128,0.025376,12.880000,49.000000,-47.880001,20.29
89439,0.211304,-0.212280,0.018544,10.080000,69.440002,-57.680000,20.29
89450,0.178608,-0.148352,0.005856,3.220000,92.959999,-70.839996,20.29
89461,0.148840,-0.139568,-0.013176,-2.520000,117.529999,-82.949997,20.25
89472,0.101504,-0.157136,-0.005856,-2.310000,138.669998,-94.709999,20.25
89483,0.019032,-0.096136,0.042944,-1.960000,164.850006,-100.800003,20.30
89494,-0.059536,-0.051728,0.134688,-4.480000,189.839996,-105.559998,20.30
89505,-0.154208,-0.014152,0.430416,-6.300000,209.300003,-108.989998,20.29
89516,-0.271816,0.290360,0.934032,-7.350000,214.759995,-107.379997,20.30
89527,-0.303048,0.521184,1.430328,-16.660000,210.279999,-102.900002,20.30
89538,-0.171776,0.712968,1.790472,-35.630001,198.520004,-88.970001,20.32
89549,-0.034160,0.900360,2.191608,-52.080002,188.369995,-77.839996,20.32
89560,0.069296,1.078480,2.422920,-51.310001,165.619995,-66.570000,20.32
89571,0.210328,1.348832,2.191120,-36.750000,140.770004,-46.689999,20.30
89582,0.509960,0.913536,1.452288,12.390000,117.250000,-49.070000,20.30
89593,0.570960,-0.241560,0.891576,31.639999,131.740005,-103.180000,20.26
89604,-0.106384,-0.134688,0.874496,97.650002,117.459999,-108.500000,20.26
89615,-0.710040,0.655872,0.894016,82.110001,119.980003,-65.730003,20.31
89626,-0.736880,0.804224,1.124840,43.680000,100.870003,-48.930000,20.31
89637,-0.782264,0.505080,1.131184,68.529999,71.750000,-36.750000,20.26
89649,-0.679296,0.621712,1.154120,96.809998,39.270000,-15.540000,20.27
89661,-0.383568,0.911584,1.231224,86.660004,7.840000,-1.190000,20.27
89672,-0.027328,1.044808,1.388848,52.570000,-0.840000,2.730000,20.34
89683,-0.025376,1.098488,1.453752,1.050000,-13.230000,6.300000,20.34
89694,0.122488,0.808128,1.604544,-32.759998,-30.240000,14.700000,20.30
89705,0.204472,0.382104,1.674328,-34.020000,-41.860001,10.780000,20.35
89716,0.223016,0.139080,1.597224,5.180000,-41.369999,-6.790000,20.35
89727,0.043432,0.314272,1.360544,20.580000,-45.849998,-10.010000,20.35
89738,0.031720,0.349896,1.096048,19.530001,-18.690001,-16.170000,20.35
89750,0.014152,0.311344,0.833504,13.440000,-32.130001,-20.930000,20.34
89760,-0.045384,0.338184,0.738832,1.540000,-26.459999,-13.440000,20.31
89772,-0.029280,0.347456,0.743224,-8.190000,-20.440001,-7.210000,20.31
89783,-0.023424,0.364536,0.820328,-14.630000,-18.059999,1.890000,20.32
89794,0.002928,0.330864,0.897432,-16.030001,-15.750000,6.230000,20.32
89805,0.015616,0.355264,0.949648,-12.950000,-16.240000,8.680000,20.34
89816,-0.011224,0.386008,0.984296,-8.610000,-11.410000,9.520000,20.33
89827,-0.027328,0.326960,0.934520,-4.200000,-4.690000,0.910000,20.33
89838,-0.083936,0.303048,0.817888,4.130000,-0.630000,0.980000,20.32
89849,-0.279624,0.485072,0.670512,-15.820000,9.730000,-4.060000,20.32
89860,-0.048312,0.104432,1.114104,-57.259998,-7.490000,-19.740000,20.29
89871,-0.001464,0.570960,1.186816,-46.410000,0.350000,4.900000,20.26
89882,-0.288896,0.267912,2.891888,42.490002,-48.860001,-26.389999,20.26
89893,-0.594384,0.691008,1.383480,144.550003,0.490000,3.850000,20.35
89904,-0.171776,0.680760,0.680760,84.209999,-13.510000,-1.050000,20.35
89916,-0.125904,0.661728,0.648552,62.160000,-5.110000,5.180000,20.32
89928,-0.247416,0.973072,0.685640,-22.190001,-12.950000,22.049999,20.30
89940,-0.277184,0.540704,0.957944,-44.450001,-13.090000,25.549999,20.30
89952,-0.325984,0.642208,1.147776,-40.740002,-30.100000,37.799999,20.32
89963,-0.212768,0.666608,1.346880,-31.570000,-31.360001,34.860001,20.32
89974,-0.199592,0.557296,1.348344,-13.510000,-40.880001,32.619999,20.32
89985,-0.154696,0.532408,1.264896,3.150000,-46.970001,33.740002,20.36
89996,-0.083448,0.470920,1.175104,16.660000,-55.020000,36.750000,20.36
90007,-0.059048,0.608048,1.176568,21.139999,-63.000000,41.160000,20.31
90018,-0.059048,0.668072,1.139968,15.190000,-66.709999,42.700001,20.31
90029,-0.020008,0.588040,1.060912,8.820000,-68.879997,43.540001,20.32
90040,-0.016104,0.631472,1.054568,-0.630000,-74.059998,48.369999,20.30
90051,-0.024400,0.649528,1.048224,-12.600000,-75.599998,50.610001,20.30
90062,0.002928,0.481656,0.970632,-17.780001,-77.279999,53.200001,20.34
90074,0.040016,0.528992,0.962824,-20.160000,-78.540001,56.770000,20.34
90086,0.031232,0.457744,0.965752,-22.120001,-78.610001,57.259998,20.35
90097,0.064904,0.367952,0.954528,-15.330000,-80.360001,57.540001,20.25
90108,0.098576,0.341112,0.960384,-9.940000,-80.639999,57.610001,20.25
90120,0.097600,0.343064,0.960384,-6.020000,-80.639999,56.070000,20.31
90132,0.103944,0.350872,0.930616,-1.120000,-80.779999,55.020000,20.29
90143,0.101992,0.410896,0.908168,-2.660000,-82.320000,55.650002,20.29
90154,0.124928,0.435784,0.907680,-8.820000,-83.089996,56.279999,20.33
90166,0.135664,0.450424,0.893528,-11.060000,-83.230003,55.930000,20.33
90178,0.134688,0.412848,0.855952,-8.610000,-84.279999,56.910000,20.31
90189,0.179584,0.375760,0.793000,-9.660000,-82.669998,56.349998,20.27
90200,0.183000,0.385032,0.784216,-13.090000,-83.510002,57.189999,20.27
90212,0.208376,0.399672,0.789584,-20.510000,-82.669998,56.139999,20.34
90224,0.236192,0.385032,0.795440,-25.969999,-80.919998,52.919998,20.34
90235,0.259616,0.328912,0.754448,-28.559999,-77.769997,49.349998,20.30
90246,0.276208,0.288408,0.719800,-26.250000,-76.019997,46.619999,20.33
90257,0.306464,0.153232,0.645624,-11.760000,-71.889999,42.279999,20.33
90268,0.306464,0.179096,0.565104,-2.870000,-69.720001,40.250000,20.33
90279,0.321592,0.214232,0.548024,-5.390000,-64.959999,36.330002,20.33
90290,0.318664,0.172752,0.529480,-9.030000,-57.259998,31.010000,20.29
90301,0.320616,0.106872,0.495808,-9.450000,-48.090000,23.520000,20.29
90312,0.318664,0.066368,0.418216,-9.450000,-39.549999,14.350000,20.29
90323,0.317688,-0.037088,0.319640,-6.370000,-26.879999,6.510000,20.29
90334,0.305488,-0.106384,0.220576,-4.410000,-13.860000,-4.760000,20.29
90345,0.300608,-0.260104,0.092232,2.170000,3.080000,-18.690001,20.33
90356,0.293776,-0.307440,-0.037576,9.800000,17.430000,-29.120001,20.29
90367,0.280112,-0.243512,-0.113216,7.840000,38.709999,-42.000000,20.29
90378,0.244488,-0.192272,-0.164944,2.520000,65.309998,-54.599998,20.31
90389,0.190808,-0.200568,-0.155672,3.290000,87.290001,-64.889999,20.31
90400,0.114680,-0.164456,-0.066368,8.190000,114.099998,-72.099998,20.33
90411,0.029768,-0.049288,0.050752,3.780000,139.929993,-80.919998,20.33
90422,-0.014152,-0.061488,0.245464,-2.870000,160.160004,-88.970001,20.31
90433,-0.124440,-0.000488,0.607072,-1.960000,177.240005,-93.029999,20.32
90444,-0.193248,0.183000,0.974536,-4.340000,183.190002,-94.500000,20.32
90455,-0.130296,0.358680,1.396656,-5.320000,173.389999,-93.660004,20.33
90466,0.024400,0.749080,1.813408,-20.510000,167.580002,-85.260002,20.33
90477,0.172264,0.911096,2.015928,-30.799999,157.080002,-79.169998,20.37
90488,0.278648,1.298080,2.162328,-28.980000,133.770004,-57.330002,20.26
90499,0.401136,1.487424,1.922720,-17.850000,116.410004,-39.060001,20.26
90510,0.619760,0.777384,1.196576,5.810000,104.790001,-46.410000,20.32
90521,0.481656,-0.147376,0.740296,17.500000,108.919998,-96.389999,20.32
90532,-0.053192,-0.386496,0.603656,59.220001,121.589996,-119.769997,20.36
90543,-0.477264,0.403576,0.813496,85.120003,127.610001,-51.380001,20.28
90554,-0.579256,0.904752,0.923296,58.029999,104.860001,-11.760000,20.28
90565,-0.430904,0.799344,1.114104,48.020000,70.000000,-13.300000,20.32
90576,-0.314760,0.723216,1.278560,52.080002,34.509998,-8.680000,20.32
90587,-0.232776,0.839360,1.324920,46.549999,4.270000,4.060000,20.29
90599,-0.013176,0.951600,1.416176,19.600000,-14.280000,13.160000,20.29
90611,0.425048,0.811056,1.536224,-12.320000,34.160000,13.160000,20.29
90624,0.146888,0.630496,1.639192,-46.060001,-26.600000,7.280000,20.31
90637,0.249856,0.242048,1.601128,-24.360001,-26.530001,-0.210000,20.29
90651,0.193248,0.221552,1.347856,4.830000,-37.240002,-0.700000,20.29
90662,0.197640,0.278160,1.037976,18.410000,-31.080000,-2.870000,20.28
90673,0.163968,0.258152,0.751520,22.330000,-27.299999,-2.730000,20.25
90685,0.144936,0.375760,0.607560,7.560000,-21.350000,-2.660000,20.25
90698,0.112728,0.324520,0.613416,-35.279999,-4.130000,-8.470000,20.30
90710,-0.018544,0.150792,0.928664,-46.830002,-4.830000,-19.809999,20.30
90722,-0.049776,0.137616,1.180960,-27.930000,0.840000,-7.980000,20.30
90734,-0.138592,0.307928,1.117032,10.220000,-1.050000,-8.470000,20.31
90746,-0.200080,0.467504,0.937936,16.870001,2.450000,-7.560000,20.31
90758,-0.190320,0.396256,0.776408,13.020000,11.480000,-15.890000,20.29
90770,-0.192272,0.252296,0.602680,2.590000,26.879999,-17.430000,20.31
90781,-0.130784,0.283528,0.152744,-0.840000,57.189999,-10.220000,20.31
90793,-0.345016,1.331264,1.329800,-85.820000,30.450001,13.930000,20.33
90804,-0.181536,-1.529880,1.321992,24.290001,23.450001,-26.879999,20.31
90816,-0.064904,0.169824,0.519720,140.070007,22.610001,-36.610001,20.31
90828,-0.188368,0.605120,0.637328,81.690002,50.540001,-34.509998,20.34
90840,-0.541680,1.097024,0.862784,24.219999,23.730000,-5.530000,20.32
90853,-0.422608,0.587552,0.902800,-14.910000,19.389999,-9.030000,20.32
90864,-0.585600,0.596336,1.069696,-15.540000,5.530000,-1.890000,20.36
90876,-0.525088,0.662216,1.373720,-3.710000,4.830000,14.420000,20.36
90888,-0.418704,0.528992,1.382504,17.850000,-9.380000,16.660000,20.32
90900,-0.232776,0.595360,1.422032,36.400002,-28.070000,25.129999,20.30
90912,-0.078568,0.681736,1.483520,45.360001,-41.720001,25.900000,20.30
90924,-0.011224,0.791048,1.464976,45.570000,-52.919998,28.559999,20.32
90935,0.039040,0.882792,1.401048,26.459999,-64.120003,30.940001,20.33
90946,0.038552,0.834480,1.348832,2.940000,-70.489998,32.619999,20.33
90957,0.007808,0.748104,1.321504,-9.870000,-78.470001,35.910000,20.33
90968,-0.010248,0.630496,1.277096,-14.350000,-85.330002,39.060001,20.33
90979,0.002440,0.544608,1.207800,-11.550000,-92.959999,42.070000,20.35
90990,0.028304,0.526552,1.161440,-7.770000,-99.050003,46.689999,20.35
91000,0.030744,0.566080,1.078480,-8.540000,-103.110001,49.770000,20.32
91011,0.053192,0.516304,1.034560,-9.590000,-105.559998,53.480000,20.29
91022,0.050264,0.527528,1.021872,-12.670000,-108.500000,56.279999,20.29
91033,0.039528,0.502152,0.970632,-15.750000,-109.620003,57.189999,20.34
91044,0.045384,0.471408,0.928176,-17.990000,-110.669998,58.869999,20.34
91055,0.058072,0.438224,0.897432,-19.320000,-111.089996,60.689999,20.30
91066,0.059048,0.432368,0.868152,-17.290001,-110.599998,62.580002,20.28
91077,0.054656,0.489464,0.830088,-20.510000,-111.370003,66.570000,20.28
91088,0.089792,0.470432,0.775920,-24.780001,-110.250000,67.620003,20.35
91099,0.133224,0.427000,0.747128,-20.790001,-107.660004,66.779999,20.35
91110,0.151768,0.393816,0.707600,-17.290001,-104.790001,66.779999,20.34
91121,0.186416,0.399672,0.681736,-20.440001,-102.550003,65.169998,20.34
91132,0.203984,0.339160,0.650504,-25.549999,-95.900002,62.650002,20.34
91143,0.182024,0.364536,0.618784,-31.010000,-92.610001,61.810001,20.31
91154,0.227896,0.320128,0.605608,-36.049999,-88.690002,57.750000,20.31
91165,0.254248,0.212768,0.589016,-31.360001,-83.370003,52.639999,20.28
91176,0.259128,0.181536,0.585600,-27.650000,-78.959999,49.000000,20.28
91187,0.270352,0.174704,0.543144,-26.530001,-75.320000,44.099998,20.30
91198,0.318664,0.038064,0.487512,-16.379999,-66.360001,35.910000,20.27
91210,0.311832,0.100040,0.445544,-9.940000,-59.639999,32.970001,20.27
91222,0.328912,0.145912,0.415288,-15.050000,-48.509998,27.090000,20.32
91233,0.362584,-0.049288,0.326960,-5.880000,-36.049999,15.120000,20.33
91245,0.324032,-0.024888,0.262544,3.710000,-25.830000,9.870000,20.33
91257,0.326472,-0.046360,0.222528,-0.490000,-11.130000,1.960000,20.36
91268,0.345016,-0.190320,0.104432,4.410000,6.160000,-7.280000,20.36
91279,0.318176,-0.181536,0.074664,6.370000,19.740000,-16.870001,20.30
91290,0.300608,-0.158112,0.072224,0.700000,39.270000,-27.790001,20.34
91301,0.266448,-0.114680,0.098576,-1.750000,51.869999,-32.900002,20.34
91312,0.211304,-0.065392,0.159088,-3.220000,75.040001,-43.959999,20.33
91323,0.118584,0.033184,0.117608,-12.390000,100.239998,-53.689999,20.33
91333,0.101016,-0.115168,0.140544,-31.920000,118.580002,-64.470001,20.34
91344,0.042456,-0.088816,0.160064,-34.090000,147.350006,-70.910004,20.33
91355,-0.039040,-0.079056,0.193248,-29.260000,171.570007,-75.180000,20.33
91367,-0.082472,-0.068320,0.317688,-23.660000,196.699997,-79.169998,20.31
91378,-0.181536,-0.007320,0.597800,-19.389999,211.050003,-80.709999,20.31
91390,-0.331840,0.220576,1.128256,-20.510000,214.059998,-78.680000,20.32
91401,-0.387960,0.513376,1.725568,-21.420000,205.729996,-73.290001,20.27
91413,-0.270352,0.817400,2.317512,-31.570000,179.479996,-51.450001,20.27
91424,0.009272,1.088240,2.630320,-44.099998,156.520004,-42.419998,20.31
91435,0.260104,0.949160,2.716696,-29.959999,129.919998,-44.590000,20.31
91447,0.437736,0.910120,2.224304,14.000000,99.260002,-34.580002,20.30
91459,0.730048,-0.120048,0.649528,80.500000,106.470001,-76.510002,20.30
91470,0.195688,-0.278648,0.309392,103.389999,103.250000,-94.500000,20.30
91483,-0.654408,0.491416,0.584624,94.290001,102.690002,-77.489998,20.32
91495,-0.831064,0.967704,0.621224,48.650002,85.050003,-29.820000,20.31
91506,-0.675880,0.636840,0.750544,6.510000,69.790001,-22.610001,20.31
91517,-0.398208,0.388936,0.946232,13.370000,36.470001,-19.600000,20.33
91529,-0.165920,0.606584,1.460096,20.230000,-2.870000,-4.760000,20.33
91541,0.220088,0.960384,1.848056,-4.690000,28.350000,-10.010000,20.34
91552,-0.009272,0.770552,1.930528,-38.150002,-19.600000,-24.920000,20.30
91563,0.079056,0.121512,1.901248,1.190000,-26.879999,-21.980000,20.30
91574,0.040992,0.196176,1.579656,56.560001,-39.759998,-18.410000,20.29
91585,-0.003416,0.577792,1.125328,69.019997,-45.220001,-12.880000,20.29
91597,0.092720,0.645136,0.838872,38.779999,-31.570000,1.750000,20.34
91610,0.056120,0.500688,0.655872,13.090000,-22.959999,-4.060000,20.32
91622,0.059536,0.397720,0.686128,-2.800000,-9.590000,-6.370000,20.32
91634,0.001464,0.391864,0.795440,-14.700000,0.070000,-4.760000,20.32
91647,-0.044408,0.363560,0.929152,-24.290001,7.630000,2.030000,20.34
91658,-0.092720,0.191784,0.961848,-8.820000,7.420000,6.580000,20.34
91671,-0.104920,0.275232,0.954040,20.160000,4.550000,7.630000,20.35
91683,-0.107848,0.472872,0.961848,19.040001,8.540000,3.640000,20.32
91705,-0.338672,0.101992,1.716296,2.100000,-18.900000,-26.600000,20.29
91716,-0.025864,-0.557296,1.022360,195.509995,21.840000,-2.240000,20.29
91728,-0.452376,1.730936,0.404064,114.870003,27.370001,2.520000,20.30
91739,-0.057096,0.602192,0.808616,36.330002,28.559999,-4.620000,20.32
91750,-0.348920,0.722240,0.690032,16.520000,18.830000,10.780000,20.32
91760,-0.493856,0.591456,1.168760,2.870000,-16.940001,11.480000,20.32
91772,-0.086864,-0.115656,0.901824,19.110001,14.210000,-15.330000,20.32
91783,-0.200568,-0.039528,0.798368,90.860001,9.240000,-17.290001,20.35
91795,-0.392352,0.508008,0.838384,113.470001,16.590000,-7.210000,20.29
91806,-0.379176,0.714432,0.885232,107.239998,-0.630000,12.320000,20.29
91817,-0.228384,1.042856,1.026752,88.480003,-10.430000,29.750000,20.35
91828,-0.248392,1.307352,1.095560,47.880001,-24.010000,39.970001,20.35
91840,-0.203984,1.334192,1.195600,-5.110000,-47.180000,45.570000,20.33
91851,-0.128344,1.015528,1.330288,-37.869999,-58.380001,45.500000,20.30
91862,0.101504,0.706624,1.254160,-47.459999,-32.340000,35.070000,20.30
91873,-0.040016,0.592432,1.197064,-45.290001,-40.250000,27.510000,20.39
91885,-0.050752,0.544120,1.133624,-35.980000,-49.139999,25.340000,20.39
91896,-0.057096,0.530456,1.127768,-23.170000,-66.430000,32.340000,20.26
91908,0.008784,0.574864,1.179008,-11.970000,-68.180000,41.230000,20.30
91919,-0.038064,0.605608,1.158024,-9.660000,-77.139999,50.610001,20.30
91930,-0.014152,0.730048,1.162416,-18.760000,-86.940002,58.520000,20.35
91941,0.025864,0.703208,1.173640,-29.889999,-91.070000,60.689999,20.35
91952,0.061976,0.641232,1.155584,-33.669998,-91.559998,59.709999,20.30
91963,0.032208,0.571936,1.097024,-35.349998,-94.849998,61.529999,20.33
91974,0.038064,0.448472,0.988200,-30.940001,-95.760002,61.389999,20.33
91985,0.010736,0.450424,0.873520,-25.549999,-98.209999,64.610001,20.33
91996,0.025376,0.462136,0.804712,-24.500000,-97.300003,65.099998,20.33
92007,0.085400,0.448472,0.799344,-24.850000,-96.529999,67.900002,20.32
92018,0.108824,0.540704,0.831064,-27.090000,-95.690002,70.699997,20.29
92029,0.122488,0.596824,0.894504,-37.450001,-95.550003,70.769997,20.29
92040,0.144936,0.478728,0.894992,-39.480000,-92.959999,67.550003,20.31
92051,0.115168,0.393816,0.864736,-33.110001,-91.349998,65.309998,20.31
92062,0.110776,0.331840,0.772504,-30.450001,-90.720001,64.050003,20.33
92073,0.142008,0.362584,0.747128,-30.660000,-90.580002,64.400002,20.36
92083,0.144448,0.543144,0.712480,-41.860001,-88.269997,64.540001,20.36
92094,0.181536,0.402112,0.667096,-48.160000,-85.470001,62.580002,20.29
92106,0.214720,0.386984,0.668072,-52.500000,-83.510002,58.939999,20.29
92117,0.242048,0.308416,0.644160,-56.630001,-80.080002,55.299999,20.35
92128,0.247904,0.222528,0.641720,-51.799999,-78.470001,53.410000,20.35
92139,0.267912,0.170312,0.643672,-42.279999,-75.739998,48.580002,20.32
92150,0.286944,0.138104,0.624152,-28.209999,-72.239998,43.049999,20.34
92161,0.304512,0.139568,0.584136,-15.820000,-66.150002,38.500000,20.34
92171,0.310856,0.112728,0.482632,-7.140000,-57.400002,32.759998,20.34
92182,0.306952,0.159088,0.427976,-3.710000,-50.959999,27.580000,20.34
92193,0.302072,0.149816,0.418704,-4.060000,-41.720001,22.540001,20.33
92205,0.306464,0.026352,0.399672,3.570000,-31.500000,14.140000,20.30
92216,0.305976,-0.045384,0.352824,10.500000,-22.469999,2.450000,20.30
92226,0.304512,-0.096136,0.278160,17.080000,-9.170000,-7.420000,20.32
92238,0.282552,-0.095160,0.192272,20.230000,5.320000,-20.510000,20.32
92248,0.286456,-0.128344,0.084912,20.930000,24.219999,-33.950001,20.29
92259,0.255712,-0.128344,-0.015128,20.090000,40.950001,-43.049999,20.35
92270,0.221552,-0.101016,-0.068808,13.090000,63.139999,-55.230000,20.35
92281,0.192272,-0.132248,-0.095160,5.950000,87.290001,-66.989998,20.30
92292,0.160552,-0.189344,-0.105408,1.610000,107.800003,-79.379997,20.30
92305,0.075640,-0.170312,-0.048800,-8.540000,138.529999,-88.550003,20.34
92317,-0.001464,-0.201544,0.141520,-11.270000,163.869995,-97.300003,20.28
92328,-0.173240,-0.068320,0.555344,-4.550000,178.080002,-99.050003,20.28
92341,-0.277184,0.210816,0.999424,-9.310000,180.250000,-102.199997,20.31
92352,-0.203984,0.405040,1.433256,-27.790001,177.309998,-99.889999,20.31
92364,-0.124928,0.846192,1.896856,-49.000000,167.789993,-85.540001,20.31
92376,-0.006832,1.089704,2.265784,-68.809998,149.869995,-76.019997,20.32
92388,0.202032,1.143872,2.307752,-76.160004,131.600006,-61.669998,20.32
92400,0.388936,1.034072,2.071072,-63.000000,104.019997,-48.790001,20.34
92413,0.624152,0.122976,1.267824,19.670000,93.449997,-84.349998,20.34
92424,0.327448,-0.888160,0.870104,76.019997,98.910004,-138.669998,20.34
92436,-0.365512,-0.052216,0.794952,133.630005,90.510002,-126.279999,20.29
92447,-0.663680,1.094584,0.968192,94.080002,91.559998,-42.910000,20.28
92458,-0.508496,1.242448,1.133136,40.250000,64.190002,-30.170000,20.28
92468,-0.452376,0.776408,1.275144,60.130001,33.389999,-31.290001,20.36
92479,-0.458232,0.844728,1.240496,79.589996,2.170000,-20.020000,20.36
92490,-0.330864,0.952088,1.156560,72.870003,-14.210000,-7.910000,20.32
92502,-0.073200,0.927688,1.086776,52.570000,-16.100000,2.240000,20.32
92513,0.044408,0.901824,1.107272,30.100000,-8.190000,15.330000,20.32
92524,0.134688,0.839360,1.008208,-7.210000,-19.180000,26.180000,20.34
92535,0.242536,0.615368,1.167784,-29.120001,-14.630000,32.410000,20.34
92546,0.327936,0.407968,1.223416,-32.410000,-9.240000,20.650000,20.35
92557,0.248392,0.228384,1.242448,-17.290001,-29.330000,12.530000,20.35
92568,0.285968,0.208376,1.195600,1.470000,-25.760000,8.120000,20.29
92579,0.248880,0.393816,1.059936,2.940000,-31.570000,7.770000,20.35
92590,0.229848,0.292312,0.973560,-1.680000,-28.980000,8.960000,20.35
92601,0.191296,0.282552,0.914024,0.490000,-19.950001,12.040000,20.36
92612,0.124440,0.549000,0.934032,-19.110001,-10.920000,11.760000,20.36
92623,0.039528,0.457256,1.020896,-49.070000,-10.990000,7.280000,20.35
92634,-0.033672,0.163968,1.043832,-38.290001,-8.120000,1.470000,20.29
92645,-0.075152,0.123464,0.994544,-2.170000,-9.100000,-5.180000,20.29
92657,-0.088816,0.159088,0.906704,-2.310000,-6.650000,-12.600000,20.34
92668,-0.133712,0.180072,0.892064,12.880000,-7.070000,-10.710000,20.34
92679,-0.173728,0.262056,0.831064,23.590000,-5.320000,-7.490000,20.35
92690,-0.180560,0.515816,0.995520,8.330000,-4.130000,-4.200000,20.33
92701,-0.216672,0.613904,0.966240,-15.750000,2.660000,-9.800000,20.33
92712,-0.591944,1.639192,2.338008,-100.029999,-25.549999,-5.110000,20.36
92734,0.117120,-0.149816,1.032120,87.220001,-1.750000,-49.349998,20.32
92745,-0.163968,0.637816,0.666608,57.680000,7.980000,-19.530001,20.30
92756,-0.307928,0.512400,0.875472,57.470001,-1.680000,-16.309999,20.30
92767,-0.297680,0.307928,0.777384,62.790001,6.790000,-14.840000,20.31
92778,-0.449448,0.635864,0.529480,41.509998,-0.490000,-14.770000,20.31
92789,-0.447496,0.471896,0.553392,31.080000,3.570000,-4.410000,20.36
92800,-0.447984,0.912072,0.740784,15.540000,9.660000,13.650000,20.33
92811,-0.420656,0.896944,0.930128,-7.350000,-2.730000,26.740000,20.33
92822,-0.294752,0.653432,1.116056,-4.480000,-14.980000,34.090000,20.32
92833,-0.217648,0.632936,1.253184,16.590000,-35.910000,33.810001,20.32
92844,0.050752,0.709064,1.325408,23.309999,-15.470000,37.869999,20.32
92855,-0.020496,0.668560,1.356640,26.180000,-32.619999,27.860001,20.32
92866,-0.002928,0.643184,1.309792,28.000000,-35.770000,31.360001,20.33
92880,0.003904,0.656360,1.254648,32.200001,-49.910000,33.880001,20.33
92894,-0.031720,0.769576,1.153144,25.830000,-58.869999,40.250000,20.29
92907,-0.005856,0.798856,1.121424,14.350000,-70.000000,49.700001,20.29
92920,0.052704,0.742248,1.100440,0.700000,-76.860001,55.369999,20.36
92931,0.101504,0.658312,1.093120,-7.980000,-80.360001,57.680000,20.34
92942,0.097112,0.559736,1.067256,-8.680000,-83.720001,59.220001,20.34
92954,0.098576,0.538752,1.040904,-9.170000,-87.779999,64.120003,20.30
92965,0.111752,0.587064,0.984784,-13.370000,-92.330002,70.980003,20.30
92976,0.109312,0.392352,0.929152,-17.570000,-92.820000,70.489998,20.37
92987,0.102968,0.461160,0.863272,-12.040000,-91.489998,71.190002,20.32
92998,0.082472,0.537776,0.833016,-10.640000,-94.500000,76.230003,20.32
93009,0.131760,0.548512,0.833016,-17.010000,-95.970001,78.750000,20.34
93020,0.194712,0.530944,0.841312,-29.400000,-95.410004,79.449997,20.34
93031,0.216672,0.513864,0.878888,-42.139999,-96.949997,78.050003,20.27
93042,0.235704,0.396744,0.861320,-45.009998,-94.570000,72.730003,20.27
93053,0.223992,0.241072,0.781776,-35.490002,-93.169998,70.000000,20.34
93064,0.212280,0.255224,0.688080,-30.030001,-90.300003,66.360001,20.29
93075,0.234728,0.257664,0.623664,-52.430000,-87.919998,65.169998,20.29
93086,0.260592,0.259616,0.585112,-39.480000,-85.750000,63.209999,20.36
93096,0.314760,0.259616,0.567056,-44.520000,-79.589996,61.180000,20.36
93107,0.336720,0.331352,0.556808,-54.599998,-76.300003,60.270000,20.34
93118,0.366488,0.183488,0.553392,-59.150002,-68.389999,52.290001,20.30
93129,0.356240,0.087840,0.533872,-51.799999,-61.880001,45.220001,20.30
93140,0.352824,0.028304,0.485072,-41.509998,-54.110001,38.639999,20.32
93151,0.352824,0.005368,0.391864,-35.139999,-46.689999,30.100000,20.32
93162,0.371368,-0.063928,0.337208,-22.959999,-34.509998,21.420000,20.32
93173,0.347456,-0.101504,0.294752,-8.400000,-26.740000,12.740000,20.32
93184,0.379664,-0.109800,0.238632,-2.450000,-15.050000,3.430000,20.32
93196,0.377712,-0.070760,0.219600,-5.250000,-0.350000,-6.230000,20.34
93209,0.356240,-0.094184,0.160552,-17.430000,17.430000,-18.620001,20.34
93220,0.315248,-0.134200,0.124928,-27.650000,35.209999,-28.350000,20.30
93231,0.265472,-0.185928,0.115656,-27.370001,55.790001,-40.740002,20.28
93242,0.233264,-0.169336,0.058560,-23.100000,78.400002,-50.330002,20.28
93253,0.191296,-0.037088,0.027328,-27.580000,97.860001,-58.939999,20.37
93264,0.159088,-0.091256,0.016592,-32.619999,124.949997,-66.919998,20.37
93275,0.104432,-0.204960,0.122488,-17.219999,147.699997,-74.550003,20.30
93287,-0.013664,-0.136152,0.223016,-5.040000,170.869995,-80.639999,20.30
93298,-0.064416,-0.037088,0.478728,0.350000,184.800003,-84.419998,20.30
93309,-0.221064,0.173728,0.938912,3.360000,193.899994,-84.910004,20.37
93320,-0.284992,0.442128,1.303936,-4.200000,189.490005,-84.489998,20.37
93331,-0.186904,0.575352,1.732400,-6.580000,179.830002,-73.430000,20.31
93343,-0.059536,0.866200,2.232112,-14.840000,156.380005,-61.459999,20.30
93354,0.108336,1.002352,2.490752,-16.940001,133.419998,-54.669998,20.30
93365,0.252784,1.113128,2.438536,-9.030000,107.239998,-46.830002,20.34
93376,0.470432,0.530944,1.927600,13.440000,97.230003,-54.529999,20.34
93386,0.521672,0.162992,1.223904,65.800003,76.580002,-68.110001,20.36
93398,0.329400,-0.151768,0.537288,95.690002,86.660004,-95.480003,20.30
93408,-0.241560,-0.018544,0.452864,107.800003,92.120003,-97.720001,20.30
93420,-0.593896,0.442616,0.446520,92.820000,96.739998,-60.619999,20.34
93431,-0.523624,0.725168,0.574864,51.310001,80.290001,-37.029999,20.34
93442,-0.483120,0.507520,0.821792,30.520000,64.680000,-24.920000,20.30
93453,-0.304024,0.601704,0.975024,34.860001,36.680000,-19.250000,20.36
93464,-0.205448,0.730536,1.122400,27.299999,7.490000,-9.870000,20.36
93475,-0.049776,0.724680,1.272216,8.750000,-4.270000,-9.450000,20.31
93486,0.201544,0.661240,1.435696,-11.900000,38.779999,-21.420000,20.31
93497,0.104432,0.517280,1.525488,-23.940001,7.000000,-24.850000,20.33
93508,0.046848,0.352824,1.518656,-10.360000,5.250000,-19.809999,20.33
93519,0.037576,0.424560,1.386896,12.600000,-3.990000,-18.059999,20.30
93530,0.007808,0.511912,1.284904,13.020000,-12.740000,-10.710000,20.30
93541,0.037576,0.500688,1.099952,8.260000,-10.080000,-11.480000,20.30
93552,-0.004392,0.414312,0.962336,3.360000,-15.190000,-11.480000,20.34
93563,0.063440,0.343064,0.760792,0.910000,-3.010000,-12.040000,20.34
93574,0.048800,0.352336,0.891576,-5.810000,3.640000,-16.520000,20.33
93585,-0.021472,0.301584,0.916952,-12.670000,-3.080000,-13.720000,20.33
93596,0.003416,0.212768,0.980392,-3.990000,-3.360000,-4.690000,20.33
93607,0.006832,0.244488,1.029680,18.549999,-5.810000,-1.960000,20.35
93618,-0.031720,0.442616,1.090680,27.790001,-10.710000,0.700000,20.35
93628,-0.035136,0.507032,1.103856,24.990000,-4.550000,-4.410000,20.33
93640,-0.070272,0.344528,0.978440,25.410000,3.570000,-13.160000,20.30
93651,-0.144448,0.288408,0.858880,27.090000,10.780000,-20.440001,20.30
93662,-0.182024,0.247416,0.268400,20.510000,28.840000,-19.459999,20.32
93673,-0.390888,0.323544,1.459608,24.360001,-7.980000,-9.170000,20.32
93684,-0.224968,0.760304,1.614792,45.990002,-12.320000,-3.010000,20.33
93695,-0.207888,0.635376,1.252696,102.900002,-4.690000,18.410000,20.33
93706,-0.249368,1.191208,0.789096,59.570000,-15.680000,20.160000,20.32
93717,-0.169824,0.326960,0.744200,32.549999,4.900000,0.280000,20.34
93728,-0.224968,0.582184,0.706624,27.510000,8.470000,15.400000,20.34
93739,-0.280600,0.738344,0.885720,1.190000,1.120000,7.210000,20.35
93762,-0.398208,0.594872,1.186816,2.030000,-15.120000,28.559999,20.35
93773,-0.345504,0.776408,1.344928,6.790000,-35.000000,39.689999,20.32
93784,-0.248392,0.752984,1.380552,12.250000,-33.950001,45.779999,20.32
93795,-0.178608,0.791048,1.362008,12.250000,-39.830002,44.450001,20.29
93806,-0.237168,0.756888,1.294176,12.880000,-50.680000,46.689999,20.29
93817,-0.182512,0.750056,1.250256,8.540000,-59.080002,50.820000,20.30
93828,-0.159088,0.733952,1.207312,1.400000,-70.349998,54.669998,20.29
93839,-0.128344,0.670024,1.204384,-2.520000,-75.040001,59.849998,20.29
93850,-0.142496,0.719800,1.180472,-8.820000,-83.720001,63.770000,20.31
93861,-0.094672,0.688568,1.164856,-15.750000,-91.139999,67.410004,20.31
93872,-0.034160,0.668072,1.159976,-21.209999,-95.760002,68.110001,20.37
93883,-0.011224,0.578280,1.135576,-22.610001,-98.559998,69.019997,20.28
93894,0.018056,0.521672,1.140944,-20.020000,-105.489998,71.400002,20.28
93905,0.040992,0.503616,1.127280,-18.760000,-110.320000,73.290001,20.32
93916,0.042944,0.512888,1.095560,-18.270000,-114.449997,76.160004,20.32
93927,0.066368,0.483608,1.007720,-18.270000,-118.440002,78.400002,20.34
93938,0.112240,0.454816,0.969168,-18.340000,-121.449997,79.800003,20.34
93949,0.147864,0.424560,0.908168,-20.790001,-122.150002,78.959999,20.30
93960,0.167384,0.338184,0.841800,-23.240000,-121.940002,76.790001,20.34
93971,0.197640,0.278160,0.792024,-20.790001,-120.260002,75.110001,20.34
93982,0.196176,0.278648,0.731512,-20.930000,-118.650002,73.779999,20.36
93993,0.230824,0.275720,0.703696,-23.450001,-116.830002,73.779999,20.36
94004,0.244000,0.321592,0.670024,-28.490000,-115.150002,74.900002,20.31
94015,0.256688,0.270840,0.638792,-28.490000,-108.570000,70.980003,20.30
94026,0.274256,0.251808,0.599752,-25.059999,-103.669998,67.550003,20.30
94037,0.301584,0.240096,0.584136,-18.480000,-98.559998,64.540001,20.37
94048,0.312320,0.232288,0.542656,-13.230000,-91.139999,59.919998,20.37
94059,0.346968,0.118096,0.485560,-5.670000,-82.180000,53.830002,20.30
94070,0.361608,0.118584,0.450912,-4.270000,-74.760002,48.580002,20.27
94081,0.359656,0.141032,0.444568,-8.050000,-67.620003,43.400002,20.27
94092,0.372832,0.058560,0.400648,-10.430000,-57.400002,35.560001,20.33
94103,0.385032,0.043432,0.372832,-9.660000,-47.389999,28.559999,20.33
94114,0.385520,0.063928,0.345016,-11.060000,-38.500000,21.559999,20.31
94125,0.392352,0.038552,0.307440,-12.250000,-26.879999,15.330000,20.29
94136,0.404064,-0.023424,0.248880,-11.480000,-13.510000,6.440000,20.29
94147,0.413336,-0.082472,0.174704,-8.470000,2.660000,-4.130000,20.29
94158,0.394792,-0.107848,0.103456,-6.510000,15.610000,-15.820000,20.29
94169,0.368440,-0.108336,0.066368,-9.310000,33.040001,-24.709999,20.31
94181,0.326472,-0.117120,0.071736,-11.690000,49.840000,-35.770000,20.31
94192,0.270352,-0.150792,0.066368,-10.290000,67.690002,-47.599998,20.30
94203,0.255224,-0.173240,0.050752,-9.100000,83.930000,-60.410000,20.32
94214,0.224480,-0.176656,0.041480,-8.610000,105.489998,-88.199997,20.32
94225,0.173240,-0.153232,0.030256,-9.100000,129.080002,-80.989998,20.40
94236,0.101016,-0.146888,0.107848,-8.330000,152.320007,-87.779999,20.40
94247,-0.006344,-0.091256,0.400648,-6.370000,170.940002,-92.330002,20.37
94258,-0.121024,0.042456,0.915976,-4.690000,178.500000,-92.540001,20.30
94269,-0.210816,0.260104,1.349808,-14.840000,175.000000,-91.910004,20.30
94280,-0.070760,0.448472,1.859768,-30.450001,160.440002,-87.989998,20.32
94291,0.099552,0.710040,2.212104,-51.799999,145.880005,-83.019997,20.32
94304,0.347456,1.006744,2.119872,-59.570000,127.959999,-69.580002,20.38
94316,0.486536,1.269776,1.474736,-70.209999,123.620003,-49.910000,20.34
94327,0.465064,0.730536,0.860344,-59.639999,110.040001,-61.040001,20.34
94340,0.165432,0.143960,0.596824,-30.450001,114.309998,-86.029999,20.30
94353,-0.369416,0.122000,0.727608,12.390000,116.620003,-82.669998,20.32
94365,-0.506544,0.330376,0.957944,28.559999,105.629997,-50.959999,20.32
94376,-0.370880,0.333792,1.209752,47.110001,70.980003,-39.200001,20.36
94388,-0.194224,0.557296,1.399584,70.349998,50.259998,-29.610001,20.31
94401,-0.112728,0.797880,1.497184,60.549999,25.270000,-14.280000,20.31
94413,0.079544,0.901824,1.598688,45.919998,21.209999,-4.760000,20.30
94425,0.103944,0.931592,1.589904,22.610001,5.040000,-6.510000,20.36
94437,0.162504,0.721752,1.536712,-1.890000,-3.850000,-5.950000,20.36
94449,0.159576,0.438712,1.422032,5.670000,-16.660000,-1.190000,20.32
94460,0.207888,0.381128,1.301008,16.730000,-26.180000,3.430000,20.32
94472,0.220576,0.369904,1.145336,22.820000,-32.970001,9.450000,20.35
94483,0.252784,0.366488,0.993568,25.830000,-35.279999,12.040000,20.32
94495,0.284992,0.428464,0.879864,20.440001,-32.060001,14.350000,20.32
94506,0.323056,0.424560,0.821304,8.750000,-26.110001,11.340000,20.32
94517,0.327448,0.395280,0.814472,-8.400000,-21.980000,10.920000,20.34
94528,0.322080,0.282064,0.871568,-17.500000,-17.780001,7.980000,20.34
94539,0.334768,0.129320,0.876936,-14.210000,-8.680000,13.090000,20.33
94550,0.305976,0.102968,0.815448,-0.070000,-8.890000,11.690000,20.33
94561,0.293288,0.145424,0.781776,15.120000,-5.950000,12.460000,20.37
94572,0.262056,0.276208,0.784704,20.020000,-6.650000,13.930000,20.37
94583,0.255712,0.401624,0.858880,8.960000,-4.830000,21.629999,20.32
94594,0.229848,0.455304,0.942328,-4.340000,-8.540000,26.600000,20.35
94604,0.236192,0.487024,1.063352,-9.310000,-15.680000,28.700001,20.35
94615,0.244000,0.540704,1.145336,-10.850000,-15.540000,27.790001,20.34
94626,0.244488,0.418216,1.140944,-8.820000,-18.270000,22.400000,20.34
94637,0.230336,0.380640,1.065792,3.920000,-22.120001,24.850000,20.33
94648,0.242048,0.442128,0.976000,16.100000,-26.950001,28.629999,20.33
94660,0.273280,0.449936,0.743712,27.790001,-27.510000,30.379999,20.33
94671,0.348432,0.246928,1.069208,51.240002,-33.810001,20.930000,20.34
94681,0.248880,0.298656,1.146312,83.160004,-30.799999,20.650000,20.34
94692,0.226432,0.669536,1.036024,86.660004,-31.219999,32.340000,20.34
94703,0.184952,0.569496,0.857416,55.160000,-17.920000,13.300000,20.34
94714,0.192760,0.139568,0.645136,60.340000,15.750000,-3.500000,20.36
94725,0.093696,0.269864,0.785680,61.880001,12.110000,-13.370000,20.33
94735,-0.233264,0.045384,0.785192,84.839996,36.259998,-18.830000,20.33
94747,-0.713456,1.470832,0.356728,52.009998,25.760000,23.799999,20.36
94757,-0.112240,0.287920,0.899872,30.940001,16.379999,12.040000,20.36
94768,-0.427976,1.091656,0.996984,-18.270000,19.250000,27.370001,20.32
94787,-0.459208,0.491904,1.355664,8.820000,-10.150000,23.379999,20.34
94798,-0.479216,0.888648,1.308328,-0.350000,-19.670000,32.549999,20.32
94809,-0.439200,0.777384,1.240984,-8.610000,-26.180000,39.549999,20.32
94820,-0.418216,0.805200,1.173152,-6.860000,-24.780001,53.900002,20.36
94831,-0.274744,0.734440,1.128256,-9.310000,-30.030001,51.240002,20.36
94842,-0.222040,0.530944,1.126304,-1.750000,-34.930000,48.720001,20.36
94854,-0.216184,0.535824,1.123864,4.970000,-41.160000,44.029999,20.31
94865,-0.134688,0.497272,1.091656,6.090000,-40.320000,46.549999,20.31
94876,-0.120536,0.514840,1.090192,0.490000,-46.900002,50.400002,20.34
94887,-0.100040,0.459208,1.094584,-1.190000,-48.090000,48.930000,20.34
94900,-0.076128,0.491416,1.053592,-11.060000,-54.180000,46.830002,20.37
94911,-0.005856,0.407480,1.014064,-21.420000,-56.560001,44.799999,20.34
94922,0.036600,0.282064,0.925248,-18.410000,-54.599998,44.520000,20.34
94933,0.039040,0.391376,0.874008,-18.969999,-54.250000,44.520000,20.33
94944,0.076128,0.356728,0.877424,-16.730000,-53.759998,43.680000,20.33
94955,0.086864,0.323056,0.913536,-7.070000,-53.060001,42.770000,20.34
94966,0.129320,0.312808,0.933056,-3.150000,-52.570000,42.840000,20.34
94977,0.188856,0.268888,0.914024,4.130000,-50.470001,41.580002,20.34
94987,0.193736,0.420168,0.901824,4.200000,-50.049999,42.980000,20.34
94998,0.186416,0.455304,0.876936,-4.550000,-49.700001,39.900002,20.34
95009,0.220088,0.423584,0.854488,-11.830000,-49.560001,38.779999,20.31
95020,0.228872,0.413824,0.880352,-15.680000,-50.049999,38.360001,20.31
95031,0.227896,0.535336,0.897920,-26.180000,-51.730000,42.490002,20.36
95042,0.260104,0.487024,0.918904,-33.459999,-53.970001,39.970001,20.36
95053,0.265472,0.437248,0.899384,-30.170000,-53.270000,36.400002,20.36
95064,0.282552,0.344040,0.810080,-26.110001,-50.189999,33.180000,20.34
95075,0.288896,0.266448,0.737856,-16.450001,-49.560001,28.070000,20.34
95086,0.271328,0.279136,0.691496,-11.340000,-46.410000,23.309999,20.36
95097,0.267912,0.247416,0.623664,-8.120000,-40.459999,16.240000,20.26
95108,0.251808,0.228384,0.562176,-3.010000,-34.439999,9.170000,20.26
95119,0.229360,0.191784,0.537776,0.840000,-25.760000,2.030000,20.37
95130,0.197640,0.186416,0.498248,0.770000,-16.730000,-4.410000,20.37
95143,0.213256,0.151768,0.464088,-2.030000,-7.000000,-12.670000,20.37
95158,0.215696,0.131760,0.389424,-0.070000,4.130000,-20.510000,20.28
95173,0.203008,0.106872,0.354776,4.200000,15.050000,-31.709999,20.35
95184,0.191296,0.122000,0.279136,3.010000,25.270000,-38.500000,20.35
95197,0.213256,0.057584,0.185440,-3.290000,41.439999,-49.209999,20.34
95208,0.221552,-0.019520,0.130784,-9.450000,55.160000,-59.779999,20.32
95219,0.183976,-0.033184,0.133224,-19.809999,78.260002,-65.730003,20.32
95230,0.155672,-0.066856,0.154696,-28.000000,102.199997,-78.190002,20.34
95241,0.083448,-0.109312,0.275232,-31.360001,120.820000,-84.419998,20.34
95252,0.037088,-0.146888,0.436760,-30.520000,134.539993,-91.910004,20.35
95263,-0.039528,-0.068808,0.728584,-27.160000,148.539993,-96.389999,20.37
95275,-0.078568,0.254736,1.134112,-40.110001,148.539993,-97.160004,20.37
95286,-0.057096,0.471408,1.429840,-53.549999,146.160004,-94.360001,20.32
95297,0.038064,0.721752,1.772904,-62.369999,133.419998,-81.410004,20.32
95308,0.251808,0.887184,2.042768,-71.190002,122.779999,-73.080002,20.30
95319,0.392352,0.944768,2.138416,-64.260002,108.430000,-62.020000,20.36
95330,0.463112,0.863760,1.951512,-49.700001,86.309998,-53.270000,20.36
95341,0.647576,0.542656,1.528416,4.200000,59.570000,-51.660000,20.33
95352,0.740784,0.127856,1.086288,41.439999,51.310001,-76.650002,20.33
95363,0.513864,-0.861320,0.365512,52.709999,72.870003,-143.289993,20.34
95374,-0.050752,-0.231800,0.346968,104.019997,82.669998,-133.910004,20.34
95385,-0.711016,0.670512,0.329888,73.570000,107.099998,-75.739998,20.34
95396,-0.696864,0.505568,0.343064,51.730000,79.169998,-53.270000,20.34
95407,-0.339160,0.302560,0.457256,89.879997,55.090000,-34.580002,20.34
95419,0.005856,0.910120,0.568520,100.589996,55.860001,-33.810001,20.31
95429,0.144936,1.337608,0.786656,42.279999,70.980003,-50.820000,20.31
95440,-0.063928,1.355176,1.177544,-59.150002,15.400000,-35.980000,20.33
95452,0.126880,0.642696,1.807552,-99.470001,-4.130000,-23.799999,20.30
95463,0.102968,-0.056120,2.023736,-29.959999,-17.990000,-19.530001,20.30
95474,0.045872,0.416752,1.648464,49.560001,3.430000,-22.260000,20.29
95485,-0.135176,0.962824,1.207800,32.900002,-8.960000,-25.690001,20.29
95496,-0.068320,0.661728,0.978928,-3.640000,9.870000,-32.830002,20.34
95507,-0.128832,0.319152,0.732000,-7.140000,5.950000,-39.410000,20.36
95518,-0.081984,0.279136,0.689056,-1.750000,21.629999,-38.779999,20.36
95530,-0.125904,0.245952,0.700280,4.270000,25.690001,-40.599998,20.35
95541,-0.153232,0.305488,0.843264,11.410000,22.540001,-37.799999,20.35
95552,-0.159576,0.377224,0.956968,18.200001,22.680000,-28.700001,20.38
95563,-0.218624,0.519720,1.081408,21.980000,13.020000,-20.090000,20.35
95574,-0.240096,0.567056,1.186816,10.080000,3.290000,-10.010000,20.35
95585,-0.213256,0.430904,1.434720,7.700000,-5.180000,-12.040000,20.32
95596,-0.387960,1.350784,1.115080,-90.790001,-1.120000,-1.470000,20.32
95607,0.014152,-0.040016,1.127280,-107.589996,10.080000,-33.669998,20.36
95618,-0.207400,-0.328912,1.003816,-69.440002,20.790001,-61.599998,20.31
95630,-0.153720,-0.631960,0.909144,29.889999,17.219999,-59.919998,20.31
95641,-0.363072,-1.273680,1.812432,227.919998,14.140000,-91.839996,20.34
95652,-0.589992,0.479704,0.851560,380.100006,10.920000,-25.969999,20.34
95663,-0.353800,2.162328,0.415776,195.789993,-6.300000,-12.950000,20.36
95674,-0.214232,1.777296,0.589016,38.430000,-1.820000,-0.070000,20.33
95685,-0.345016,1.494256,0.625128,-59.220001,-11.760000,34.790001,20.33
95696,-0.170312,0.873032,0.748592,-116.339996,-14.210000,41.580002,20.35
95708,-0.098576,0.233264,0.973560,-120.889999,-15.260000,19.389999,20.35
95719,-0.276696,0.043920,1.167296,-82.389999,-31.780001,5.600000,20.36
95730,-0.127856,-0.010736,1.476688,-17.850000,-3.010000,17.920000,20.34
95742,-0.259616,0.267912,1.457656,48.299999,-22.680000,-3.500000,20.34
95753,-0.320128,0.496296,1.424960,89.110001,-35.419998,5.670000,20.35
95764,-0.305000,0.830088,1.216096,97.019997,-55.020000,20.299999,20.35
95775,-0.138104,1.114592,1.046272,65.309998,-53.970001,36.750000,20.35
95786,-0.138104,1.087752,0.969168,21.840000,-70.209999,47.669998,20.30
95800,-0.158600,0.906216,1.014064,-11.690000,-84.349998,65.449997,20.30
95811,-0.071736,0.815448,1.079944,-29.540001,-72.309998,67.339996,20.33
95822,-0.083448,0.748592,1.176080,-41.090000,-73.849998,62.860001,20.33
95833,-0.094184,0.507520,1.197552,-40.880001,-75.320000,61.950001,20.36
95844,-0.098088,0.472872,1.198040,-21.840000,-84.209999,63.770000,20.38
95855,-0.059536,0.526552,1.180960,-6.090000,-93.169998,73.220001,20.38
95866,-0.024400,0.626104,1.107760,-4.970000,-95.480003,77.279999,20.34
95877,-0.008296,0.577304,1.022848,-9.590000,-101.010002,79.800003,20.34
95890,0.032696,0.547536,0.961848,-10.920000,-99.889999,80.849998,20.36
95903,0.009760,0.521184,0.859856,-13.650000,-97.580002,79.730003,20.36
95916,-0.006344,0.465064,0.811544,-20.230000,-100.099998,83.019997,20.35
95929,0.037576,0.488488,0.866200,-29.260000,-101.430000,84.699997,20.35
95943,0.068808,0.474824,0.939888,-42.490002,-103.599998,83.790001,20.35
95955,0.106384,0.329888,0.891088,-43.959999,-102.900002,78.680000,20.33
95968,0.096136,0.311344,0.812520,-42.209999,-105.419998,78.750000,20.33
95982,0.173728,0.295728,0.707112,-49.840000,-100.870003,75.389999,20.37
95995,0.211792,0.270352,0.639768,-44.029999,-98.559998,72.169998,20.38
96009,0.284016,0.204960,0.610488,-34.439999,-94.919998,68.040001,20.38
96023,0.248392,0.277184,0.590968,-29.469999,-89.250000,63.490002,20.35
96035,0.276208,0.212768,0.556808,-25.340000,-82.180000,59.150002,20.37
96049,0.286944,0.134688,0.495808,-12.390000,-72.519997,51.660000,20.35
96062,0.284016,0.019032,0.478240,-5.180000,-62.930000,42.630001,20.35
96074,0.289872,0.051240,0.441152,5.460000,-50.680000,36.049999,20.37
96087,0.279136,0.041480,0.392352,12.460000,-38.919998,28.000000,20.36
96100,0.305000,-0.103944,0.263032,19.459999,-21.629999,15.470000,20.36
96113,0.297680,-0.058560,0.203984,11.200000,-7.560000,4.060000,20.36
96126,0.299632,-0.152744,0.128344,2.730000,18.059999,-9.520000,20.36
96139,0.262056,-0.100040,0.065880,-5.110000,36.470001,-21.490000,20.36
96152,0.216184,-0.125904,0.115168,-14.350000,61.459999,-32.830002,20.37
96163,0.173240,-0.104432,0.119072,-11.410000,83.720001,-42.139999,20.34
96176,0.124928,-0.091744,0.255224,-12.390000,105.209999,-51.310001,20.34
96188,0.022936,0.023424,0.513864,-12.600000,123.269997,-58.869999,20.35
96201,-0.068320,0.140544,0.968680,-12.530000,132.509995,-64.959999,20.34
96212,-0.097112,0.381616,1.315160,-13.440000,132.580002,-62.650002,20.34
96225,0.005856,0.552904,1.837808,-13.300000,121.660004,-60.619999,20.38
96236,0.175192,0.609024,2.026176,-5.600000,111.230003,-59.080002,20.34
96247,0.355264,0.663680,1.970056,-4.480000,93.449997,-57.750000,20.34
96258,0.441640,0.884256,1.678232,-2.240000,78.889999,-47.040001,20.31
96269,0.571448,0.709064,0.891576,24.010000,73.709999,-49.419998,20.31
96280,0.589016,-0.393816,0.180560,60.759998,91.559998,-83.720001,20.40
96291,0.121024,-0.688080,-0.128344,92.400002,123.690002,-130.899994,20.31
96302,-0.500200,0.465552,-0.046360,106.820000,109.690002,-86.029999,20.31
96313,-0.571936,1.022360,0.341112,26.040001,102.830002,-41.930000,20.36
96324,-0.223992,0.794464,0.668560,-33.040001,95.690002,-9.800000,20.36
96335,-0.106384,0.734440,1.083360,-24.010000,59.500000,-11.970000,20.36
96346,-0.011224,0.904264,1.562088,-39.549999,46.830002,-34.930000,20.32
96357,0.215208,0.726144,1.943704,-56.139999,72.589996,-33.880001,20.32
96368,-0.035624,0.365024,1.989088,-30.940001,30.590000,-39.759998,20.34
96379,-0.047824,0.284016,1.863184,20.930000,12.600000,-22.959999,20.34
96390,0.032208,0.416752,1.535248,54.040001,-7.070000,-10.920000,20.41
96402,0.097112,0.472384,1.140456,63.980000,-9.870000,-9.030000,20.36
96413,0.109312,0.581208,0.923784,50.330002,-3.920000,-7.070000,20.36
96424,0.096624,0.650504,0.728584,24.709999,-2.870000,-16.660000,20.36
96435,0.075640,0.580232,0.719312,-15.470000,3.500000,-21.770000,20.36
96446,0.123952,0.378200,0.856440,-35.209999,14.910000,-14.350000,20.34
96457,0.055144,0.249368,0.981856,-32.830002,6.090000,-14.000000,20.34
96468,0.080520,0.190320,1.088728,-20.930000,2.030000,-7.140000,20.36
96479,0.103456,0.234728,1.149728,-5.110000,-2.730000,-4.760000,20.34
96490,0.118584,0.340136,1.128256,3.220000,-5.740000,-3.430000,20.34
96501,0.126392,0.371368,1.029192,12.600000,-5.600000,-6.160000,20.33
96512,0.132248,0.405528,0.915976,19.459999,-1.610000,-6.510000,20.33
96523,0.091256,0.389424,0.808616,21.209999,5.250000,-8.960000,20.36
96534,0.015128,0.457256,0.805200,11.830000,6.790000,-8.680000,20.34
96545,-0.042944,0.445544,0.854488,4.690000,8.050000,-10.220000,20.34
96556,-0.087352,0.505080,0.924272,-3.150000,8.610000,-5.670000,20.33
96567,-0.095648,0.501176,0.974048,-9.170000,6.440000,-4.340000,20.33
96578,-0.091744,0.458720,0.965264,-8.050000,5.880000,-3.500000,20.36
96589,-0.062952,0.397720,0.859856,-6.440000,7.000000,-5.950000,20.37
96600,-0.205936,0.653432,0.691496,-16.520000,7.700000,-5.320000,20.37
96611,0.019520,0.496784,0.984784,-73.919998,-0.630000,-8.540000,20.36
96622,0.081496,0.310368,0.981368,-94.849998,11.550000,-14.350000,20.36
96633,0.056608,-0.073200,1.043344,-36.959999,15.470000,-27.930000,20.34
96644,-0.079544,0.143960,1.354200,-31.150000,-3.430000,-39.200001,20.34
96655,-0.185440,-0.325008,1.101904,87.570000,18.690001,-11.060000,20.34
96666,-0.178608,0.615368,0.451400,135.660004,0.700000,-25.620001,20.33
96677,-0.100040,0.142496,0.583648,86.309998,14.140000,-43.049999,20.33
96688,-0.451400,0.784216,0.401624,41.439999,14.700000,-10.430000,20.36
96699,-0.411384,1.030168,0.626592,-12.040000,24.219999,4.200000,20.36
96711,-0.386496,0.896456,1.037000,-40.180000,16.240000,9.450000,20.38
96722,-0.488976,0.840336,1.438136,-34.509998,-3.640000,14.840000,20.32
96733,-0.387960,0.698816,1.602104,-13.860000,5.880000,28.209999,20.32
96744,-0.382104,0.744688,1.572824,0.700000,-15.610000,32.270000,20.37
96755,-0.284992,0.740296,1.475712,11.130000,-21.490000,35.770000,20.37
96766,-0.218624,0.652944,1.360544,18.129999,-31.850000,41.860001,20.33
96777,-0.153232,0.593896,1.270264,22.049999,-43.330002,45.220001,20.34
96788,-0.097600,0.599264,1.206824,18.059999,-50.119999,47.740002,20.34
96799,-0.101016,0.517280,1.148752,16.309999,-55.580002,48.230000,20.35
96810,-0.112240,0.540216,1.114104,8.680000,-61.740002,52.290001,20.35
96821,-0.057096,0.575352,1.150704,-6.650000,-67.339996,54.950001,20.38
96834,-0.068320,0.571448,1.258552,-12.740000,-71.120003,53.060001,20.33
96845,-0.061488,0.443104,1.129232,-10.850000,-76.089996,54.529999,20.33
96856,-0.016104,0.399184,1.220000,-9.520000,-81.129997,55.090000,20.34
96867,0.003904,0.317200,1.101904,-7.350000,-82.459999,54.040001,20.34
96878,0.016592,0.290360,0.946720,-3.430000,-84.139999,54.669998,20.35
96889,0.059048,0.380152,0.890112,-7.700000,-84.910004,55.230000,20.33
96900,0.067344,0.368440,0.872544,-10.500000,-84.559998,54.389999,20.33
96911,0.071248,0.380640,0.923296,-12.530000,-86.519997,55.580002,20.34
96922,0.097600,0.371368,0.970144,-12.530000,-88.339996,56.139999,20.34
96933,0.128832,0.360144,0.976976,-10.920000,-89.320000,55.160000,20.35
96944,0.171288,0.165432,0.875472,-2.940000,-84.980003,47.950001,20.37
96955,0.139080,0.227896,0.771528,5.180000,-84.839996,46.619999,20.37
96966,0.151280,0.259128,0.722240,6.090000,-84.559998,47.040001,20.32
96977,0.192272,0.362096,0.658800,1.890000,-81.059998,48.930000,20.32
96988,0.225944,0.374296,0.622200,-8.680000,-76.720001,46.900002,20.35
96999,0.262056,0.376248,0.599752,-16.940001,-71.260002,44.380001,20.36
97010,0.292800,0.260592,0.643672,-17.709999,-66.500000,38.220001,20.36
97021,0.281576,0.194712,0.562664,-11.270000,-58.310001,29.190001,20.35
97032,0.278648,0.063928,0.497760,-3.360000,-52.639999,25.620001,20.35
97043,0.264496,0.136152,0.474824,-0.630000,-45.220001,21.700001,20.37
97054,0.270840,0.108336,0.416264,0.420000,-34.369999,15.330000,20.37
97065,0.290848,0.080032,0.318664,2.660000,-23.799999,6.930000,20.37
97075,0.289384,0.037576,0.252296,3.080000,-10.290000,-1.540000,20.34
97086,0.299632,-0.060024,0.181536,5.530000,4.550000,-10.430000,20.34
97097,0.285968,-0.066856,0.145424,6.510000,17.290001,-19.879999,20.37
97109,0.249856,-0.027328,0.146400,-0.420000,35.700001,-28.280001,20.37
97120,0.214232,-0.064416,0.192760,-5.950000,56.980000,-38.709999,20.40
97131,0.125416,-0.121024,0.315248,-3.360000,78.820000,-49.349998,20.31
97142,0.033184,0.016592,0.595848,2.660000,93.309998,-54.180000,20.31
97153,-0.046848,0.226432,0.966728,-8.470000,101.779999,-53.830002,20.35
97164,-0.080520,0.317688,1.328824,-18.270000,104.650002,-63.070000,20.35
97175,0.021472,0.497272,1.588440,-22.469999,98.559998,-60.619999,20.34
97186,0.173728,0.693936,1.694336,-37.590000,86.519997,-50.680000,20.32
97199,0.429440,0.886696,1.767536,-57.400002,73.570000,-40.320000,20.32
97210,0.525088,1.016504,1.610400,-62.439999,64.540001,-31.850000,20.33
97221,0.626592,0.938424,1.348344,-39.200001,45.290001,-22.820000,20.33
97232,0.753960,0.594872,0.777384,1.120000,39.200001,-28.490000,20.35
97243,0.528016,-0.509472,0.244488,6.790000,61.950001,-94.220001,20.34
97254,0.142984,-0.752496,0.048800,60.970001,74.830002,-118.720001,20.34
97265,-0.516792,0.442128,0.348432,62.580002,99.260002,-71.400002,20.32
97276,-0.714920,0.749568,0.342088,15.960000,94.570000,-10.990000,20.32
97287,-0.364536,0.156648,0.536800,46.130001,63.490002,-6.300000,20.35
97298,-0.177632,0.539728,0.674904,78.820000,38.990002,0.140000,20.34
97309,0.147376,1.018456,0.931592,30.240000,35.840000,-8.260000,20.34
97320,0.228872,0.853512,1.256112,-6.790000,40.110001,-44.520000,20.38
97331,0.210328,0.550464,1.716296,-35.490002,23.940001,-9.030000,20.38
97342,0.067832,0.241072,1.734352,1.540000,-9.240000,-6.370000,20.36
97353,0.076128,0.319152,1.656272,42.070000,-39.480000,5.740000,20.36
97364,0.248880,0.655872,1.341024,40.110001,-0.910000,0.490000,20.34
97374,0.016104,0.667584,1.013576,12.180000,-12.810000,-8.260000,20.35
97385,0.086864,0.402112,0.779824,0.000000,16.309999,-19.250000,20.35
97396,0.025376,0.284016,0.587064,-7.910000,17.290001,-42.000000,20.34
97407,0.028304,0.206424,0.609512,-18.340000,38.290001,-46.130001,20.34
97419,-0.043920,0.183976,0.729072,-20.580000,39.619999,-38.990002,20.34
97432,-0.067344,0.201544,0.927200,-13.440000,24.570000,-21.139999,20.33
97444,0.037576,0.296704,1.109224,-2.660000,26.879999,-9.520000,20.33
97455,0.013664,0.411872,1.116544,2.590000,27.230000,-11.760000,20.37
97467,-0.047336,0.432368,1.135576,5.320000,23.030001,-12.040000,20.36
97479,-0.069296,0.345504,1.074576,5.670000,23.170000,-13.020000,20.36
97490,-0.081496,0.171776,0.948672,10.920000,27.860001,-22.120001,20.39
97501,-0.123952,0.193736,0.855952,16.309999,30.309999,-26.879999,20.39
97512,-0.149328,0.385520,0.843264,9.240000,30.590000,-23.940001,20.39
97523,-0.114192,0.491904,0.816912,18.620001,39.970001,-22.049999,20.32
