timestamp_ms,ax,ay,az,gx,gy,gz,tempC
672963,0.588528,0.329888,0.653920,-32.830002,-63.560001,102.199997,22.29
672974,0.578768,0.351360,0.640256,-33.180000,-64.050003,105.070000,22.29
672986,0.599752,0.359656,0.653920,-43.330002,-63.070000,110.110001,22.30
672997,0.584136,0.272304,0.661240,-59.360001,-60.689999,112.070000,22.23
673009,0.550952,0.259616,0.630496,-67.410004,-62.930000,115.989998,22.23
673022,0.529968,0.320616,0.579256,-83.510002,-63.840000,120.330002,22.27
673033,0.521184,0.241072,0.519720,-104.510002,-63.419998,123.760002,22.27
673044,0.531432,0.127368,0.500688,-111.230003,-62.090000,126.209999,22.29
673056,0.523136,0.080032,0.448472,-118.580002,-58.520000,125.650002,22.25
673067,0.472384,0.018544,0.468480,-116.620003,-58.310001,125.580002,22.25
673078,0.468968,0.031232,0.409920,-114.940002,-58.939999,125.860001,22.25
673089,0.494344,0.006344,0.377712,-123.480003,-55.650002,126.699997,22.25
673100,0.497272,-0.090768,0.328424,-121.589996,-52.709999,125.160004,22.23
673112,0.516304,-0.093696,0.287432,-112.629997,-48.580002,120.400002,22.27
673123,0.508496,-0.102968,0.313296,-106.820000,-41.160000,113.750000,22.27
673134,0.508008,-0.153232,0.352336,-95.760002,-36.610001,109.830002,22.28
673145,0.492392,-0.189832,0.392352,-80.919998,-32.970001,103.040001,22.28
673157,0.462136,-0.197640,0.432368,-72.379997,-30.240000,95.690002,22.28
673168,0.465552,-0.253272,0.491416,-60.970001,-28.070000,90.230003,22.27
673179,0.475312,-0.313784,0.537288,-52.009998,-25.690001,82.599998,22.27
673190,0.471896,-0.434808,0.560712,-42.279999,-24.010000,75.879997,22.27
673201,0.458232,-0.500200,0.580232,-40.389999,-22.610001,68.389999,22.27
673213,0.451888,-0.545096,0.660752,-40.950001,-22.469999,60.340000,22.26
673224,0.460184,-0.580720,0.808616,-48.930000,-20.090000,50.889999,22.27
673235,0.427976,-0.626104,0.934032,-56.490002,-21.700001,38.290001,22.27
673247,0.404552,-0.686128,0.977464,-63.770000,-26.879999,27.160000,22.26
673259,0.396256,-0.855464,0.923296,-66.360001,-32.759998,11.690000,22.27
673270,0.509472,-1.036024,0.671976,-58.660000,-29.610001,2.590000,22.27
673281,1.330288,-1.384456,0.392840,-34.369999,-7.350000,8.680000,22.29
673292,0.590968,-1.199016,0.964776,-24.709999,11.620000,-43.750000,22.29
673303,0.391864,-0.926712,0.994544,-22.820000,-13.160000,-52.639999,22.27
673314,0.372832,-0.962336,0.806664,-28.700001,-21.840000,-70.279999,22.23
673325,0.520696,-1.103368,0.597312,-11.270000,-16.309999,-91.349998,22.23
673336,0.373320,-1.094096,0.417728,23.170000,-20.860001,-129.850006,22.23
673347,0.338672,-0.683688,0.271328,97.300003,-34.509998,-148.119995,22.23
673358,0.672952,-0.588528,0.197152,156.169998,-47.320000,-158.970001,22.29
673369,0.756400,-0.336232,0.197152,236.880005,-55.509998,-177.729996,22.29
673381,0.739808,0.313784,0.318176,288.679993,-67.970001,-174.300003,22.25
673393,0.957944,0.658312,0.251320,293.859985,-74.900002,-152.740005,22.30
673404,1.138992,0.983320,-0.004880,269.290009,-63.000000,-127.540001,22.30
673417,1.168760,1.239520,-0.424072,189.559998,-40.389999,-87.360001,22.32
673428,1.279048,1.210240,-0.762256,115.570000,3.150000,-38.639999,22.25
673439,1.116544,1.341512,-0.905728,24.150000,35.630001,3.220000,22.25
673450,0.948672,1.480104,-0.728584,-29.820000,77.070000,53.270000,22.27
673461,1.142408,1.441064,-0.557784,-92.470001,103.739998,109.059998,22.27
673472,1.138504,1.162904,-0.075152,-137.899994,132.580002,140.979996,22.29
673483,0.858392,0.732000,0.354776,-150.779999,138.110001,177.660004,22.26
673495,0.686128,0.300120,0.895480,-159.460007,116.900002,207.550003,22.26
673506,0.622200,-0.184952,1.189744,-184.869995,96.389999,224.630005,22.26
673517,0.528992,-0.773480,1.376648,-214.690002,87.919998,216.580002,22.26
673528,0.255712,-0.957456,1.394704,-250.389999,81.550003,197.539993,22.26
673539,-0.039528,-1.116544,1.402512,-298.899994,71.540001,168.070007,22.28
673550,-0.261080,-2.553704,1.323456,-322.910004,42.000000,125.230003,22.28
673561,-0.330376,-3.586800,1.220488,-201.039993,27.370001,56.419998,22.29
673573,-0.328912,-3.551176,1.250744,-49.560001,-10.990000,-41.790001,22.29
673584,-0.219600,-2.857240,1.264408,-3.710000,-7.420000,-139.300003,22.28
673595,-0.161040,-2.739144,1.276120,66.639999,-36.540001,-183.119995,22.24
673607,-0.041968,-2.010072,0.842288,111.160004,-48.580002,-243.529999,22.24
673618,0.000000,-1.303936,0.266936,165.899994,-60.549999,-284.200012,22.27
673630,0.113216,-0.601216,-0.220088,233.029999,-72.029999,-303.380005,22.27
673641,0.198616,0.062952,-0.561200,281.399994,-89.599998,-309.260010,22.30
673652,0.306952,0.864248,-0.781776,347.130005,-98.139999,-297.149994,22.29
673663,0.478240,1.876360,-0.964776,388.290009,-117.669998,-259.489990,22.29
673674,0.979904,2.483432,-1.364448,350.279999,-103.949997,-192.080002,22.30
673685,1.579168,2.220400,-1.587952,196.630005,-33.669998,-123.900002,22.30
673698,1.240984,2.320928,-1.277096,60.480000,80.779999,-61.459999,22.31
673712,1.172664,3.052440,-0.671000,-62.930000,109.760002,38.639999,22.28
673722,1.444968,2.902624,-0.328912,-228.690002,186.619995,115.570000,22.28
673733,1.083848,1.600152,0.166408,-271.320007,186.899994,147.490005,22.28
673744,0.819840,0.499712,0.880840,-258.929993,144.479996,216.300003,22.25
673755,0.922808,0.034160,1.465464,-229.110001,102.480003,253.119995,22.25
673766,1.107760,-0.292800,1.489376,-282.170013,103.389999,279.160004,22.25
673777,0.560224,-0.441640,1.280512,-324.660004,82.669998,269.290009,22.25
673788,-0.080520,-0.663192,1.278560,-392.630005,93.940002,231.559998,22.30
673799,-0.658312,-1.935896,1.220976,-381.500000,54.529999,204.259995,22.26
673811,-0.441640,-3.617544,1.068232,-216.580002,15.540000,111.370003,22.26
673822,-0.580232,-3.834216,1.231712,-50.750000,-30.170000,-6.790000,22.27
673833,-0.304024,-3.326696,1.332240,95.129997,-61.110001,-97.230003,22.27
673844,-0.199104,-2.657160,1.343464,145.529999,-69.580002,-164.289993,22.26
673855,-0.165920,-2.165256,1.157048,164.990005,-77.139999,-203.000000,22.23
673866,-0.095648,-1.417640,0.832040,188.509995,-93.029999,-237.229996,22.23
673878,0.218624,-0.789096,0.109800,233.240005,-108.639999,-265.859985,22.29
673889,0.548024,-0.136640,-0.352336,259.140015,-131.039993,-213.500000,22.29
673900,0.498248,0.636840,-0.540216,288.119995,-75.529999,-245.979996,22.28
673911,0.626592,1.391288,-0.552904,312.339996,-80.080002,-213.990005,22.26
673923,0.849608,2.030080,-0.739808,286.790009,-86.309998,-183.259995,22.26
673934,1.135576,1.677256,-0.821304,207.059998,-79.870003,-133.910004,22.28
673945,1.236592,1.405440,-0.829600,194.529999,-26.740000,-85.959999,22.28
673956,1.248792,1.714832,-0.716384,116.129997,0.490000,-24.639999,22.27
673967,1.484496,2.417552,-0.658312,-30.170000,51.939999,29.540001,22.21
673978,1.299056,2.240896,-0.383568,-175.419998,83.300003,97.930000,22.21
673989,1.257088,1.208288,0.026352,-220.990005,135.449997,135.520004,22.27
674000,0.992592,0.477752,0.380152,-214.339996,105.839996,169.820007,22.27
674011,1.077016,0.189344,0.692472,-197.889999,86.519997,201.529999,22.26
674022,0.955016,0.123952,0.869128,-208.809998,71.820000,223.789993,22.26
674033,0.774456,-0.058560,0.846192,-224.770004,57.259998,223.580002,22.25
674044,0.515328,-0.260104,0.885232,-258.510010,65.870003,226.940002,22.19
674055,0.133224,-0.573888,0.957456,-288.049988,81.480003,191.309998,22.19
674066,-0.203496,-1.574776,0.991616,-249.410004,40.040001,164.149994,22.27
674077,-0.154208,-2.487824,1.060912,-130.619995,7.910000,104.580002,22.27
674089,0.001952,-2.464400,1.112640,-13.300000,-14.560000,35.700001,22.29
674100,-0.002440,-2.182336,1.371280,34.160000,-25.690001,-4.760000,22.27
674111,0.083936,-2.090104,1.337608,60.060001,-36.820000,-55.580002,22.27
674122,0.123952,-1.776320,1.269776,73.500000,-43.540001,-95.620003,22.23
674133,0.195688,-1.345416,1.036024,74.269997,-47.040001,-131.669998,22.23
674144,0.147376,-0.880352,0.645624,53.480000,-22.049999,-171.639999,22.27
674156,0.375272,-0.983320,0.379664,121.870003,-44.799999,-159.039993,22.30
674167,0.424560,-0.550952,0.041968,213.009995,-52.779999,-185.570007,22.30
674178,0.470432,0.039528,-0.108824,286.929993,-72.239998,-191.800003,22.23
674189,0.561688,0.565592,-0.034648,366.029999,-92.820000,-184.520004,22.23
674200,0.816912,1.118008,0.021472,430.500000,-108.709999,-161.979996,22.28
674211,1.161928,1.525000,-0.080520,421.750000,-112.629997,-123.410004,22.26
674222,1.345416,1.377624,-0.261568,342.230011,-84.139999,-86.589996,22.26
674233,1.296616,1.042368,-0.365512,215.949997,-45.430000,-46.060001,22.25
674244,0.923784,1.004304,-0.308904,92.750000,-3.080000,-16.100000,22.25
674256,1.052128,1.529392,-0.142984,-39.200001,31.360001,41.509998,22.29
674266,1.121424,1.980792,-0.211304,-198.660004,47.599998,108.430000,22.22
674277,1.317112,1.565504,0.050264,-334.250000,82.529999,143.779999,22.22
674288,1.163880,0.570960,0.284992,-378.000000,80.919998,189.770004,22.27
674299,1.001864,0.051240,0.632936,-345.519989,65.660004,222.110001,22.27
674310,1.047248,0.057096,0.617320,-305.130005,41.299999,236.389999,22.26
674321,0.794464,0.173728,0.660264,-315.279999,47.529999,223.649994,22.26
674332,0.622200,0.106384,0.470920,-315.839996,48.020000,219.380005,22.22
674343,0.181536,-0.275232,0.490928,-328.019989,52.779999,202.089996,22.24
674354,-0.041968,-1.543056,0.439200,-247.940002,34.439999,173.740005,22.24
674365,-0.057584,-2.449272,0.524112,-112.209999,1.470000,107.730003,22.25
674376,-0.018056,-2.366312,0.758352,27.930000,-19.389999,47.810001,22.25
674387,0.105408,-2.170624,0.948672,88.269997,-31.080000,8.260000,22.25
674398,0.177144,-2.049112,1.069696,105.279999,-32.759998,-36.680000,22.25
674409,0.196664,-1.754360,1.144848,94.080002,-27.860001,-72.099998,22.25
674420,0.276696,-1.590392,0.923296,66.709999,-32.270000,-130.970001,22.26
674431,0.380640,-1.378112,0.651968,46.830002,-31.709999,-99.889999,22.26
674442,0.306464,-1.191208,0.337208,80.779999,-10.850000,-146.369995,22.23
674453,0.384544,-0.852048,0.013664,115.430000,-20.650000,-165.830002,22.23
674464,0.439688,-0.757864,-0.137128,175.910004,-34.020000,-193.479996,22.23
674475,0.517280,-0.464576,-0.175192,269.290009,-51.730000,-198.520004,22.28
674486,0.551928,0.254736,-0.045872,331.170013,-73.360001,-200.059998,22.28
674497,0.729560,1.258552,0.168848,354.760010,-76.300003,-182.419998,22.27
674508,1.016992,1.882216,0.255224,316.540009,-72.379997,-146.860001,22.25
674519,1.323456,1.796328,0.028792,191.100006,-53.200001,-98.279999,22.25
674530,1.434232,0.988688,-0.279624,85.470001,0.840000,-55.020000,22.30
674541,1.167784,0.905728,-0.326960,6.230000,31.780001,-4.130000,22.30
674552,1.071160,1.674328,-0.162992,-85.330002,42.139999,54.110001,22.27
674563,1.525488,2.225280,-0.186416,-205.940002,32.130001,126.070000,22.27
674574,1.510848,1.485472,0.260592,-373.239990,90.440002,175.419998,22.25
674585,0.965752,0.481168,0.526064,-391.299988,84.839996,194.600006,22.23
674596,0.804224,-0.254248,0.589504,-315.630005,31.920000,227.360001,22.23
674607,0.895480,-0.160552,0.637328,-265.929993,43.049999,225.750000,22.25
674618,0.705160,0.019032,0.526552,-260.119995,46.900002,215.600006,22.25
674629,0.122976,-0.159576,0.453840,-280.279999,66.570000,195.440002,22.21
674640,-0.241072,-1.813408,0.315248,-235.199997,43.400002,159.460007,22.23
674651,-0.295728,-2.868952,0.449936,-46.830002,10.290000,83.160004,22.23
674662,-0.021472,-2.876760,0.766160,94.430000,-11.970000,23.100000,22.27
674674,0.057584,-2.445856,1.347856,120.190002,-21.280001,-48.090000,22.27
674685,0.072224,-2.170136,1.506456,95.269997,-24.850000,-76.440002,22.22
674696,0.055144,-1.902712,1.448872,62.790001,-24.080000,-117.250000,22.26
674707,0.008784,-1.646512,1.101904,30.030001,-24.430000,-155.750000,22.26
674720,0.336720,-1.300032,0.622200,28.840000,-39.689999,-148.470001,22.26
674732,0.296704,-1.127768,0.207888,84.980003,-9.170000,-197.750000,22.26
674742,0.319640,-0.696376,-0.116632,142.380005,-24.570000,-211.610001,22.24
674753,0.351360,-0.373320,-0.133224,229.460007,-46.270000,-234.639999,22.24
674764,0.423584,0.362584,-0.044896,317.869995,-75.389999,-230.720001,22.24
674775,0.616832,1.192184,0.094184,367.429993,-93.309998,-212.029999,22.27
674786,0.899872,1.948584,0.033184,362.670013,-101.430000,-169.330002,22.27
674797,1.312232,1.926136,-0.245952,257.600006,-90.860001,-133.210007,22.27
674808,1.448872,1.317112,-0.331352,134.470001,-39.619999,-91.699997,22.24
674819,1.238544,1.157536,-0.386008,67.410004,15.400000,-45.009998,22.24
674830,1.077504,1.548912,-0.374784,-9.030000,18.480000,3.570000,22.21
674841,1.340536,2.098400,-0.441640,-143.919998,20.790001,73.220001,22.21
674852,1.423496,1.679208,-0.073200,-254.169998,105.419998,120.190002,22.25
674863,1.109712,0.903776,0.150792,-278.390015,97.720001,145.320007,22.23
674874,0.979904,0.324520,0.384544,-245.419998,57.259998,191.940002,22.23
674885,1.125816,0.271328,0.440176,-204.190002,49.560001,200.830002,22.21
674896,0.879376,0.408944,0.543144,-223.860001,47.389999,213.429993,22.21
674907,0.715408,0.276208,0.511424,-239.679993,58.939999,218.330002,22.23
674918,0.338184,-0.135664,0.520696,-238.350006,64.750000,206.990005,22.23
674929,0.072224,-0.747128,0.622200,-193.270004,37.869999,196.559998,22.22
674940,0.140544,-1.353712,0.682712,-121.519997,25.129999,170.940002,22.22
674951,0.124928,-1.803160,0.803248,-33.320000,12.670000,123.339996,22.22
674962,0.081496,-1.854400,0.974048,19.530001,-3.150000,81.059998,22.23
674973,0.098088,-1.894416,1.139480,46.410000,-13.930000,39.900002,22.23
674984,0.152256,-1.887584,1.282464,38.430000,-18.200001,8.120000,22.26
674995,0.151280,-1.821704,1.330776,13.860000,-17.639999,-27.860001,22.21
675006,0.197640,-1.691896,1.198040,-21.420000,-11.130000,-61.740002,22.21
675017,0.047824,-1.369816,0.953552,-86.099998,29.889999,-90.720001,22.25
675028,0.114680,-1.615280,0.571936,-39.270000,3.920000,-112.419998,22.25
675040,0.255712,-1.200480,0.243512,12.320000,5.390000,-149.729996,22.24
675050,0.427488,-0.971120,0.057096,45.290001,8.890000,-182.699997,22.21
675061,0.403576,-0.843264,-0.032208,124.389999,-4.620000,-207.479996,22.21
675072,0.466528,-0.573400,0.004392,234.289993,-35.070000,-213.990005,22.23
675083,0.546560,-0.136640,0.132736,322.140015,-64.260002,-221.759995,22.23
675094,0.616344,0.552904,0.344040,416.220001,-85.750000,-223.089996,22.26
675105,0.775432,1.215608,0.489464,441.209991,-93.660004,-198.169998,22.18
675116,1.015528,1.516704,0.577792,390.809998,-102.410004,-165.130005,22.18
675127,1.254648,1.039928,0.284504,333.970001,-81.480003,-132.300003,22.24
675138,1.112152,0.769576,-0.244488,235.479996,-45.290001,-104.230003,22.24
675149,0.800808,1.123376,-0.150792,133.770004,-30.450001,-67.059998,22.24
675160,1.182424,1.707512,-0.410408,13.160000,-16.030001,3.570000,22.24
675171,1.077504,2.025688,-0.249368,-179.130005,16.520000,61.950001,22.22
675182,1.306376,1.694336,-0.079544,-281.119995,58.939999,88.620003,22.22
675193,1.161440,0.742248,0.039528,-307.019989,56.980000,131.740005,22.22
675204,1.123376,0.113216,0.161040,-256.269989,51.590000,143.639999,22.23
675215,0.950624,0.009272,0.309880,-175.210007,48.790001,153.440002,22.23
675226,0.891088,0.082960,0.419680,-129.919998,36.259998,167.089996,22.24
675237,0.841800,0.149816,0.436272,-104.510002,31.570000,168.490005,22.23
675247,0.736880,0.071736,0.470432,-115.290001,38.990002,163.589996,22.23
675258,0.581696,-0.182024,0.573400,-112.910004,32.270000,162.960007,22.23
675269,0.522160,-0.381616,0.660752,-96.110001,26.110001,155.050003,22.23
675280,0.531920,-0.483120,0.711504,-98.980003,29.750000,147.839996,22.22
675291,0.479216,-0.615856,0.764208,-112.349998,31.430000,133.490005,22.22
675302,0.406504,-0.777872,0.795928,-119.279999,27.370001,118.930000,22.23
675313,0.359656,-0.972096,0.836432,-117.180000,22.400000,102.410004,22.23
675324,0.474824,-1.108736,0.799344,-109.480003,26.809999,83.510002,22.23
675335,0.218624,-1.458632,0.910120,-97.089996,19.389999,54.529999,22.22
675346,0.269864,-1.566968,0.831552,-67.480003,13.510000,5.040000,22.22
675357,0.294264,-1.616256,0.817400,-46.200001,7.000000,-12.600000,22.23
675368,0.300608,-1.698240,0.684176,-23.520000,5.950000,-49.980000,22.24
675379,0.346480,-1.586488,0.551440,5.600000,10.080000,-85.050003,22.24
675390,0.352824,-1.474248,0.464088,35.910000,11.200000,-114.589996,22.26
675401,0.354288,-1.248304,0.425536,74.830002,3.080000,-146.860001,22.26
675412,0.376736,-0.960872,0.440176,116.550003,-11.480000,-173.669998,22.23
675423,0.464576,-0.669536,0.473848,183.470001,-26.670000,-196.490005,22.23
675434,0.557784,-0.313296,0.517768,253.610001,-47.459999,-207.410004,22.23
675445,0.665632,0.101016,0.573888,324.730011,-62.090000,-205.660004,22.21
675456,0.703696,0.589504,0.645624,399.700012,-83.650002,-193.410004,22.21
675467,0.878888,0.889136,0.547048,424.480011,-94.360001,-172.899994,22.23
675478,1.067256,1.160464,0.381616,380.660004,-85.889999,-138.389999,22.23
675492,1.051152,1.104832,0.004880,242.479996,-53.340000,-97.650002,22.16
675504,1.118984,0.822768,-0.350384,92.540001,3.850000,-59.779999,22.23
675515,0.654408,1.069208,-0.172752,-7.560000,-0.490000,-15.260000,22.23
675526,0.824720,1.746064,-0.243024,-98.629997,13.300000,45.220001,22.21
675537,1.358104,2.200880,-0.202032,-278.040009,44.310001,91.910004,22.23
675548,1.474248,1.358104,-0.027816,-361.410004,73.220001,139.369995,22.23
675559,1.193648,0.282064,0.218624,-344.959991,85.400002,165.199997,22.23
675569,0.887672,-0.111264,0.481168,-240.940002,59.990002,175.839996,22.23
675580,0.853512,0.115656,0.582672,-171.500000,25.480000,186.690002,22.20
675591,1.002840,0.377224,0.570960,-181.160004,24.290001,196.000000,22.23
675602,0.763720,0.180560,0.499712,-210.490005,28.070000,193.199997,22.23
675613,0.618296,0.018056,0.424072,-208.039993,47.110001,186.759995,22.23
675624,0.393328,-0.101016,0.460672,-231.139999,55.580002,171.710007,22.23
675635,0.120536,-0.885232,0.479216,-203.279999,47.950001,158.970001,22.23
675646,0.122000,-1.781688,0.573400,-123.900002,25.830000,122.919998,22.23
675657,0.151280,-1.907592,0.728584,-11.900000,8.260000,76.440002,22.20
675667,0.224968,-1.745576,0.871568,43.680000,-3.640000,47.669998,22.19
675678,0.274744,-1.630896,1.032120,51.939999,-4.900000,11.760000,22.19
675689,0.274744,-1.614304,1.108736,34.720001,-1.820000,-22.330000,22.24
675700,0.254248,-1.509872,1.086288,5.320000,-2.730000,-46.340000,22.24
675711,0.286944,-1.545496,0.915488,-18.200001,1.610000,-76.650002,22.20
675722,0.274256,-1.514264,0.608536,-2.940000,3.990000,-109.129997,22.19
675740,0.299632,-1.189256,0.196176,46.200001,-0.140000,-148.539993,22.23
675752,0.342576,-1.144848,-0.110776,122.639999,-8.890000,-181.440002,22.23
675763,0.411384,-0.764208,0.013664,237.229996,-28.980000,-210.910004,22.18
675773,0.505080,-0.264008,0.128832,319.760010,-51.169998,-224.979996,22.18
675784,0.649040,0.156160,0.436272,406.769989,-72.099998,-224.630005,22.26
675795,0.751520,0.845704,0.668072,457.799988,-81.830002,-210.350006,22.26
675806,0.884744,1.552328,0.863272,437.010010,-78.610001,-168.419998,22.23
675817,1.050664,1.758264,0.510448,345.309998,-78.610001,-132.300003,22.25
675828,1.159000,1.138992,0.116144,188.300003,-37.590000,-96.669998,22.25
675839,0.751520,0.903776,-0.245952,93.449997,-17.150000,-57.959999,22.20
675850,0.983320,1.497672,-0.228384,-20.370001,-4.970000,0.980000,22.20
675861,0.930128,2.050088,-0.029768,-171.149994,15.260000,48.299999,22.25
675872,1.381528,2.067656,0.026352,-274.890015,42.770000,109.059998,22.22
675883,1.376648,1.013576,0.102968,-350.420013,60.900002,143.429993,22.22
675894,1.154120,0.306952,0.305976,-315.209991,62.230000,162.190002,22.20
675904,0.947696,0.083936,0.518744,-237.720001,40.040001,177.520004,22.20
675915,0.821792,0.324520,0.552904,-176.889999,19.180000,188.020004,22.19
675926,0.879864,0.489952,0.435784,-181.160004,10.780000,200.479996,22.19
675937,0.735904,0.235216,0.342088,-195.860001,33.599998,191.520004,22.19
675948,0.581208,-0.198616,0.278160,-186.270004,44.099998,179.690002,22.19
675959,0.297680,-0.428464,0.479704,-156.240005,40.110001,172.199997,22.19
675970,0.221064,-0.965752,0.444080,-114.519997,28.840000,156.029999,22.21
675981,0.241560,-1.331264,0.524112,-36.750000,19.389999,124.529999,22.21
675992,0.276208,-1.331264,0.653432,20.650000,10.710000,99.330002,22.20
676003,0.314272,-1.301496,0.821304,41.090000,9.940000,70.349998,22.19
676014,0.310856,-1.335656,1.079944,30.799999,10.080000,45.290001,22.19
676025,0.299144,-1.393728,1.238056,1.260000,11.340000,21.350000,22.23
676036,0.242048,-1.471808,1.268312,-37.590000,6.230000,0.420000,22.23
676047,0.210328,-1.647000,1.089704,-71.889999,5.320000,-30.590000,22.22
676058,0.202032,-1.789496,0.819352,-101.849998,10.990000,-65.589996,22.21
676069,0.171776,-2.006656,0.563640,-96.879997,23.799999,-101.639999,22.21
676080,0.050752,-2.013488,0.399672,-40.040001,23.590000,-148.259995,22.21
676091,0.054168,-1.748992,0.341112,3.990000,24.570000,-195.160004,22.21
676102,0.064416,-1.525000,0.348920,78.610001,17.990000,-239.820007,22.21
676113,0.103944,-1.083360,0.427488,177.449997,-9.100000,-269.640015,22.21
676124,0.200568,-0.465064,0.557784,256.200012,-48.090000,-296.239990,22.20
676135,0.385520,0.298656,0.742736,350.420013,-78.750000,-301.769989,22.22
676146,0.488488,1.058472,0.883280,403.059998,-105.629997,-283.850006,22.22
676157,0.653432,1.433256,0.743224,347.829987,-122.010002,-249.970001,22.20
676168,0.915488,0.881816,0.175192,296.309998,-107.589996,-209.440002,22.20
676179,0.743224,0.712480,-0.234240,245.630005,-84.559998,-173.809998,22.20
676190,1.052128,1.513776,-0.459208,190.610001,-41.509998,-126.699997,22.22
676201,0.710040,2.481968,-0.303536,73.849998,-44.099998,-44.169998,22.22
676211,1.002840,3.150040,-0.400160,-76.089996,-9.100000,7.630000,22.21
676222,1.561112,2.979240,-0.537776,-279.579987,40.180000,70.000000,22.21
676233,1.358104,1.671400,-0.264008,-334.320007,72.519997,110.599998,22.19
676244,1.114592,0.751520,-0.171776,-246.190002,69.300003,141.679993,22.21
676255,1.063352,0.476288,-0.056608,-159.740005,51.660000,163.169998,22.21
676267,1.046760,0.540216,0.136640,-95.760002,37.869999,183.470001,22.20
676277,1.029680,0.678808,0.266936,-91.699997,35.490002,200.410004,22.20
676288,0.910608,0.620736,0.421632,-124.739998,46.689999,210.139999,22.18
676299,0.708088,0.329400,0.495808,-154.630005,48.090000,219.729996,22.18
676310,0.512400,0.077592,0.620248,-169.259995,51.730000,223.020004,22.18
676321,0.408456,-0.166896,0.647088,-172.339996,35.700001,229.250000,22.19
676332,0.306464,-0.543144,0.696376,-154.910004,36.610001,212.800003,22.19
676343,0.287432,-0.821792,0.622688,-130.899994,28.070000,195.160004,22.18
676354,0.144448,-1.022360,0.702720,-90.230003,23.799999,167.509995,22.18
676365,0.063928,-1.199016,0.706136,-38.849998,12.950000,142.940002,22.20
676376,0.079056,-1.440088,0.833992,-9.940000,9.170000,111.019997,22.21
676387,0.112240,-1.636264,0.979416,18.129999,5.180000,62.720001,22.21
676397,0.094672,-1.727520,1.068720,12.600000,0.630000,54.599998,22.20
676408,0.158112,-1.878800,1.202432,3.010000,0.070000,18.620001,22.20
676419,0.203008,-1.922720,1.232200,-37.310001,-1.050000,-31.780001,22.20
676430,0.141520,-2.001776,1.091168,-68.879997,-0.140000,-55.439999,22.23
676441,0.107360,-2.066680,0.801784,-72.940002,7.210000,-102.550003,22.23
676452,0.074176,-1.987624,0.486536,-50.750000,15.330000,-151.759995,22.23
676463,0.016104,-1.950536,0.194712,6.650000,16.799999,-193.410004,22.23
676474,0.016592,-1.717272,0.099552,108.010002,7.700000,-241.639999,22.22
676485,0.029768,-1.204872,0.171288,201.809998,-15.960000,-285.459991,22.22
676496,0.124928,-0.717848,0.322568,324.940002,-48.090000,-315.700012,22.19
676508,0.276696,-0.087352,0.596336,441.559998,-101.290001,-329.769989,22.20
676519,0.427000,0.733952,0.698816,532.770020,-146.649994,-323.890015,22.20
676530,0.589992,1.709464,0.647576,544.809998,-157.779999,-273.209991,22.23
676541,0.760304,1.755824,0.710528,445.269989,-159.809998,-233.100006,22.23
676552,0.920856,0.966728,-0.259128,279.579987,-107.730003,-193.410004,22.20
676563,0.620248,0.967216,-1.226832,200.759995,-51.660000,-145.949997,22.18
676574,0.637328,1.513776,-0.772992,59.990002,-36.680000,-84.910004,22.18
676585,0.588040,2.590792,-1.076528,-61.389999,-12.180000,-17.010000,22.19
676596,1.445944,3.395992,-0.940376,-269.079987,51.869999,46.200001,22.19
676607,1.498648,2.196000,-0.475312,-369.739990,82.739998,83.160004,22.20
676618,1.132648,0.751032,-0.045384,-301.980011,89.529999,111.160004,22.19
676630,1.030656,0.418216,0.137128,-157.710007,77.980003,141.679993,22.19
676641,1.054568,0.507520,0.363072,-77.980003,55.160000,166.250000,22.19
676652,0.969656,0.574376,0.470432,-55.090000,49.630001,178.710007,22.19
676664,0.841312,0.549976,0.534848,-65.029999,48.930000,185.639999,22.21
676675,0.804712,0.525576,0.582184,-91.910004,58.520000,192.850006,22.19
676686,0.524112,0.476776,0.652456,-129.990005,49.279999,209.089996,22.19
676697,0.518744,0.271816,0.752008,-178.990005,48.650002,222.320007,22.24
676708,0.373320,0.049776,0.768600,-206.080002,35.070000,221.690002,22.24
676719,0.369904,-0.312320,0.698328,-194.389999,33.110001,217.070007,22.18
676731,0.314760,-0.616832,0.637328,-152.529999,21.980000,203.979996,22.19
676745,0.284992,-0.688568,0.624152,-100.099998,11.900000,183.399994,22.19
676756,0.319152,-0.588528,0.620736,-86.870003,24.780001,157.710007,22.16
676767,0.297680,-0.764696,0.593408,-84.000000,25.410000,151.339996,22.19
676778,0.162504,-1.277096,0.649528,-38.220001,26.809999,120.330002,22.19
676788,0.181048,-1.525488,0.671976,-15.260000,17.920000,87.500000,22.19
676799,0.177144,-1.780224,0.801296,-5.460000,17.570000,57.820000,22.19
676810,0.193736,-2.138904,0.926224,-14.630000,20.090000,15.260000,22.20
676821,0.155184,-2.200880,1.048712,-31.639999,21.770000,-30.030001,22.20
676834,0.121024,-2.271152,0.853024,-53.480000,25.480000,-79.099998,22.16
676845,0.067832,-2.245288,0.589992,-38.009998,32.200001,-133.210007,22.13
676856,0.012688,-2.116944,0.352336,-2.240000,34.299999,-185.990005,22.13
676867,0.001952,-1.892952,0.142008,74.760002,33.740002,-232.330002,22.19
676878,-0.030256,-1.567944,0.035624,201.389999,22.260000,-268.450012,22.18
676889,-0.011712,-0.920368,0.091256,361.059998,-17.639999,-306.529999,22.18
676901,0.117608,-0.045384,0.312808,486.429993,-76.230003,-327.809998,22.18
676912,0.278648,0.938424,0.717360,603.190002,-137.059998,-320.809998,22.18
676923,0.715408,1.513288,1.051640,640.640015,-169.259995,-296.940002,22.18
676934,0.987224,2.029592,0.832040,557.830017,-140.490005,-237.720001,22.18
676945,0.901824,1.267336,0.050264,434.980011,-137.059998,-177.940002,22.18
676956,0.611464,0.886696,-0.210328,329.980011,-104.720001,-141.960007,22.16
676967,0.231312,2.026664,-0.459208,191.729996,-63.980000,-98.699997,22.16
676978,0.883768,3.456504,-1.129720,-66.220001,-40.389999,10.360000,22.16
676989,1.187304,3.402336,-0.951112,-395.920013,5.740000,62.860001,22.16
677000,1.525000,2.233576,-0.535824,-428.959991,80.290001,76.580002,22.17
677011,1.120448,0.915000,-0.343064,-352.730011,72.029999,130.059998,22.15
677022,1.010648,0.655384,0.058560,-179.130005,57.470001,155.889999,22.15
677032,0.988688,0.940376,0.137616,-79.589996,40.180000,181.160004,22.23
677043,0.924272,1.015040,0.214232,-72.379997,34.439999,198.729996,22.23
677054,0.838384,0.728584,0.274744,-77.419998,49.700001,201.949997,22.18
677065,0.632936,0.598288,0.345992,-112.629997,65.449997,205.100006,22.16
677076,0.365512,0.413336,0.481656,-147.699997,52.430000,215.949997,22.16
677087,0.354776,0.117608,0.666608,-195.789993,59.360001,227.009995,22.18
677097,0.323544,-0.248392,0.775920,-208.949997,47.810001,229.529999,22.18
677108,0.252296,-0.390400,0.859856,-199.500000,41.299999,226.729996,22.17
677119,0.322080,-0.454328,0.828624,-202.229996,36.540001,218.679993,22.17
677130,0.345016,-0.529968,0.760304,-200.270004,26.110001,206.429993,22.16
677141,0.298168,-0.651480,0.726632,-201.669998,27.370001,189.419998,22.18
677152,0.246440,-0.989664,0.621712,-194.389999,26.950001,163.100006,22.18
677163,0.115168,-1.213168,0.563152,-160.649994,23.870001,138.179993,22.18
677174,0.103456,-1.688968,0.530944,-104.650002,15.190000,103.180000,22.18
677186,0.131760,-1.921256,0.537776,-45.009998,6.090000,61.320000,22.21
677196,0.151768,-1.919304,0.686616,-0.420000,1.050000,21.840000,22.16
677207,0.233264,-1.928088,0.899872,9.100000,4.760000,-9.170000,22.16
677218,0.259616,-1.905640,1.025288,-4.480000,6.860000,-46.759998,22.17
677229,0.218136,-1.906616,0.992104,-25.620001,6.720000,-84.559998,22.17
677240,0.202032,-1.826096,0.848144,-43.540001,7.840000,-113.820000,22.15
677251,0.162992,-1.728008,0.667096,-51.169998,10.570000,-149.240005,22.16
677263,0.118096,-1.601616,0.462136,-33.389999,16.799999,-185.990005,22.16
677274,0.104432,-1.425936,0.228872,20.510000,18.059999,-221.970001,22.20
677284,0.093208,-1.190232,0.084424,113.540001,9.030000,-248.570007,22.20
677295,0.075640,-0.793000,0.087352,241.149994,-19.320000,-279.089996,22.18
677306,0.205936,-0.203008,0.190320,352.869995,-64.120003,-299.880005,22.18
677318,0.351848,0.464576,0.455304,465.429993,-104.230003,-302.540009,22.18
677328,0.623176,0.957456,0.661728,542.219971,-139.580002,-291.899994,22.13
677339,0.809592,1.412272,0.707112,556.289978,-135.449997,-253.470001,22.13
677351,0.848144,1.114104,0.309392,552.510010,-133.839996,-209.300003,22.20
677362,0.767136,1.458632,-0.228872,506.380005,-113.610001,-150.570007,22.20
677373,0.501176,1.723128,-0.454816,319.339996,-103.459999,-107.519997,22.16
677384,0.887184,2.143784,-0.579744,99.050003,-45.570000,-72.239998,22.17
677395,0.756888,2.742072,-0.854488,-203.699997,3.010000,15.540000,22.17
677406,1.209264,2.850896,-0.891576,-448.279999,48.930000,29.889999,22.17
677417,1.610400,1.865136,-0.715408,-530.460022,90.510002,107.800003,22.17
677428,1.054080,0.751520,-0.325984,-480.970001,81.760002,145.320007,22.19
677439,0.974536,0.450424,0.058560,-331.029999,76.790001,170.520004,22.13
677450,0.973072,0.621224,0.205448,-233.800003,53.130001,212.449997,22.13
677461,0.962336,0.726632,0.292312,-182.350006,35.770000,212.940002,22.19
677472,0.899384,0.642696,0.342088,-170.029999,38.639999,218.470001,22.19
677483,0.745176,0.464088,0.367952,-167.160004,44.380001,219.660004,22.17
677494,0.572424,0.167872,0.358192,-165.970001,52.290001,220.639999,22.17
677505,0.436760,-0.121024,0.460672,-164.500000,49.490002,219.520004,22.16
677515,0.329400,-0.369416,0.526552,-157.779999,47.250000,218.190002,22.16
677526,0.288896,-0.685152,0.545096,-143.639999,44.029999,204.539993,22.16
677538,0.225944,-0.885232,0.532408,-126.910004,42.209999,182.910004,22.13
677548,0.155184,-1.065792,0.681248,-97.930000,36.189999,157.009995,22.13
677559,0.118584,-1.359568,0.771528,-76.510002,31.990000,134.330002,22.16
677570,0.073200,-1.698728,0.891088,-50.259998,27.090000,99.400002,22.16
677581,0.033672,-1.954440,1.036024,-28.840000,20.020000,60.060001,22.16
677592,0.051728,-2.114016,1.106296,-24.780001,14.210000,26.040001,22.20
677603,0.042456,-2.207712,1.179984,-33.880001,11.620000,-19.250000,22.20
677614,0.010736,-2.181848,1.122400,-49.070000,9.240000,-66.709999,22.15
677625,0.056608,-2.251632,0.887184,-61.389999,13.230000,-122.080002,22.14
677637,0.032208,-2.220400,0.634400,-34.160000,19.600000,-156.660004,22.14
677648,-0.039040,-1.803160,0.484584,2.030000,17.150000,-203.070007,22.17
677659,-0.014640,-1.527928,0.321104,35.419998,17.010000,-243.460007,22.17
677670,-0.001952,-1.254160,0.257664,117.320000,10.710000,-281.049988,22.16
677681,-0.015616,-0.921344,0.296704,224.490005,-12.950000,-304.709991,22.12
677692,0.045872,-0.522648,0.473360,311.220001,-57.889999,-324.869995,22.12
677703,0.189344,-0.128344,0.523624,435.679993,-100.099998,-336.769989,22.16
677714,0.345504,0.443104,0.602192,523.950012,-148.050003,-329.839996,22.16
677725,0.508496,1.410320,0.374296,553.559998,-150.080002,-291.480011,22.18
677735,0.502152,1.864648,-0.113216,535.780029,-148.119995,-242.059998,22.18
677747,0.646112,2.186240,-0.277184,481.529999,-145.039993,-168.350006,22.18
677760,0.996984,2.540528,-0.572912,245.279999,-54.529999,-112.699997,22.19
677771,1.046272,2.479040,-0.928176,-2.170000,-19.389999,-45.430000,22.19
677782,0.660752,2.724992,-0.875472,-146.160004,8.470000,1.680000,22.19
677793,1.297592,2.979240,-0.856440,-292.880005,63.490002,58.029999,22.16
677804,1.332240,2.213080,-0.710528,-387.170013,83.580002,108.220001,22.16
677815,1.034072,1.232200,-0.313296,-322.420013,70.769997,151.759995,22.18
677826,1.054080,0.960384,-0.192272,-228.339996,70.279999,185.220001,22.18
677837,1.017480,1.002352,-0.032208,-157.289993,59.849998,214.899994,22.16
677848,0.795928,0.806176,0.104432,-130.830002,52.009998,232.470001,22.16
677859,0.689056,0.433832,0.260592,-115.080002,58.730000,240.169998,22.16
677870,0.605608,0.231312,0.394304,-114.870003,62.369999,245.419998,22.12
677881,0.376736,0.231312,0.563640,-126.559998,64.610001,243.529999,22.12
677891,0.390888,0.203496,0.532408,-155.750000,55.509998,264.179993,22.15
677903,0.302560,0.054168,0.610000,-200.059998,71.260002,263.200012,22.15
677913,0.155184,-0.308904,0.645136,-231.559998,59.220001,264.250000,22.21
677925,0.113216,-0.700280,0.700280,-202.860001,57.400002,247.660004,22.11
677936,0.035624,-0.844240,0.685152,-173.809998,43.540001,225.119995,22.11
677946,0.040504,-1.058960,0.584136,-157.220001,40.180000,204.330002,22.16
677958,-0.002440,-1.519144,0.555344,-138.039993,39.060001,168.630005,22.16
677969,-0.075640,-1.944680,0.589504,-87.150002,36.820000,125.440002,22.16
677980,-0.034160,-2.133536,0.725168,-45.709999,46.619999,78.050003,22.14
677990,-0.143960,-2.493192,0.985760,4.620000,19.950001,34.720001,22.14
678001,0.020496,-2.382904,1.129232,18.059999,13.370000,-14.630000,22.14
678012,0.117608,-2.306288,1.219024,-9.240000,10.850000,-52.919998,22.14
678023,0.116632,-2.291160,1.149240,-36.119999,13.440000,-102.339996,22.15
678034,0.055632,-2.166232,0.920856,-39.759998,15.400000,-147.559998,22.15
678045,-0.017080,-1.768512,0.667584,-26.670000,15.400000,-188.440002,22.15
678057,-0.005856,-1.410320,0.355264,-1.610000,16.799999,-225.889999,22.16
678068,0.014152,-1.272216,0.201056,64.330002,7.560000,-253.330002,22.16
678079,0.080032,-0.928664,0.104432,164.570007,-8.050000,-284.059998,22.13
678090,0.136640,-0.488000,0.164944,269.850006,-43.680000,-307.510010,22.13
678101,0.193736,-0.056120,0.335744,419.510010,-81.690002,-319.970001,22.14
678112,0.337696,0.570472,0.504592,551.460022,-128.869995,-312.269989,22.12
678123,0.569008,1.161440,0.483120,629.859985,-147.350006,-295.890015,22.12
678134,0.624152,1.782176,0.291824,660.239990,-142.240005,-240.100006,22.13
678145,0.696864,1.717272,0.115168,583.169983,-146.300003,-191.100006,22.13
678156,0.854488,1.390312,-0.518744,458.570007,-111.089996,-139.789993,22.19
678167,0.610488,1.551352,-0.722240,304.290009,-72.589996,-98.769997,22.19
678178,0.812520,2.135976,-0.691008,90.510002,-18.340000,-37.450001,22.19
678189,0.946720,2.950448,-0.820328,-232.050003,13.790000,21.280001,22.11
678200,1.182424,2.654232,-0.749568,-447.859985,76.230003,27.650000,22.11
678211,1.305888,1.423008,-0.574376,-501.760010,90.370003,100.379997,22.17
678222,0.932568,0.711992,-0.142496,-435.470001,75.110001,135.309998,22.16
678233,1.093120,0.554856,0.081008,-330.890015,87.150002,158.970001,22.16
678244,0.878400,0.594872,0.160552,-278.459991,69.160004,189.000000,22.11
678255,0.903288,0.465552,0.299144,-230.649994,63.910000,200.130005,22.11
678266,0.779336,0.240584,0.331840,-181.580002,50.889999,210.210007,22.12
678277,0.758840,0.278160,0.379664,-157.080002,54.389999,204.119995,22.12
678287,0.545584,0.320616,0.430904,-166.740005,57.330002,206.009995,22.16
678298,0.488488,0.067832,0.519232,-182.839996,59.570000,214.619995,22.09
678309,0.380640,-0.333304,0.586088,-189.839996,58.590000,211.050003,22.09
678320,0.318664,-0.623664,0.620736,-164.990005,52.919998,202.720001,22.14
678331,0.296704,-0.808616,0.660264,-138.320007,41.439999,184.309998,22.14
678342,0.263032,-0.880352,0.657336,-99.959999,34.650002,165.410004,22.14
678353,0.222040,-0.913048,0.773968,-83.790001,30.379999,149.309998,22.14
678364,0.166408,-1.118496,0.830088,-70.489998,32.970001,123.269997,22.14
678375,0.105408,-1.343952,0.915976,-57.119999,30.170000,92.050003,22.16
678387,0.101504,-1.638704,0.997960,-38.570000,21.770000,58.799999,22.16
678397,0.119560,-1.787056,1.099464,-16.940001,14.070000,23.379999,22.14
678408,0.155184,-1.793888,1.141920,-8.540000,6.090000,-5.950000,22.11
678420,0.198128,-1.841224,1.113616,-9.240000,2.520000,-41.160000,22.11
678431,0.203008,-1.796328,1.022848,-3.290000,0.560000,-80.080002,22.16
678442,0.196664,-1.673840,0.869616,4.900000,3.430000,-119.839996,22.16
678453,0.169336,-1.474248,0.690520,26.250000,0.560000,-147.279999,22.13
678464,0.184464,-1.324920,0.514840,67.129997,-5.600000,-182.279999,22.13
678475,0.221064,-1.049688,0.405528,144.339996,-17.219999,-214.830002,22.12
678486,0.229360,-0.789096,0.434320,242.619995,-43.049999,-238.559998,22.13
678498,0.324520,-0.449936,0.526552,361.059998,-72.870003,-258.579987,22.13
678510,0.403576,0.121024,0.599752,473.619995,-104.230003,-267.399994,22.13
678521,0.511424,0.520208,0.590968,547.750000,-130.270004,-255.919998,22.09
678532,0.630496,0.944280,0.595360,553.840027,-136.639999,-228.199997,22.09
678543,0.672952,1.042856,0.463112,518.840027,-128.660004,-188.089996,22.13
678553,0.589992,1.055056,0.303048,447.649994,-125.089996,-154.630005,22.13
678564,0.521672,1.595760,-0.074176,296.029999,-114.239998,-105.000000,22.15
678575,0.982832,1.926624,-0.509472,91.629997,-52.849998,-61.250000,22.15
678587,0.522160,1.835856,-0.577792,-159.669998,-23.379999,-12.880000,22.15
678598,0.944280,2.087664,-0.767624,-298.829987,-2.660000,25.480000,22.11
678609,1.247328,1.902712,-0.567056,-430.570007,45.080002,64.470001,22.11
678620,1.201456,1.086776,-0.208376,-428.399994,66.919998,98.629997,22.15
678631,1.030656,0.434320,0.011712,-358.959991,65.730003,127.750000,22.15
678642,0.966240,0.462624,0.162016,-266.420013,57.049999,142.589996,22.15
678653,0.984784,0.549976,0.248392,-218.679993,43.049999,157.850006,22.12
678663,0.980392,0.528992,0.282064,-182.770004,42.000000,166.880005,22.12
678674,0.898896,0.448472,0.326472,-166.250000,48.299999,173.179993,22.15
678685,0.764208,0.272792,0.405528,-158.550003,55.650002,172.410004,22.15
678696,0.647088,0.152256,0.441640,-159.250000,54.389999,176.610001,22.16
678707,0.466528,-0.224968,0.573400,-151.199997,50.959999,173.809998,22.16
678718,0.382104,-0.519720,0.655384,-133.979996,41.650002,163.520004,22.08
678729,0.462136,-0.706624,0.746640,-116.900002,40.950001,152.179993,22.09
678739,0.352824,-0.871568,0.853024,-98.070000,35.630001,133.210007,22.09
678752,0.317200,-0.954040,1.001376,-86.589996,28.770000,115.779999,22.12
678763,0.283040,-1.058960,1.068232,-88.339996,21.209999,98.629997,22.11
678774,0.237168,-1.204384,1.086288,-92.959999,13.510000,74.760002,22.11
678788,0.174216,-1.382504,1.056032,-100.870003,8.750000,41.020000,22.12
678799,0.160552,-1.531832,1.025288,-94.570000,6.650000,5.810000,22.12
678809,0.159576,-1.613816,0.996496,-78.540001,0.490000,-22.400000,22.11
678820,0.194224,-1.702144,0.912560,-51.380001,-2.870000,-60.619999,22.07
678832,0.241072,-1.493280,0.817888,-20.160000,0.140000,-98.419998,22.07
678843,0.256688,-1.405928,0.785680,2.380000,-4.130000,-124.320000,22.11
678854,0.266936,-1.312720,0.762256,37.310001,-11.690000,-157.710007,22.11
678865,0.275720,-1.155584,0.755424,74.059998,-24.219999,-189.559998,22.15
678876,0.301584,-0.939400,0.714920,128.520004,-37.380001,-214.479996,22.18
678887,0.342576,-0.719312,0.696864,195.300003,-56.980000,-231.979996,22.18
678898,0.364048,-0.531432,0.660264,255.009995,-81.690002,-245.350006,22.14
678909,0.400648,-0.406016,0.559736,349.859985,-103.669998,-257.950012,22.14
678920,0.463600,-0.135176,0.268888,461.230011,-129.990005,-258.859985,22.13
678931,0.477264,0.326960,0.054168,561.609985,-162.399994,-255.149994,22.13
678942,0.649528,1.035048,-0.149328,612.919983,-172.899994,-225.399994,22.13
678953,0.778360,1.654320,-0.132736,587.159973,-171.919998,-179.619995,22.11
678964,1.271240,1.988112,0.020008,448.630005,-126.349998,-132.720001,22.11
678975,0.619272,1.704096,-0.104920,233.869995,-104.720001,-81.550003,22.13
678986,0.236680,1.455216,-0.388936,130.130005,-84.769997,-64.470001,22.13
678997,0.388936,1.538176,-1.046272,-34.090000,-28.629999,-37.520000,22.13
679008,0.571936,1.939800,-1.312232,-263.130005,17.150000,13.020000,22.09
679019,0.880352,2.102304,-1.297104,-408.660004,78.680000,66.430000,22.09
679029,1.075552,1.705072,-1.056520,-500.429993,127.470001,98.910004,22.14
679040,0.925736,0.925736,-0.762744,-485.869995,173.250000,128.660004,22.14
679051,0.764696,0.533384,-0.359656,-425.109985,184.240005,153.649994,22.11
679062,0.715408,0.577792,0.053192,-336.559998,175.210007,176.889999,22.10
679073,0.672464,0.673440,0.305488,-275.519989,164.639999,194.110001,22.10
679084,0.636352,0.601704,0.559248,-252.979996,173.600006,217.000000,22.11
679095,0.521184,0.287920,0.649528,-240.169998,172.059998,230.440002,22.11
679108,0.401624,-0.173240,0.595360,-223.860001,160.020004,231.210007,22.12
679119,0.351848,-0.418216,0.548512,-212.309998,143.919998,236.320007,22.09
679130,0.178120,-0.588040,0.759328,-223.300003,143.779999,227.779999,22.09
679141,-0.073200,-0.973560,0.903288,-224.979996,128.800003,213.990005,22.08
679152,-0.187880,-1.510848,1.057984,-184.309998,100.519997,182.630005,22.08
679163,-0.223992,-1.848056,1.186816,-129.149994,78.680000,136.990005,22.09
679174,-0.220088,-1.966640,1.243912,-82.110001,56.840000,97.650002,22.15
679185,-0.231312,-2.268224,1.337608,-25.480000,35.980000,42.560001,22.15
679196,-0.227896,-2.418528,1.434232,5.810000,17.010000,-16.309999,22.10
679207,-0.134200,-2.311168,1.551352,13.370000,3.080000,-77.629997,22.10
679218,-0.041968,-2.294088,1.468392,27.860001,-23.730000,-105.139999,22.11
679229,-0.040504,-2.002264,1.299056,47.599998,-44.450001,-159.039993,22.11
679240,0.040504,-1.535248,1.110200,55.720001,-60.340000,-196.210007,22.14
679251,0.122488,-1.352248,0.830088,74.059998,-73.150002,-232.190002,22.07
679262,0.180560,-1.193160,0.593408,150.149994,-90.160004,-257.040009,22.07
679273,0.219112,-0.794464,0.397232,280.420013,-123.900002,-279.720001,22.13
679285,0.240584,-0.241560,0.277184,374.850006,-168.979996,-292.109985,22.13
679296,0.331840,0.273768,0.080032,518.000000,-207.690002,-288.959991,22.07
679307,0.562176,0.737856,-0.149816,656.669983,-254.029999,-271.670013,22.09
679318,1.257576,1.123376,-0.299144,765.869995,-236.389999,-234.220001,22.09
679329,1.149240,1.689456,-0.368440,776.510010,-216.089996,-170.449997,22.11
679340,1.141920,2.181848,-0.241072,655.760010,-171.500000,-101.500000,22.11
679351,0.796416,1.694824,-0.379176,452.410004,-151.339996,-73.709999,22.13
679362,0.272304,1.192672,-0.505080,303.239990,-86.589996,-50.330002,22.11
679373,-0.076128,1.729960,-0.860832,106.959999,-51.590000,-8.750000,22.11
679384,0.428464,2.355576,-1.347856,-229.320007,3.290000,46.060001,22.12
679395,0.976000,2.179408,-1.530368,-508.269989,75.599998,97.440002,22.12
679406,1.146800,1.272216,-1.472784,-583.169983,137.270004,135.660004,22.14
679417,0.941840,0.610976,-0.922808,-564.270020,190.399994,141.399994,22.07
679427,0.702232,0.367464,-0.457256,-464.660004,187.460007,160.509995,22.07
679438,0.658312,0.694424,-0.092232,-386.540009,164.080002,195.649994,22.12
679449,0.707600,0.801296,0.136152,-324.380005,162.539993,223.509995,22.12
679460,0.711992,0.637328,0.183488,-283.709991,174.509995,242.339996,22.10
679471,0.629032,0.561688,0.227408,-263.339996,179.970001,252.770004,22.10
679482,0.489952,0.442616,0.160552,-258.230011,183.539993,264.040009,22.10
679493,0.248392,-0.009760,0.205936,-257.040009,181.720001,272.160004,22.11
679503,0.076128,-0.518256,0.484096,-246.399994,176.539993,274.049988,22.11
679514,-0.114680,-0.934520,0.831552,-224.559998,169.750000,253.190002,22.10
679525,-0.338672,-1.337120,1.036024,-164.429993,126.139999,233.309998,22.10
679537,-0.338184,-1.447408,1.138016,-129.570007,90.860001,201.600006,22.11
679548,-0.396256,-1.867088,1.092632,-88.059998,70.070000,153.860001,22.06
679559,-0.398696,-2.203320,1.132160,-28.280001,46.830002,95.970001,22.06
679570,-0.368440,-2.410720,1.226832,24.010000,26.389999,45.290001,22.07
679581,-0.379176,-2.397544,1.431792,41.160000,2.450000,-13.370000,22.07
679592,-0.316712,-2.163792,1.530856,35.910000,-13.860000,-67.199997,22.13
679603,-0.221064,-2.114504,1.388360,10.360000,-26.950001,-107.169998,22.09
679614,-0.399184,-1.773880,1.310280,-20.580000,-27.370001,-175.419998,22.09
679625,-0.075640,-1.936872,0.836432,39.619999,-41.509998,-201.880005,22.11
679636,-0.100528,-1.361032,0.586088,87.430000,-60.830002,-242.759995,22.11
679647,0.012688,-1.060424,0.426512,163.589996,-79.660004,-268.170013,22.04
679658,0.103944,-0.601704,0.302072,259.980011,-110.669998,-300.369995,22.04
679669,0.213744,-0.005368,0.265472,412.089996,-146.929993,-313.109985,22.08
679680,0.431880,0.489464,0.209352,589.330017,-210.910004,-303.100006,22.08
679691,0.691496,1.274656,0.210328,737.940002,-265.440002,-279.859985,22.08
679702,1.166808,1.671888,0.062952,804.789978,-260.190002,-223.300003,22.10
679713,1.646024,2.155984,-0.182512,681.309998,-185.710007,-127.889999,22.10
679724,1.073600,1.642120,-0.077592,459.130005,-151.550003,-88.269997,22.12
679735,0.286944,1.384944,-0.163968,247.380005,-69.440002,-76.860001,22.09
679746,-0.385032,2.208200,-0.308416,48.230000,-42.560001,-2.030000,22.09
679758,0.482144,3.273504,-1.073112,-290.779999,1.120000,104.650002,22.14
679769,1.281000,2.804536,-1.357128,-594.650024,85.540001,165.690002,22.14
679780,1.275632,1.107272,-1.088728,-578.619995,172.270004,184.940002,22.04
679791,0.731512,0.060024,-0.549000,-437.570007,172.899994,171.639999,22.08
679802,0.653432,0.238144,0.116144,-287.559998,129.080002,181.020004,22.08
679813,0.639768,0.591944,0.276208,-182.559998,120.120003,206.850006,22.08
679824,0.711016,0.526552,0.249856,-143.360001,126.000000,212.100006,22.08
679835,0.636840,0.343552,0.291824,-136.919998,147.699997,205.660004,22.08
679846,0.467504,0.158112,0.361608,-152.809998,151.970001,208.600006,22.06
679857,0.154208,-0.146888,0.495808,-161.630005,145.949997,209.509995,22.06
679868,0.046360,-0.569984,0.835456,-164.570007,131.669998,211.330002,22.12
679879,0.012688,-0.929152,1.082384,-162.960007,119.769997,205.309998,22.12
679890,0.009272,-1.117032,1.272216,-153.649994,108.919998,187.740005,22.08
679901,0.000976,-1.127768,1.358592,-147.630005,97.230003,162.539993,22.08
679912,-0.117608,-1.036512,1.336632,-156.029999,68.110001,138.039993,22.08
679923,-0.113704,-1.471808,1.213656,-149.240005,52.639999,108.150002,22.11
679934,-0.179584,-1.797792,1.091656,-108.919998,34.160000,71.400002,22.11
679946,-0.267912,-1.855376,0.996496,-82.809998,27.860001,11.620000,22.08
679957,-0.185928,-2.187704,0.895968,-13.090000,11.550000,-35.070000,22.08
679968,-0.226920,-1.959320,0.945744,27.230000,-9.100000,-88.550003,22.09
679979,-0.141032,-1.900272,0.936472,52.290001,-11.830000,-132.369995,22.07
679991,-0.209840,-1.780224,0.893040,91.910004,-28.070000,-182.419998,22.07
680002,-0.169824,-1.474736,0.807152,132.369995,-50.610001,-211.960007,22.05
680013,-0.038064,-1.215120,0.661240,193.059998,-71.260002,-250.880005,22.07
680024,0.085400,-0.778848,0.614392,254.660004,-95.269997,-280.700012,22.07
680035,0.196176,-0.307928,0.633424,340.200012,-117.110001,-299.670013,22.09
680046,0.299144,0.049288,0.575840,452.899994,-149.800003,-308.140015,22.09
680057,0.302072,0.502640,0.436272,612.080017,-217.279999,-295.119995,22.07
680069,0.926712,1.138992,0.014152,710.849976,-241.080002,-251.509995,22.07
680080,1.014064,1.912960,0.284992,702.380005,-238.979996,-180.110001,22.09
680091,1.169248,2.436096,0.050752,556.919983,-179.690002,-128.029999,22.07
680101,0.886696,1.918328,-0.050752,295.820007,-145.809998,-83.510002,22.07
680113,0.269864,1.291736,-0.061488,174.369995,-96.669998,-50.820000,22.07
680124,0.042944,2.050576,-0.587552,49.560001,-72.800003,4.900000,22.07
680135,0.620248,2.649352,-1.105808,-223.300003,-23.730000,60.759998,22.06
680146,1.047736,2.219912,-1.234640,-388.290009,38.290001,124.809998,22.00
680157,1.091656,1.116544,-1.046272,-426.019989,95.830002,140.070007,22.00
680168,0.886696,0.701256,-0.594384,-362.809998,133.279999,133.210007,22.06
680179,0.778848,0.783240,-0.317200,-290.290009,134.050003,147.770004,22.06
680190,0.741272,0.979904,-0.059536,-244.440002,130.970001,178.360001,22.13
680201,0.677832,0.909144,0.124440,-212.940002,135.520004,199.500000,22.05
680212,0.586576,0.663680,0.318664,-193.410004,138.600006,210.419998,22.05
680223,0.570472,0.340624,0.430416,-178.919998,142.309998,220.220001,22.05
680233,0.528016,0.260104,0.588040,-184.660004,145.880005,229.179993,22.05
680244,0.386008,0.224480,0.712968,-223.860001,150.009995,241.990005,22.08
680255,0.162504,-0.073688,0.854488,-246.820007,142.800003,256.059998,22.08
680266,0.027328,-0.507520,1.009672,-241.639999,130.830002,256.200012,22.04
680277,-0.066856,-0.713944,1.123376,-215.179993,111.019997,246.750000,22.05
680288,-0.148840,-0.895968,1.176568,-190.119995,88.970001,226.380005,22.05
680299,-0.263520,-1.156560,1.130696,-174.160004,67.129997,197.750000,22.07
680310,-0.305488,-1.520120,1.038952,-133.279999,50.959999,156.520004,22.07
680321,-0.334768,-1.772904,0.956480,-82.809998,33.740002,118.370003,22.09
680333,-0.398696,-2.047160,1.012112,-20.160000,12.880000,62.299999,22.06
680344,-0.370392,-2.108648,1.136064,20.930000,-7.490000,6.720000,22.06
680355,-0.293776,-2.163304,1.218048,31.219999,-11.970000,-52.500000,22.08
680366,-0.177144,-2.015928,1.275144,28.840000,-43.889999,-76.300003,22.08
680377,-0.160552,-1.961272,1.102880,29.120001,-26.180000,-127.260002,22.08
680388,-0.195688,-1.646024,0.981368,12.810000,-34.299999,-164.289993,22.05
680400,-0.071248,-1.584048,0.649040,26.389999,-33.040001,-206.500000,22.05
680411,-0.125416,-1.249280,0.453840,73.150002,-43.610001,-248.149994,22.07
680422,0.002440,-1.012600,0.313784,156.729996,-61.110001,-271.320007,22.07
680433,0.100040,-0.649528,0.322080,274.190002,-87.919998,-301.209991,22.07
680444,0.194224,-0.130784,0.368928,398.859985,-136.779999,-320.739990,22.05
680455,0.364048,0.192760,0.240584,539.349976,-166.110001,-315.980011,22.05
680466,0.491904,0.666120,0.222528,650.159973,-232.330002,-290.429993,22.08
680477,1.083848,1.477664,0.526064,647.849976,-186.479996,-255.710007,22.08
680488,1.148264,1.854400,0.300120,524.580017,-173.110001,-179.410004,22.09
680499,0.693448,1.664568,0.198616,375.760010,-118.930000,-148.050003,22.06
680509,0.104432,1.630408,0.049288,305.130005,-110.459999,-101.919998,22.06
680520,0.065392,1.972008,-0.434320,210.350006,-102.970001,-59.290001,22.06
680531,0.652456,2.302872,-0.898408,7.560000,-51.939999,-16.450001,22.06
680542,0.944280,2.184776,-0.962336,-165.479996,25.270000,17.219999,22.06
680553,0.721752,1.461072,-0.836432,-245.000000,51.029999,54.110001,22.06
680564,0.668560,1.108736,-0.540704,-217.770004,66.849998,67.620003,22.09
680575,0.792024,0.994544,-0.311344,-175.839996,79.239998,79.099998,22.06
680586,0.819840,1.094584,-0.142984,-157.080002,96.599998,98.769997,22.06
680597,0.758840,1.070184,0.109800,-154.839996,102.970001,123.269997,22.06
680608,0.660264,0.916464,0.292312,-159.669998,106.610001,140.419998,22.06
680619,0.637816,0.705160,0.447008,-182.770004,109.059998,158.970001,22.07
680630,0.608048,0.345992,0.657336,-212.029999,109.199997,172.830002,22.05
680641,0.556808,0.218136,0.979904,-225.050003,103.599998,184.380005,22.05
680652,0.548024,0.251808,1.109712,-244.860001,95.199997,198.940002,22.04
680662,0.560224,0.296216,1.260016,-287.070007,89.809998,230.649994,22.04
680674,0.487024,0.091256,1.267824,-323.540009,81.480003,226.869995,22.05
680684,0.429928,-0.173728,1.162904,-330.679993,71.330002,232.119995,22.05
680695,0.363072,-0.448960,1.091168,-322.630005,62.790001,225.330002,22.04
680706,0.246928,-0.670512,0.989176,-299.179993,49.770000,213.570007,22.07
680717,0.143472,-1.013088,0.894992,-244.229996,33.950001,179.759995,22.07
680728,0.012200,-1.133624,0.746152,-217.699997,5.670000,135.100006,22.02
680739,-0.047336,-1.533784,0.605120,-127.470001,4.480000,106.470001,22.02
680750,-0.089304,-1.802672,0.534360,-31.850000,-15.400000,52.009998,22.07
680761,-0.041480,-1.897832,0.606096,44.240002,-25.690001,2.870000,22.04
680773,-0.003416,-1.748992,0.747616,108.500000,-31.639999,-43.400002,22.04
680784,0.073688,-1.494744,0.919392,124.320000,-34.160000,-76.650002,22.09
680795,0.088816,-1.383480,0.959408,123.830002,-31.639999,-103.879997,22.09
680811,0.140544,-1.184376,0.637328,163.309998,-37.799999,-148.889999,22.07
680823,0.172264,-0.873520,0.616344,232.259995,-51.939999,-178.710007,22.05
680834,0.251808,-0.579256,0.587064,307.579987,-75.110001,-203.350006,22.05
680845,0.321592,-0.258152,0.638792,396.480011,-98.629997,-213.360001,22.06
680856,0.384544,-0.098088,0.729560,478.239990,-146.369995,-214.339996,22.05
680867,0.600728,0.174704,0.646600,535.640015,-166.880005,-206.149994,22.05
680878,0.702232,0.904264,0.654408,494.200012,-160.229996,-177.729996,22.07
680889,0.818864,1.497672,0.399672,375.619995,-126.349998,-133.419998,22.07
680900,0.771528,1.333216,0.226920,212.169998,-75.040001,-96.949997,22.08
680911,0.310368,1.276608,0.014152,87.290001,-51.590000,-57.189999,22.04
680922,0.332328,1.769488,-0.102480,-62.930000,-34.090000,-5.880000,22.04
680933,0.913536,2.201856,-0.232288,-253.050003,5.880000,41.230000,22.05
680944,1.240984,2.060336,-0.232776,-403.619995,36.400002,107.519997,22.05
680955,1.252208,1.125816,-0.036600,-425.809998,73.779999,138.529999,22.05
680966,1.049200,0.563640,0.205936,-386.329987,77.489998,155.889999,22.05
680977,0.879864,0.245952,0.395280,-302.820007,53.619999,171.990005,22.05
680987,0.914512,0.391376,0.444080,-264.529999,43.400002,185.639999,22.03
680998,0.906704,0.511912,0.408944,-260.890015,51.380001,191.309998,22.03
681009,0.677832,0.524600,0.359168,-291.899994,65.800003,197.190002,22.05
681020,0.524600,0.122976,0.255712,-305.130005,79.239998,195.160004,22.05
681031,0.214720,-0.331352,0.312808,-283.290009,76.440002,183.820007,22.03
681042,0.077592,-0.914512,0.397232,-211.750000,59.709999,162.610001,22.04
681053,0.094672,-1.291248,0.518256,-141.539993,45.080002,130.059998,22.04
681064,0.109800,-1.429352,0.675392,-56.840000,33.250000,101.989998,22.05
681075,0.099064,-1.437160,0.828136,4.620000,19.950001,67.970001,22.05
681085,0.156648,-1.503528,0.969168,27.580000,14.980000,34.160000,22.03
681096,0.145424,-1.549888,1.091168,41.090000,10.080000,6.720000,22.04
681107,0.178120,-1.615280,1.106296,45.290001,6.930000,-23.590000,22.04
681118,0.166408,-1.521096,1.114592,51.520000,0.700000,-53.340000,22.02
681129,0.173728,-1.438624,1.012600,55.090000,-2.100000,-82.739998,22.02
681140,0.204960,-1.434232,0.825696,74.550003,-3.990000,-108.080002,22.04
681151,0.185928,-1.359080,0.627080,129.149994,-19.879999,-147.000000,22.04
681162,0.220088,-1.078968,0.493856,222.039993,-35.840000,-182.559998,22.06
681173,0.286944,-0.874496,0.475312,353.779999,-62.860001,-210.770004,22.03
681184,0.364048,-0.339648,0.548024,491.470001,-98.769997,-235.410004,22.03
681195,0.441152,0.097112,0.548024,592.690002,-156.660004,-237.929993,22.01
681206,0.500200,0.379176,0.557296,702.309998,-197.399994,-224.770004,22.01
681217,0.752496,0.987712,0.665144,694.049988,-212.100006,-196.770004,22.01
681228,0.999424,1.736304,0.554856,556.640015,-139.369995,-157.289993,22.02
681238,0.731512,1.426912,0.316224,353.570007,-112.910004,-121.099998,22.02
681250,0.281088,0.976976,0.053680,215.669998,-75.250000,-96.110001,22.05
681261,0.286456,1.242448,-0.304512,138.460007,-63.560001,-52.009998,22.05
681272,0.671488,1.891488,-0.702720,-65.449997,-30.309999,2.240000,22.02
681283,0.985760,1.876848,-0.924272,-284.690002,22.540001,55.930000,22.05
681294,1.109712,1.590392,-0.804224,-384.019989,75.809998,91.910004,22.05
681305,1.088240,1.190720,-0.480680,-379.190002,112.279999,103.669998,22.02
681316,0.934520,0.886208,-0.120536,-362.600006,115.150002,126.980003,22.02
681327,0.806664,0.713456,0.116632,-315.700012,101.570000,150.639999,22.03
681337,0.807640,0.547536,0.340624,-282.309998,98.070000,172.479996,22.03
681348,0.729072,0.474824,0.651968,-279.720001,103.110001,184.940002,22.04
681359,0.575840,0.355264,0.876936,-319.549988,104.930000,197.750000,22.03
681370,0.501176,0.050752,0.949648,-360.290009,103.180000,209.929993,22.03
681381,0.380152,-0.277184,1.013576,-394.380005,98.629997,211.050003,22.05
681392,0.226920,-0.480192,0.992592,-395.640015,87.430000,206.710007,22.05
681403,0.162992,-0.729560,0.911096,-383.459991,78.820000,189.279999,22.05
681414,0.049776,-1.138992,0.696864,-353.989990,77.769997,152.039993,22.02
681425,-0.138104,-1.621136,0.497272,-277.829987,68.669998,101.849998,22.02
681436,-0.290848,-2.066192,0.354776,-145.669998,46.619999,54.110001,22.04
681447,-0.294752,-2.425848,0.332328,7.350000,26.110001,-13.650000,22.04
681459,-0.234240,-2.316536,0.520208,103.180000,6.160000,-76.790001,22.05
681470,-0.046848,-2.036912,0.776408,156.729996,2.170000,-113.330002,21.97
681480,0.033184,-1.834392,0.883280,172.830002,-3.500000,-156.660004,21.97
681492,0.105896,-1.661152,0.853024,188.929993,-14.630000,-196.210007,22.05
681503,0.145424,-1.246840,0.741760,244.160004,-29.889999,-237.509995,22.05
681514,0.220576,-0.818864,0.689544,338.309998,-57.049999,-265.019989,22.04
681525,0.300608,-0.308904,0.651968,449.540009,-92.260002,-288.820007,22.04
681536,0.366000,0.314760,0.706624,537.669983,-143.080002,-292.109985,22.01
681547,0.412360,0.859368,0.709552,596.049988,-183.050003,-265.859985,22.00
681558,0.807640,1.799744,0.688080,515.969971,-189.419998,-209.720001,22.00
681569,0.782264,1.952000,0.378200,348.600006,-103.739998,-160.860001,22.05
681580,0.384056,1.379088,0.023912,201.389999,-74.339996,-114.309998,22.05
681591,0.194712,1.375184,-0.226920,54.669998,-68.110001,-64.050003,22.04
681602,0.626104,2.360456,-0.385520,-152.740005,-37.730000,-2.240000,22.04
681613,1.098000,3.314008,-0.344040,-415.029999,5.320000,95.199997,22.04
681624,1.431792,2.486360,-0.225944,-551.460022,71.680000,167.580002,22.07
681635,1.184864,0.980880,-0.065392,-566.789978,94.849998,189.139999,22.07
681648,0.966728,0.249368,0.260592,-460.880005,69.720001,203.699997,22.02
681659,0.951600,0.434320,0.406016,-354.480011,45.779999,217.559998,22.03
681670,0.959896,0.630008,0.385520,-309.890015,35.630001,223.089996,22.03
681681,0.794952,0.665632,0.267424,-272.720001,43.259998,223.089996,22.01
681691,0.577304,0.535824,0.118584,-269.779999,48.299999,219.589996,22.01
681702,0.203496,-0.019520,0.005856,-215.039993,50.470001,207.410004,22.04
681714,-0.030256,-0.732976,0.041480,-130.759995,44.380001,184.589996,22.01
681725,-0.150792,-1.376648,0.280112,-32.480000,21.070000,141.259995,22.01
681736,-0.101992,-1.434720,0.690032,85.470001,0.980000,103.459999,22.02
681747,0.041480,-1.275632,1.154608,133.070007,-11.620000,84.139999,22.02
681761,0.097112,-1.349808,1.587952,94.290001,-5.950000,63.139999,22.04
681772,0.078568,-1.387384,1.728008,35.980000,-0.210000,50.750000,22.04
681783,0.024400,-1.563064,1.687992,-26.389999,2.520000,31.500000,22.04
681794,-0.036600,-1.873920,1.379576,-70.559998,3.290000,-1.330000,22.05
681805,-0.081496,-2.101816,0.753960,-63.000000,3.850000,-37.310001,22.05
681817,-0.249368,-1.965664,0.223992,-20.860001,2.800000,-112.000000,22.05
681834,0.054656,-1.848544,-0.048800,133.210007,-11.130000,-190.960007,22.06
681845,0.036600,-1.379576,0.149816,274.119995,-39.759998,-239.190002,22.02
681856,0.269864,-1.006744,0.444080,465.359985,-80.010002,-278.880005,22.02
681867,0.425536,0.113216,0.692960,625.590027,-128.589996,-304.779999,22.03
681878,0.656360,1.296128,0.935496,637.489990,-176.330002,-281.049988,22.03
681889,0.801784,2.055944,1.210728,567.979980,-194.740005,-232.960007,22.02
681900,1.209264,1.814384,0.990640,396.899994,-133.070007,-175.490005,22.04
681911,0.776408,0.376736,0.420656,239.610001,-89.250000,-140.490005,22.04
681922,0.108336,-0.080032,-0.420656,178.220001,-60.130001,-127.050003,22.04
681934,-0.203984,1.498160,-0.383568,47.110001,-69.089996,-61.950001,22.04
681945,0.685152,2.942152,-0.530944,-240.729996,-41.580002,11.410000,22.04
681958,1.284904,2.866024,-0.445544,-531.440002,48.230000,112.489998,22.05
681970,1.189256,1.351272,-0.265472,-549.570007,101.570000,136.500000,22.05
681982,0.935496,0.436760,-0.056120,-423.709991,98.070000,137.899994,22.03
681995,0.897432,0.316712,0.209352,-231.910004,63.700001,146.580002,22.04
682007,0.939400,0.593896,0.273280,-78.330002,34.860001,155.679993,22.04
682018,0.884744,0.664656,0.274256,-31.709999,37.660000,156.309998,22.01
682029,0.727120,0.514840,0.312320,-11.200000,44.029999,156.029999,22.01
682040,0.537776,0.194712,0.475800,-13.090000,49.279999,153.649994,22.01
682051,0.431880,-0.039528,0.639280,-17.290001,47.180000,152.669998,22.02
682062,0.408456,-0.074664,0.861320,-46.549999,58.240002,150.779999,22.02
682073,0.228384,-0.238144,1.049688,-82.809998,60.270000,152.600006,22.02
682084,0.116144,-0.474824,1.234640,-91.349998,51.869999,150.080002,22.02
682095,0.148840,-0.627568,1.269776,-90.370003,42.980000,144.619995,22.01
682107,0.184952,-0.688080,1.236592,-98.139999,38.080002,137.059998,22.03
682118,0.156648,-0.885720,1.133136,-95.760002,33.950001,121.029999,22.03
682129,0.032696,-1.020896,1.095072,-98.279999,30.870001,91.699997,22.00
682140,0.131760,-1.154608,0.977952,-86.660004,23.730000,76.860001,22.00
682151,0.086376,-1.251720,0.911584,-83.230003,25.270000,47.459999,22.02
682162,0.030256,-1.445944,0.954040,-67.690002,21.700001,24.709999,21.98
682173,0.049288,-1.588440,0.982344,-49.560001,17.500000,-11.200000,21.98
682184,0.041480,-1.686040,0.925736,-31.570000,17.150000,-48.509998,22.05
682195,0.046360,-1.840736,0.737856,14.700000,13.580000,-95.269997,22.05
682207,0.052216,-1.740208,0.536312,68.669998,5.180000,-140.419998,22.02
682218,0.050752,-1.562576,0.391376,143.500000,-9.030000,-177.729996,22.02
682229,0.182024,-1.024312,0.375760,216.789993,-28.840000,-218.119995,22.02
682240,0.317688,-0.520208,0.462624,343.489990,-52.360001,-251.020004,22.03
682251,0.485072,-0.056120,0.661240,510.579987,-97.510002,-270.410004,22.03
682262,0.636840,0.681248,0.819840,627.059998,-152.740005,-275.239990,22.00
682273,0.777872,1.358592,0.997960,668.710022,-194.039993,-232.190002,22.00
682284,0.991128,1.543056,0.910120,583.799988,-152.320007,-178.919998,22.00
682295,0.909144,0.753960,0.600728,464.519989,-119.769997,-145.529999,21.98
682307,0.370392,0.843264,0.397232,341.809998,-104.860001,-107.449997,21.98
682318,-0.122488,1.627480,0.399184,108.080002,-77.699997,-75.529999,22.00
682329,0.225456,2.608360,0.163480,-222.320007,-41.369999,6.860000,22.01
682340,0.707112,2.703032,-0.347944,-476.630005,-2.800000,100.449997,22.01
682351,1.225856,1.936872,-0.394304,-653.590027,38.500000,144.270004,22.00
682362,1.122888,0.751032,-0.240584,-623.349976,84.769997,151.199997,22.00
682373,0.917440,0.263032,0.089304,-541.520020,75.809998,151.550003,22.02
682384,0.902312,0.432856,0.345016,-401.309998,54.040001,162.679993,21.99
682395,0.930128,0.678320,0.340624,-307.019989,33.529999,174.929993,21.99
682406,0.885720,0.743224,0.228384,-262.850006,31.990000,179.830002,22.02
682417,0.827648,0.600240,0.055144,-215.250000,38.009998,176.539993,22.02
682428,0.596824,0.376248,0.003416,-166.669998,42.840000,166.460007,22.02
682438,0.468968,0.035624,-0.014640,-127.050003,48.020000,158.479996,22.02
682450,0.356728,-0.461648,0.174704,-77.209999,49.630001,145.740005,22.04
682461,0.205936,-0.768600,0.503616,-11.200000,42.139999,125.930000,21.99
682472,0.179096,-0.833992,0.780312,50.750000,22.889999,114.169998,21.99
682483,0.223504,-0.762256,1.108736,65.239998,14.560000,103.110001,22.00
682493,0.237656,-0.826672,1.376160,41.299999,20.090000,94.150002,22.00
682504,0.128832,-1.045784,1.510360,8.960000,19.740000,81.480003,22.00
682516,0.073688,-1.184376,1.528904,-21.070000,17.219999,66.290001,21.96
682527,0.038064,-1.421056,1.363472,-59.990002,18.830000,40.950001,21.96
682537,0.005856,-1.669448,1.111176,-60.549999,19.950001,12.250000,22.03
682548,0.003904,-1.899784,0.632936,-38.430000,20.090000,-40.459999,22.03
682559,-0.081496,-1.961760,0.370392,40.110001,6.440000,-87.639999,22.02
682570,-0.037576,-1.826096,0.262056,135.449997,4.970000,-156.240005,21.97
682581,-0.021472,-1.511824,0.364536,245.699997,-18.969999,-187.600006,21.97
682593,0.160552,-1.059936,0.586576,360.429993,-53.759998,-233.380005,22.01
682604,0.336720,-0.305000,0.904752,501.829987,-82.250000,-268.100006,22.01
682615,0.491904,0.312808,1.164368,608.789978,-126.910004,-274.750000,21.99
682626,0.608536,1.019432,1.341512,680.750000,-182.630005,-255.710007,21.99
682637,0.766160,1.355176,1.056032,681.239990,-207.619995,-198.660004,21.99
682648,0.982832,1.236592,0.512400,583.450012,-184.940002,-141.820007,21.99
682659,0.737368,0.809592,0.104920,443.170013,-127.400002,-122.989998,21.99
682670,0.042944,1.323944,0.166408,277.130005,-92.889999,-91.699997,22.01
682681,-0.170312,2.018368,0.100040,13.930000,-80.989998,-20.230000,22.01
682692,0.571448,2.543456,-0.526552,-307.649994,-35.209999,66.570000,22.02
682703,1.063840,2.241384,-0.520696,-546.559998,4.550000,117.599998,22.01
682714,1.249768,1.240984,-0.284992,-542.849976,59.290001,139.229996,22.01
682726,1.009672,0.487024,-0.062952,-497.910004,73.709999,133.419998,21.98
682737,0.909632,0.309392,0.364048,-402.920013,52.290001,141.679993,21.98
682748,0.900848,0.588040,0.406504,-315.630005,34.090000,160.160004,22.01
682759,0.916952,0.767136,0.331352,-285.320007,30.100000,173.179993,21.99
682769,0.900360,0.631472,0.152744,-283.359985,43.189999,178.080002,21.99
682780,0.711016,0.466040,0.110288,-266.350006,51.310001,175.350006,22.04
682791,0.556320,0.163968,0.084424,-238.490005,53.970001,167.720001,22.04
682802,0.458720,-0.209840,0.158112,-200.899994,52.779999,158.759995,22.01
682813,0.392352,-0.405040,0.349896,-154.910004,53.200001,150.850006,22.00
682824,0.255224,-0.625616,0.519720,-99.959999,44.939999,134.889999,22.00
682836,0.203496,-0.621224,0.755424,-56.630001,33.250000,122.080002,21.99
682850,0.198128,-0.752008,0.900360,-36.610001,30.870001,103.669998,21.99
682860,0.164944,-1.039928,1.070184,-31.990000,31.850000,83.440002,22.03
682871,0.097600,-1.256600,1.236592,-29.469999,26.110001,66.290001,21.98
682882,0.035624,-1.486448,1.263432,-28.840000,19.040001,37.029999,21.98
682893,0.068320,-1.689944,1.093120,-35.980000,21.770000,5.460000,21.98
682904,0.013176,-1.910032,0.729560,-8.050000,20.299999,-42.139999,21.98
682915,-0.037088,-1.959320,0.510936,66.570000,10.010000,-88.410004,22.02
682927,-0.005856,-1.789984,0.417240,146.300003,-2.240000,-144.199997,21.99
682938,0.071736,-1.450824,0.528504,242.899994,-25.620001,-190.679993,21.99
682949,0.185440,-1.072136,0.709552,336.140015,-54.529999,-234.919998,22.01
682960,0.325008,-0.586576,0.846680,464.170013,-82.320000,-270.899994,22.01
682971,0.461160,0.160552,0.964776,592.619995,-128.029999,-285.739990,22.01
682982,0.625616,0.974536,0.983320,706.229980,-174.369995,-276.359985,21.98
682993,0.624640,1.398120,0.871568,785.820007,-235.550003,-218.610001,21.98
683004,0.979904,1.578192,0.406504,793.030029,-232.889999,-173.039993,22.04
683015,1.072136,1.097512,0.018544,721.770020,-174.229996,-144.619995,22.04
683027,0.385520,0.516792,-0.169824,609.000000,-126.419998,-102.620003,22.02
683038,-0.233752,1.314672,-0.586576,448.910004,-104.019997,-50.610001,21.99
683049,-0.162992,2.170624,-0.700280,62.230000,-66.360001,-1.680000,21.99
683061,0.532408,2.456104,-0.996008,-395.920013,-8.330000,62.930000,22.00
683072,0.804712,2.076440,-1.120936,-655.130005,47.110001,123.900002,22.00
683083,1.216096,1.268312,-0.759816,-681.450012,109.129997,154.210007,21.99
683094,1.186816,0.643672,-0.338184,-679.909973,148.470001,144.270004,21.99
683105,0.839360,0.398208,0.233752,-594.440002,131.039993,154.070007,21.99
683115,0.726144,0.582672,0.449448,-458.570007,77.699997,188.860001,22.01
683126,0.921832,0.892552,0.347456,-409.989990,66.989998,213.149994,22.01
683137,1.021384,0.925736,0.266448,-387.589996,76.650002,222.460007,21.98
683148,0.838872,0.658800,0.211792,-379.890015,87.220001,230.860001,21.98
683159,0.636840,0.322080,0.204960,-352.869995,84.910004,228.619995,21.98
683170,0.475800,-0.023424,0.207400,-301.420013,72.309998,222.250000,21.98
683181,0.397232,-0.394304,0.255712,-238.350006,61.810001,212.660004,21.98
683191,0.258640,-0.754936,0.375272,-176.750000,47.389999,188.720001,22.00
683202,0.178608,-0.834968,0.548024,-86.169998,24.570000,169.119995,22.00
683213,0.145912,-0.898896,0.653432,-23.309999,16.660000,146.860001,22.05
683224,0.099552,-1.161440,0.847656,0.000000,14.070000,120.470001,22.00
683235,-0.007808,-1.381040,0.993568,25.760000,9.940000,96.599998,22.00
683247,-0.052704,-1.595760,1.240496,32.410000,4.270000,64.820000,22.01
683258,-0.052216,-1.710440,1.197552,24.219999,2.870000,32.270000,22.01
683269,-0.009272,-1.749480,1.199504,0.350000,5.600000,-0.280000,21.99
683280,0.045384,-1.753384,1.019920,-22.540001,11.830000,-27.790001,21.96
683292,-0.139080,-1.896368,0.635376,-23.309999,0.560000,-80.989998,21.96
683303,0.010248,-1.857816,0.399672,48.230000,12.950000,-131.460007,22.02
683314,0.042456,-1.586000,0.166896,102.410004,11.620000,-168.350006,22.02
683325,0.074176,-1.306376,0.146400,176.610001,-3.150000,-207.479996,21.98
683336,0.191784,-0.912072,0.231312,297.989990,-24.010000,-248.220001,22.00
683348,0.300120,-0.326960,0.441640,447.649994,-57.259998,-280.769989,22.00
683359,0.406504,0.324032,0.715408,587.159973,-104.510002,-293.440002,21.99
683369,0.540704,1.116056,0.838384,674.030029,-159.460007,-282.519989,21.99
683380,0.549976,1.645048,0.909632,751.099976,-210.000000,-232.610001,21.98
683391,0.963312,1.547936,0.533384,724.429993,-205.589996,-195.020004,21.96
683402,1.233664,0.927688,0.135176,667.169983,-142.520004,-163.449997,21.96
683413,0.415288,0.879376,-0.086864,599.200012,-122.290001,-114.730003,21.91
683424,0.039528,1.621136,-0.083448,407.399994,-94.360001,-75.320000,21.91
683436,0.129808,2.453664,-0.216184,18.340000,-54.459999,-0.700000,22.00
683447,0.603168,2.626904,-0.658312,-397.250000,-1.400000,53.900002,22.00
683458,0.921832,2.006656,-0.895480,-625.729980,41.650002,118.580002,22.00
683469,1.245376,1.165344,-0.560712,-642.460022,97.860001,142.800003,22.00
683481,1.154120,0.591944,-0.164944,-595.349976,123.129997,140.559998,22.00
683492,0.844240,0.307928,0.397232,-492.519989,98.629997,158.690002,21.99
683503,0.726632,0.504592,0.597312,-360.920013,48.720001,181.369995,21.98
683514,0.878400,0.973072,0.551440,-310.869995,39.200001,194.389999,21.98
683525,0.941352,1.003816,0.408944,-326.130005,51.799999,206.360001,21.98
683536,0.696376,0.501176,0.369416,-330.399994,65.379997,206.360001,21.98
683547,0.476288,0.230336,0.287920,-308.279999,58.939999,198.589996,21.99
683558,0.410408,0.040016,0.294752,-288.260010,58.450001,196.770004,21.99
683568,0.241072,-0.302072,0.345992,-249.199997,52.009998,187.740005,21.99
683579,0.165432,-0.605608,0.511912,-197.399994,39.270000,166.740005,21.95
683590,0.147864,-0.734928,0.667096,-135.869995,31.219999,143.779999,21.95
683601,0.128832,-0.886696,0.831552,-90.370003,26.600000,125.790001,22.00
683612,0.099064,-1.165832,0.905728,-56.700001,19.459999,100.660004,22.00
683623,0.098576,-1.461072,0.922808,-32.480000,11.270000,70.699997,21.99
683634,0.094672,-1.636264,0.912072,-12.810000,7.210000,35.840000,21.94
683646,0.106872,-1.755336,0.833504,-4.760000,8.610000,8.400000,21.94
683657,0.025864,-1.909544,0.730048,13.160000,11.970000,-36.119999,21.97
683668,0.024888,-1.965664,0.602680,41.090000,8.680000,-80.290001,21.97
683679,0.018544,-2.078880,0.394304,91.559998,7.280000,-134.259995,22.00
683689,0.041968,-1.755336,0.340624,162.330002,-2.380000,-175.350006,22.00
683702,0.142008,-1.480104,0.414312,260.470001,-21.280001,-223.860001,21.98
683713,0.203008,-0.976488,0.605120,391.859985,-55.090000,-268.029999,21.99
683724,0.297680,-0.341112,0.780312,493.920013,-98.139999,-295.679993,21.99
683735,0.452376,0.435784,0.890112,607.109985,-134.679993,-302.959991,21.96
683746,0.425536,1.191696,0.950136,681.729980,-193.410004,-264.739990,22.00
683757,0.673928,1.790960,0.968680,654.010010,-224.559998,-207.199997,22.00
683768,1.026264,1.452288,0.125904,591.010010,-159.600006,-175.070007,22.00
683779,0.794464,0.814472,-0.200080,465.290009,-131.529999,-128.100006,22.00
683790,-0.049288,1.133136,-0.497272,340.130005,-86.099998,-110.599998,21.99
683802,0.030744,2.250656,-0.910120,108.010002,-68.250000,-28.770000,21.98
683813,0.836920,3.034872,-1.015040,-199.850006,-14.630000,55.720001,21.98
683824,1.036024,2.507832,-0.898896,-474.390015,50.820000,115.360001,21.96
683835,1.221464,1.585512,-0.619272,-532.349976,97.930000,138.740005,21.96
683846,1.088728,0.847656,-0.127368,-495.390015,119.000000,147.559998,22.00
683857,0.880840,0.470920,0.193736,-400.750000,93.519997,170.800003,22.00
683872,0.849608,0.625616,0.497760,-294.489990,53.900002,204.050003,22.00
683883,0.922808,0.731024,0.523624,-279.299988,49.770000,214.410004,21.95
683894,0.857904,0.830088,0.421632,-321.510010,64.260002,228.619995,21.95
683905,0.707112,0.489464,0.382592,-354.549988,77.419998,239.470001,21.98
683916,0.422120,0.138104,0.381616,-356.299988,76.370003,238.699997,21.99
683927,0.291824,-0.237168,0.416264,-326.339996,66.500000,232.399994,21.99
683938,0.118584,-0.532408,0.453352,-287.209991,58.310001,209.369995,21.99
683949,0.003416,-0.764696,0.412848,-230.369995,50.680000,182.279999,21.99
683960,-0.081008,-1.149728,0.395768,-154.630005,44.169998,154.910004,21.96
683971,-0.137616,-1.555256,0.456768,-87.360001,33.529999,116.480003,21.94
683983,-0.002440,-1.910520,0.606584,-6.300000,20.510000,71.260002,21.94
683995,-0.041968,-2.010072,0.811544,45.080002,14.210000,26.180000,22.00
684007,0.021960,-1.987624,1.009184,37.380001,15.470000,-14.000000,22.01
684018,0.052704,-2.025200,1.023824,18.340000,21.139999,-52.290001,22.01
684031,0.022448,-2.051552,0.837896,10.150000,25.620001,-103.739998,22.01
684043,-0.009760,-2.103280,0.508984,28.000000,28.209999,-154.000000,22.01
684056,-0.025864,-1.818776,0.231800,102.199997,20.930000,-204.610001,21.94
684068,0.031720,-1.396168,0.101992,190.399994,6.440000,-250.460007,21.96
684080,0.141520,-0.934520,0.247416,347.269989,-27.299999,-306.250000,21.96
684093,0.234728,-0.045384,0.558272,523.880005,-92.050003,-339.359985,21.96
684105,0.423096,0.887184,0.721752,714.280029,-154.839996,-344.679993,22.03
684117,0.425536,2.215520,0.575840,851.059998,-240.100006,-282.239990,22.03
684129,0.873520,2.708888,0.428952,834.469971,-247.029999,-219.800003,21.92
684142,1.193648,1.241472,-0.070272,662.270020,-174.300003,-151.270004,21.98
684153,0.199592,0.224968,-0.879864,630.700012,-88.760002,-153.229996,21.98
684164,-0.734440,1.536224,-0.935984,535.640015,-86.379997,-86.169998,21.99
684175,-0.206912,2.925560,-1.208288,141.190002,-70.769997,-10.850000,21.95
684187,1.060424,3.428688,-1.311256,-444.220001,38.080002,56.910000,21.95
684198,1.092144,2.358504,-1.189744,-680.609985,117.949997,129.149994,21.95
684209,1.188768,1.184864,-0.736392,-679.419983,171.220001,159.179993,21.95
684220,1.103368,0.571936,-0.218136,-637.559998,182.839996,162.960007,22.00
684231,0.819352,0.285968,0.328912,-500.149994,140.210007,183.679993,21.95
684242,0.695888,0.541680,0.705160,-395.570007,86.029999,216.229996,21.95
684252,0.865224,0.815448,0.792024,-345.309998,65.309998,243.529999,21.94
684263,0.880352,0.881816,0.672952,-377.649994,75.320000,252.279999,21.94
684274,0.718336,0.530456,0.615856,-418.670013,89.669998,262.640015,21.96
684285,0.510448,0.112240,0.529968,-427.140015,84.559998,265.160004,21.96
684296,0.269376,-0.211304,0.528992,-400.399994,68.250000,251.860001,21.98
684307,0.006832,-0.502152,0.525088,-359.029999,49.770000,232.330002,21.98
684318,0.031232,-0.892552,0.482144,-283.429993,36.259998,199.289993,21.98
684329,-0.101504,-1.068720,0.424560,-181.720001,28.139999,163.729996,21.98
684340,-0.233752,-1.175104,0.439688,-88.339996,15.470000,127.540001,21.98
684352,-0.240096,-1.663104,0.480680,14.070000,-1.400000,83.650002,21.95
684363,-0.017568,-1.832440,0.631960,77.000000,-11.060000,39.340000,22.00
684374,0.073200,-1.720688,0.951600,92.959999,-12.600000,3.990000,22.00
684385,0.177144,-1.690920,1.164368,58.029999,-7.070000,-34.930000,21.98
684396,0.157136,-1.780712,1.184376,7.210000,3.500000,-45.779999,21.98
684407,0.081984,-1.973472,0.917440,-15.610000,10.990000,-81.129997,21.98
684418,0.031232,-2.094496,0.402600,-0.490000,14.350000,-129.220001,21.99
684429,0.004392,-1.827560,0.020008,53.340000,13.160000,-170.520004,21.99
684440,0.025864,-1.605032,-0.142984,137.199997,9.030000,-217.350006,21.96
684451,0.001952,-1.271240,-0.068808,252.979996,-29.750000,-267.750000,21.96
684463,0.120048,-0.650992,0.126392,437.570007,-67.410004,-309.470001,21.95
684474,0.281576,0.162504,0.317688,639.099976,-101.360001,-332.220001,21.95
684485,0.449936,1.369816,0.392352,834.330017,-175.350006,-325.570007,21.95
684496,0.599752,2.531256,0.444568,969.080017,-262.149994,-264.250000,21.95
684507,1.084824,2.535648,0.354288,983.289978,-261.450012,-199.990005,21.95
684518,1.732400,1.805112,0.073688,810.739990,-196.559998,-152.460007,22.00
684529,0.631472,0.149816,-0.269376,677.669983,-92.470001,-156.660004,22.00
684540,-0.461648,0.689056,-0.549976,591.500000,-62.020000,-111.650002,21.96
684551,-0.825696,2.034960,-0.836920,281.890015,-77.349998,-43.259998,21.96
684562,0.695400,3.115392,-1.331264,-341.809998,1.540000,44.450001,21.96
684573,1.067744,2.740120,-1.310768,-767.830017,66.360001,104.230003,21.99
684584,1.386408,1.577216,-0.961848,-841.400024,154.839996,164.149994,21.99
684595,1.217560,0.886208,-0.323056,-839.859985,194.320007,162.539993,21.98
684606,0.931592,0.397232,0.210816,-743.890015,169.470001,179.339996,21.97
684617,0.610000,0.442128,0.755424,-598.500000,94.360001,217.979996,21.97
684628,0.777384,0.707600,0.731024,-460.809998,54.880001,240.729996,21.98
684639,0.988200,0.861320,0.598288,-409.709991,51.169998,250.250000,21.98
684650,0.872544,0.827648,0.466528,-406.000000,55.509998,254.660004,21.99
684660,0.619760,0.481168,0.287432,-409.220001,65.099998,252.070007,21.96
684672,0.379176,-0.187392,0.184952,-348.179993,57.889999,235.130005,21.96
684683,0.116632,-0.623664,0.164944,-267.329987,31.570000,202.720001,21.96
684694,0.102480,-0.798856,0.213256,-162.610001,10.990000,176.750000,21.96
684705,0.054168,-0.922808,0.346968,-67.339996,6.300000,146.860001,21.95
684716,-0.009760,-0.938912,0.517768,6.930000,1.190000,119.629997,21.95
684727,-0.022448,-1.023336,0.769088,31.780001,2.310000,99.330002,21.95
684738,-0.002440,-1.306376,0.958432,39.060001,3.360000,77.559998,21.91
684749,0.047336,-1.691896,1.069696,26.250000,5.880000,54.810001,21.91
684759,0.054168,-1.919792,1.138992,5.250000,10.150000,22.469999,21.97
684770,0.051728,-2.020320,1.079456,-24.709999,11.060000,-14.910000,21.97
684781,0.019032,-2.071072,0.752984,-49.630001,21.139999,-46.970001,21.97
684792,0.023424,-2.168672,0.556320,-43.889999,29.049999,-98.419998,21.96
684803,-0.180560,-2.194536,0.278648,3.990000,11.760000,-152.669998,21.96
684815,-0.078080,-2.106696,0.030256,82.389999,28.770000,-216.929993,21.95
684826,-0.181048,-1.723616,0.105408,186.270004,8.540000,-263.059998,21.95
684837,-0.035624,-1.274656,0.243512,336.630005,-21.139999,-309.119995,21.97
684848,0.065392,-0.519720,0.423096,451.220001,-64.330002,-350.910004,21.95
684859,0.146888,0.420168,0.678808,582.049988,-106.540001,-360.779999,21.95
684870,0.319640,1.117520,0.738344,692.299988,-168.559998,-350.630005,21.93
684886,0.534848,1.847568,0.355264,842.590027,-264.529999,-278.600006,21.99
684897,1.078480,2.211616,-0.344528,826.210022,-211.190002,-214.199997,21.99
684909,0.906704,1.001376,-0.465064,760.270020,-212.520004,-160.789993,21.96
684920,0.360144,0.887672,-0.935496,736.400024,-139.929993,-132.440002,21.96
684931,-0.356728,1.994456,-1.083360,502.880005,-115.430000,-76.370003,21.97
684942,0.144936,2.878224,-1.037000,52.150002,-64.190002,-15.260000,21.98
684954,0.744200,2.786480,-1.455704,-409.779999,29.330000,32.410000,21.98
684966,0.943792,2.023736,-1.338096,-622.159973,94.849998,109.760002,21.94
684978,1.181936,1.314672,-0.886696,-620.690002,150.429993,121.239998,21.97
684989,1.134112,0.951112,-0.556320,-585.340027,174.929993,137.899994,21.97
685000,0.881816,0.878400,0.027328,-505.470001,144.270004,169.050003,21.95
685010,0.765184,1.056032,0.376248,-422.869995,109.129997,203.210007,21.95
685021,0.887184,1.079456,0.468480,-394.869995,95.269997,236.529999,21.93
685032,0.815448,0.720288,0.615856,-392.700012,93.589996,249.199997,21.93
685044,0.626592,0.591456,0.710040,-397.529999,85.190002,257.529999,21.89
685056,0.551440,0.358680,0.649528,-432.880005,80.010002,272.299988,21.94
685068,0.311832,0.071248,0.620736,-444.010010,76.300003,271.739990,21.94
685080,0.125904,-0.343064,0.519720,-410.829987,62.020000,258.510010,21.96
685092,0.008296,-0.612928,0.460184,-335.929993,49.770000,226.449997,21.96
685104,-0.168360,-0.798856,0.326472,-257.739990,41.230000,183.960007,21.96
685116,-0.295728,-1.291736,0.209840,-161.630005,28.000000,145.880005,21.93
685128,-0.245952,-1.851472,0.207888,-29.330000,5.740000,94.430000,21.97
685140,-0.032696,-1.968592,0.407480,76.720001,-6.370000,44.099998,21.97
685152,0.102968,-1.772904,0.795928,107.379997,-8.470000,7.280000,21.95
685165,0.190320,-1.700192,1.132648,72.449997,-1.540000,-26.180000,21.95
685176,0.192272,-1.700192,1.180960,21.070000,6.300000,-52.919998,21.95
685188,0.146400,-1.815360,0.939400,-1.260000,12.460000,-89.320000,21.96
685199,0.126392,-1.746064,0.462136,14.700000,13.440000,-121.379997,21.96
685210,0.162016,-1.582096,0.052704,73.430000,16.799999,-168.139999,22.01
685221,0.179584,-1.245376,-0.083936,164.149994,-1.960000,-214.830002,21.96
685233,0.224968,-0.830088,0.068808,321.790009,-30.379999,-254.520004,21.96
685244,0.365512,-0.393816,0.414800,497.769989,-72.660004,-280.700012,21.96
685256,0.514352,0.504592,0.676856,642.880005,-121.660004,-298.549988,21.96
685268,0.610000,1.421544,0.775432,754.390015,-194.880005,-276.010010,21.96
685279,0.734440,2.109136,0.803248,801.710022,-221.270004,-215.740005,21.98
685290,1.134112,1.901736,0.210816,751.239990,-187.110001,-178.360001,21.98
685301,1.050664,0.809104,-0.086864,676.549988,-154.279999,-125.720001,21.95
685312,0.205936,0.569984,-0.192760,649.530029,-103.389999,-111.370003,21.95
685324,-0.211304,1.756312,-0.508008,465.709991,-92.680000,-55.020000,21.93
685335,0.163480,2.461472,-0.569984,17.080000,-49.070000,-8.680000,21.97
685346,0.694424,2.464888,-0.833992,-429.029999,24.920000,58.590000,21.97
685356,0.871568,1.955904,-0.990152,-622.090027,86.589996,120.750000,21.94
685368,1.281000,1.409832,-0.721752,-692.440002,124.250000,158.690002,21.94
685378,1.177544,0.730536,-0.331352,-681.380005,164.149994,159.110001,21.94
685389,0.746152,0.349408,0.218624,-598.919983,134.960007,175.770004,21.94
685400,0.577304,0.509472,0.666120,-467.040009,87.220001,205.380005,21.94
685411,0.831064,0.765184,0.666120,-394.450012,63.209999,220.220001,21.93
685422,0.875960,0.879376,0.524112,-378.279999,66.639999,234.779999,21.93
685433,0.726632,0.717848,0.441152,-377.929993,72.660004,240.940002,21.93
685444,0.558272,0.308416,0.358192,-364.070007,77.209999,237.509995,21.93
685455,0.325984,-0.130784,0.274744,-325.920013,65.309998,227.009995,21.93
685466,0.161528,-0.429928,0.298656,-260.890015,51.869999,204.399994,21.98
685477,0.103456,-0.708576,0.321104,-189.000000,38.360001,186.759995,21.98
685488,0.042456,-0.982832,0.423584,-113.680000,32.270000,155.119995,21.92
685499,-0.008784,-1.203408,0.552416,-58.730000,25.549999,123.620003,21.92
685510,-0.033672,-1.368840,0.734440,-8.260000,18.129999,99.190002,21.94
685521,0.020008,-1.744600,0.891088,19.600000,15.330000,65.449997,21.96
685532,0.011224,-1.973472,1.110688,33.529999,9.730000,25.480000,21.96
685543,0.039040,-1.993968,1.226832,23.309999,9.730000,-11.830000,21.96
685553,0.006832,-2.088640,1.190232,14.280000,9.590000,-45.500000,21.96
685564,-0.055144,-2.039840,0.994544,23.030001,7.770000,-102.900002,21.97
685575,0.032208,-1.819264,0.773968,31.500000,-3.080000,-133.490005,21.93
685586,0.127368,-1.719712,0.538752,66.290001,1.120000,-173.669998,21.93
685597,0.107360,-1.305400,0.488976,125.160004,-17.920000,-217.770004,21.90
685608,0.241072,-0.779824,0.511424,218.539993,-37.450001,-245.630005,21.90
685619,0.409432,-0.374784,0.600240,309.119995,-63.840000,-264.880005,21.95
685630,0.499224,0.219600,0.691496,400.119995,-99.750000,-274.119995,21.94
685641,0.580232,0.900360,0.723216,464.940002,-128.449997,-262.989990,21.94
685652,0.630984,1.272704,0.601704,485.589996,-145.460007,-224.699997,21.97
685663,0.666120,1.128256,0.133224,504.279999,-166.250000,-188.369995,21.97
685674,0.656848,1.060912,-0.014640,527.729980,-160.580002,-157.360001,21.93
685686,0.675880,1.576240,-0.188856,419.510010,-128.800003,-101.570000,21.92
685697,0.487024,1.739232,-0.164456,285.040009,-72.730003,-71.889999,21.92
685708,0.589992,1.878800,-0.213744,116.129997,-36.400002,-19.459999,21.93
685719,0.786168,2.121336,-0.424072,-106.400002,5.320000,25.129999,21.93
685730,0.828136,1.998848,-0.476288,-284.339996,37.240002,80.919998,21.96
685742,1.046272,1.405928,-0.428952,-344.260010,77.000000,114.940002,21.96
685753,1.068720,0.836432,-0.328912,-361.970001,96.110001,132.369995,21.95
685764,0.905240,0.466528,-0.073200,-302.049988,96.949997,147.699997,21.89
685775,0.794464,0.352336,0.162504,-211.750000,80.849998,160.789993,21.89
685786,0.836920,0.543632,0.406016,-166.529999,68.040001,174.929993,21.93
685797,0.843264,0.673440,0.539240,-161.699997,71.470001,187.529999,21.93
685808,0.764696,0.691008,0.647576,-203.770004,84.139999,198.029999,21.98
685819,0.636352,0.410408,0.707112,-245.279999,87.150002,214.899994,21.93
685830,0.458232,0.122488,0.804224,-274.959991,88.970001,218.330002,21.93
685841,0.253272,-0.232776,0.854488,-277.480011,77.699997,217.839996,21.94
685852,0.186904,-0.545096,0.919392,-271.880005,64.820000,211.259995,21.94
685863,0.120048,-0.955992,0.938912,-261.170013,58.660000,194.320007,21.96
685874,0.031232,-1.255136,0.928176,-235.410004,51.029999,149.940002,21.94
685885,-0.073200,-1.543056,0.890600,-209.160004,40.950001,129.990005,21.94
685896,-0.146400,-1.965664,0.795440,-167.720001,36.049999,84.070000,21.97
685912,-0.255712,-2.418040,0.610000,-84.699997,23.100000,-6.160000,21.93
685923,-0.226432,-2.537112,0.587064,-11.130000,17.920000,-70.000000,21.93
685934,-0.168848,-2.464888,0.621712,65.870003,8.330000,-132.300003,21.89
685946,-0.055632,-2.001776,0.684664,107.449997,-0.140000,-171.009995,21.89
685957,0.046848,-1.802184,0.578768,141.679993,-5.460000,-214.550003,21.94
685968,0.086376,-1.353224,0.459208,210.350006,-22.120001,-255.850006,21.93
685979,0.179584,-0.750544,0.409432,269.429993,-45.220001,-289.029999,21.93
685990,0.281576,-0.301584,0.403088,360.290009,-67.269997,-308.489990,21.95
686001,0.374784,0.244000,0.450912,470.470001,-107.940002,-312.339996,21.95
686012,0.492880,1.020896,0.492880,562.520020,-151.970001,-298.339996,21.97
686024,0.486536,1.836344,0.553392,608.510010,-202.789993,-244.440002,21.97
686035,0.793976,2.071072,0.124928,574.000000,-174.580002,-184.660004,21.97
686046,1.146312,1.558672,-0.422608,439.109985,-125.580002,-119.629997,21.95
686057,0.490440,1.215608,-0.478728,326.200012,-71.959999,-103.809998,21.95
686069,0.000488,1.919304,-0.371856,243.110001,-39.830002,-63.279999,21.94
686079,0.464088,3.107584,-0.595360,-13.860000,-14.280000,23.030001,21.90
686090,1.107760,3.206648,-0.653432,-345.029999,34.509998,93.239998,21.90
686101,1.199504,1.928088,-0.480192,-456.540009,94.849998,145.250000,21.95
686112,1.074088,0.860832,-0.263520,-433.720001,110.739998,154.000000,21.95
686123,0.952576,0.403088,0.039040,-334.880005,105.000000,165.130005,21.93
686134,0.820328,0.322568,0.296704,-210.139999,74.970001,178.500000,21.93
686145,0.825696,0.514352,0.430904,-156.869995,60.759998,196.490005,21.93
686156,0.816424,0.570960,0.512400,-141.610001,55.930000,206.779999,21.92
686167,0.729560,0.515816,0.609512,-176.820007,68.389999,212.520004,21.92
686178,0.660264,0.287432,0.671000,-214.270004,71.680000,222.740005,21.94
686188,0.377712,0.073688,0.806664,-243.460007,72.169998,222.389999,21.94
686199,0.188368,-0.183488,0.870592,-259.700012,61.669998,224.210007,21.93
686210,0.007320,-0.591456,0.948184,-263.200012,52.080002,213.149994,21.93
686221,0.065392,-0.950136,0.899384,-253.330002,48.580002,192.289993,21.93
686232,0.020984,-1.278072,0.862296,-228.479996,45.360001,161.279999,21.98
686243,-0.056608,-1.557696,0.776408,-197.889999,35.209999,123.900002,21.98
686254,-0.121024,-2.011536,0.609512,-146.089996,32.480000,77.629997,21.93
686265,-0.194712,-2.370704,0.464576,-70.000000,24.990000,28.280001,21.94
686276,-0.223016,-2.568832,0.399184,5.180000,22.120001,-37.799999,21.94
686288,-0.227408,-2.452688,0.492880,64.959999,11.480000,-104.720001,21.92
686299,-0.155184,-2.187216,0.675880,107.800003,5.320000,-156.940002,21.92
686310,-0.038552,-1.979816,0.812520,139.929993,-2.380000,-196.699997,21.91
686321,0.027816,-1.578192,0.826184,178.360001,-15.890000,-240.309998,21.91
686332,0.118096,-1.054568,0.806176,211.119995,-32.900002,-274.260010,21.90
686343,0.229360,-0.634400,0.734928,262.570007,-50.610001,-295.679993,21.94
686354,0.351360,-0.037576,0.659288,326.339996,-80.570000,-309.750000,21.94
686365,0.459696,0.663680,0.590968,395.570007,-120.680000,-306.179993,21.94
686376,0.536800,1.546472,0.497760,486.850006,-144.830002,-275.730011,21.94
686387,0.487024,1.776808,0.261080,539.559998,-192.570007,-229.529999,21.95
686398,1.134600,1.440088,-0.356728,569.590027,-173.740005,-182.210007,21.91
686409,0.857416,0.862296,-0.433832,548.869995,-140.490005,-145.669998,21.91
686420,0.456768,1.502552,-0.690032,493.500000,-125.440002,-110.389999,21.88
686431,0.350384,2.102304,-0.465552,297.149994,-81.199997,-71.050003,21.88
686442,0.519232,2.649352,-0.447008,91.419998,-17.709999,-15.330000,21.89
686453,0.792024,2.932392,-0.711016,-216.789993,27.580000,59.709999,21.94
686464,0.984296,2.413160,-0.845216,-422.309998,79.309998,113.400002,21.94
686475,1.145336,1.287832,-0.715896,-452.410004,121.589996,147.070007,21.96
686486,0.986248,0.528992,-0.421632,-402.429993,130.619995,152.809998,21.96
686497,0.844240,0.376736,-0.080520,-282.519989,116.690002,161.839996,21.94
686508,0.789584,0.483608,0.186904,-178.360001,88.900002,176.960007,21.89
686519,0.842288,0.620248,0.344528,-135.449997,78.330002,193.339996,21.89
686530,0.795440,0.681248,0.464088,-136.429993,82.879997,201.949997,21.91
686540,0.704184,0.609024,0.526552,-167.509995,93.940002,211.259995,21.91
686551,0.512888,0.346480,0.672464,-210.910004,99.680000,221.759995,21.97
686562,0.339648,-0.039040,0.812032,-242.130005,96.389999,226.029999,21.97
686573,0.197152,-0.266448,0.927688,-252.979996,85.820000,223.020004,21.94
686584,0.127856,-0.514352,0.969656,-262.359985,77.000000,219.309998,21.90
686595,0.044408,-0.833504,0.961848,-253.750000,70.629997,204.820007,21.90
686606,-0.015128,-1.006744,0.935984,-229.949997,56.700001,182.839996,21.91
686618,-0.073688,-1.157048,0.883280,-207.619995,50.049999,157.850006,21.91
686629,-0.063440,-1.537200,0.805688,-177.449997,48.090000,118.720001,21.92
686640,-0.246440,-2.038376,0.750544,-134.750000,44.240002,62.860001,21.90
686651,-0.169336,-2.403400,0.759328,-62.790001,29.889999,4.760000,21.90
686662,-0.147376,-2.444880,0.809104,-2.030000,19.459999,-44.029999,21.97
686673,-0.100528,-2.289208,0.910608,23.030001,12.810000,-94.989998,21.97
686684,-0.046848,-2.010560,0.959408,32.410000,11.970000,-141.190002,21.88
686695,0.033672,-1.806088,0.961848,15.680000,13.230000,-179.619995,21.87
686706,0.040016,-1.708488,0.753960,31.150000,7.070000,-210.279999,21.87
686717,0.050752,-1.313696,0.711504,55.439999,-3.360000,-247.169998,21.88
686728,0.079056,-0.906704,0.556808,92.680000,-14.490000,-277.200012,21.88
686739,0.148352,-0.599264,0.408456,161.699997,-31.920000,-302.679993,21.92
686750,0.219112,-0.253760,0.318664,267.679993,-59.290001,-319.760010,21.93
686761,0.331352,0.348432,0.226432,407.750000,-97.019997,-329.559998,21.93
686772,0.393328,1.015528,0.045384,518.840027,-143.220001,-327.880005,21.86
686783,0.590480,1.469856,-0.264008,624.960022,-172.830002,-258.510010,21.86
686795,0.554368,1.623576,-0.212280,702.099976,-189.559998,-228.830002,21.87
686806,0.869616,2.212592,-0.553392,673.820007,-164.850006,-172.199997,21.87
686817,0.807152,2.382904,-0.378688,461.160004,-120.190002,-122.430000,21.87
686828,0.421632,1.981768,-0.218624,308.420013,-46.270000,-95.059998,21.86
686839,0.091256,2.164280,-0.513376,124.879997,-15.260000,-32.549999,21.86
686851,0.693448,2.791360,-0.691008,-184.449997,31.780001,29.959999,21.93
686862,0.912560,2.363872,-0.879376,-411.950012,76.860001,104.580002,21.93
686873,1.051640,1.372744,-0.816424,-440.230011,117.879997,150.919998,21.84
686884,1.119960,0.834968,-0.496296,-388.779999,142.660004,156.100006,21.88
686895,1.001376,0.752496,-0.165432,-308.350006,141.050003,164.570007,21.88
686906,0.812032,0.927200,0.232776,-242.270004,113.889999,191.660004,21.90
686917,0.810080,1.100440,0.383080,-191.589996,100.519997,218.470001,21.90
686930,0.694912,0.914024,0.481168,-191.800003,100.239998,235.690002,21.91
686941,0.563640,0.532896,0.529480,-193.899994,103.809998,243.600006,21.93
686952,0.454816,0.323056,0.632448,-210.979996,101.779999,253.539993,21.93
686963,0.277672,0.221552,0.950136,-249.270004,102.550003,261.730011,21.91
686974,0.034160,-0.052216,1.036024,-300.440002,95.480003,265.369995,21.91
686985,-0.090768,-0.632936,1.094096,-295.329987,83.230003,261.869995,21.89
686996,-0.168848,-1.039440,1.054568,-269.359985,65.309998,242.970001,21.91
687007,-0.236192,-1.445456,0.973072,-216.440002,48.299999,206.570007,21.91
687018,-0.344040,-1.793888,0.884256,-157.919998,34.930000,160.160004,21.89
687029,-0.400160,-2.143296,0.808128,-111.650002,23.660000,104.440002,21.89
687040,-0.369416,-2.397544,0.837896,-51.590000,16.870001,50.610001,21.89
687051,-0.330864,-2.545408,0.934032,-4.060000,8.120000,-16.100000,21.90
687062,-0.233752,-2.456592,1.056520,21.350000,1.680000,-75.669998,21.90
687073,-0.054168,-2.315560,1.121912,35.139999,2.800000,-143.639999,21.93
687084,-0.094672,-2.019832,1.048712,27.440001,-11.970000,-152.809998,21.93
687095,0.044896,-1.714832,0.832528,15.470000,5.180000,-198.100006,21.93
687106,-0.035624,-1.351760,0.641720,18.410000,-0.910000,-230.649994,21.91
687118,0.072224,-1.140456,0.304024,65.730003,-2.030000,-264.529999,21.91
687128,0.108336,-0.808616,0.190808,152.460007,-21.490000,-293.579987,21.88
687140,0.201056,-0.271816,0.196176,281.049988,-52.639999,-319.200012,21.88
687151,0.351360,0.304512,0.261568,394.170013,-96.739998,-327.670013,21.93
687162,0.494344,0.925248,0.259128,540.400024,-137.059998,-329.420013,21.89
687172,0.452864,1.426912,0.287432,674.450012,-201.110001,-301.279999,21.89
687183,0.788120,2.033496,0.196664,710.219971,-214.059998,-257.880005,21.89
687194,1.012600,1.401536,-0.370880,711.059998,-193.270004,-195.509995,21.89
687205,0.753960,0.769088,-0.601216,677.739990,-136.149994,-172.619995,21.89
687217,0.104432,1.619184,-0.761280,558.599976,-110.809998,-118.790001,21.89
687228,-0.059048,2.650328,-0.713456,330.470001,-61.740002,-59.570000,21.88
687239,0.436760,3.378912,-0.850096,-54.320000,-6.160000,18.129999,21.92
687250,0.748104,3.139304,-1.001376,-433.299988,65.239998,74.620003,21.92
687261,1.037976,2.061800,-1.014064,-555.380005,115.500000,140.210007,21.94
687272,1.217560,1.093120,-0.747128,-537.250000,149.660004,161.419998,21.94
687283,1.065304,0.632936,-0.332816,-445.549988,146.649994,168.070007,21.92
687294,0.838872,0.571448,0.163968,-295.820007,109.690002,186.830002,21.87
687305,0.821304,0.820816,0.501664,-215.110001,74.690002,220.570007,21.87
687315,0.941840,1.006744,0.640744,-181.929993,73.220001,241.009995,21.89
687326,0.710040,0.995032,0.732488,-219.240005,77.489998,249.270004,21.89
687337,0.578280,0.686128,0.817888,-252.490005,77.559998,266.910004,21.91
687348,0.370392,0.378688,0.852536,-289.239990,70.279999,271.670013,21.92
687359,0.139080,0.151280,0.921344,-319.059998,58.730000,276.570007,21.92
687370,0.001464,-0.244000,0.926224,-329.769989,50.119999,269.920013,21.88
687381,-0.082960,-0.605608,0.874496,-314.649994,40.389999,254.449997,21.88
687392,-0.125416,-0.961360,0.785680,-274.260010,29.889999,223.160004,21.90
687403,-0.193248,-1.245864,0.625128,-230.789993,20.580000,182.699997,21.90
687414,-0.189832,-1.528904,0.424072,-173.809998,14.770000,145.600006,21.89
687425,-0.122976,-1.917840,0.237656,-103.250000,16.799999,104.580002,21.88
687436,-0.214720,-2.281400,0.209840,-23.450001,10.430000,46.130001,21.88
687447,-0.031720,-2.561024,0.172264,43.049999,11.620000,-16.730000,21.87
687458,-0.108824,-2.179408,0.357704,88.129997,-3.570000,-71.750000,21.87
687469,0.077104,-2.304824,0.363072,105.699997,17.639999,-115.989998,21.89
687480,-0.015616,-2.033008,0.461648,116.059998,13.300000,-170.309998,21.91
687491,0.030256,-1.716784,0.542168,132.649994,13.650000,-208.809998,21.91
687502,0.136152,-1.521584,0.484096,173.669998,7.070000,-252.699997,21.90
687513,0.130784,-1.095560,0.518256,257.040009,-15.960000,-284.690002,21.90
687524,0.223504,-0.524600,0.581696,331.869995,-47.740002,-316.820007,21.84
687535,0.347944,-0.012688,0.622200,423.500000,-77.980003,-331.869995,21.89
687546,0.468968,0.410408,0.571448,531.229980,-122.220001,-335.510010,21.89
687557,0.563640,0.898896,0.486048,667.799988,-169.470001,-317.029999,21.90
687568,0.405528,1.188280,0.182024,773.640015,-221.619995,-268.519989,21.90
687579,0.700280,1.236104,-0.448960,861.979980,-211.119995,-218.750000,21.91
687590,0.595848,1.261480,-0.686128,889.630005,-218.539993,-160.580002,21.88
687601,0.540216,1.942240,-0.939400,722.539978,-142.309998,-112.419998,21.88
687612,0.249856,2.489776,-1.120448,447.790009,-97.650002,-66.989998,21.88
687623,0.178120,2.350696,-1.124840,71.820000,-33.180000,-18.340000,21.88
687635,0.324520,2.333128,-1.412272,-261.309998,25.620001,11.690000,21.91
687645,0.786168,2.272128,-1.414712,-525.979980,75.529999,59.430000,21.91
687656,1.188768,1.713856,-1.076528,-603.890015,129.990005,118.089996,21.92
687667,1.262456,1.310768,-0.672464,-583.380005,173.740005,135.869995,21.89
687678,0.889136,1.068720,-0.062952,-512.890015,157.779999,168.839996,21.89
687689,0.715408,1.108736,0.436272,-434.769989,114.589996,206.570007,21.87
687700,0.834480,1.096048,0.556808,-383.739990,95.690002,241.570007,21.87
687711,0.798856,0.831552,0.659288,-375.690002,87.989998,258.089996,21.89
687722,0.666608,0.530944,0.744688,-374.989990,79.099998,268.730011,21.89
687733,0.594872,0.494344,0.699304,-387.799988,73.150002,281.470001,21.89
687744,0.444080,0.441640,0.619760,-426.160004,72.519997,286.859985,21.91
687755,0.242048,0.245464,0.552904,-438.549988,70.070000,288.260010,21.91
687765,0.020496,-0.103944,0.469456,-428.399994,62.790001,275.519989,21.87
687776,-0.118096,-0.570472,0.368928,-366.589996,52.849998,244.020004,21.87
687787,-0.216184,-0.958432,0.230336,-297.640015,43.049999,201.179993,21.86
687798,-0.246928,-1.440088,0.054656,-178.080002,31.780001,153.229996,21.89
687809,-0.223504,-1.947120,0.018544,-42.840000,15.400000,108.080002,21.89
687820,-0.093208,-2.205760,0.122488,51.310001,3.430000,53.480000,21.87
687831,-0.028792,-2.196488,0.410896,113.470001,-17.709999,4.690000,21.87
687843,0.047336,-2.107184,0.777384,122.779999,3.010000,-39.619999,21.86
687854,0.068320,-2.045696,0.935984,86.940002,12.460000,-70.279999,21.87
687865,0.051240,-1.972008,0.906216,47.250000,20.790001,-107.940002,21.87
687876,0.045384,-1.907592,0.695400,40.250000,24.360001,-152.460007,21.88
687887,0.067832,-1.631872,0.336720,61.320000,28.139999,-194.529999,21.88
687898,0.042944,-1.458632,0.033184,125.650002,21.770000,-231.490005,21.86
687909,0.100040,-1.105320,0.100528,208.669998,3.710000,-270.829987,21.89
687920,0.144448,-0.664656,0.203496,347.410004,-21.910000,-307.440002,21.89
687937,0.326960,0.307440,0.521672,562.309998,-100.029999,-331.660004,21.89
687948,0.355752,1.098976,0.544120,660.520020,-177.169998,-314.790009,21.88
687959,0.577304,1.895880,0.457744,711.690002,-210.630005,-263.549988,21.88
687970,1.034560,2.134512,0.105896,650.719971,-181.509995,-208.809998,21.87
687981,1.016504,1.582584,-0.333304,569.450012,-153.020004,-155.610001,21.87
687992,0.450424,1.439600,-0.550464,483.559998,-116.199997,-128.309998,21.85
688004,0.103944,2.093032,-0.588040,360.290009,-80.080002,-76.160004,21.86
688015,0.475800,2.956792,-0.682224,62.020000,-27.160000,-12.740000,21.86
688026,0.888160,2.918240,-0.873032,-242.059998,38.639999,45.220001,21.89
688037,0.864248,1.980792,-0.831552,-357.839996,87.220001,83.790001,21.89
688048,1.011624,1.345904,-0.603168,-359.589996,111.860001,103.529999,21.88
688059,1.061400,1.163880,-0.372832,-338.940002,125.230003,142.029999,21.84
688070,0.856928,0.932568,-0.037088,-282.660004,110.669998,154.559998,21.84
688081,0.801784,0.991616,0.136152,-242.410004,98.629997,181.440002,21.89
688092,0.797392,1.081408,0.427488,-243.179993,96.389999,205.100006,21.89
688103,0.665632,0.892552,0.635864,-264.600006,100.870003,224.070007,21.90
688114,0.562664,0.637328,0.886208,-291.410004,99.330002,240.729996,21.88
688124,0.447008,0.461160,1.048712,-322.279999,85.400002,254.869995,21.88
688135,0.322568,0.282552,1.102392,-346.010010,75.459999,263.619995,21.88
688147,0.246440,0.062952,1.017968,-375.480011,63.910000,269.220001,21.88
688157,0.157136,-0.245952,0.868640,-392.559998,61.250000,264.880005,21.87
688169,0.017568,-0.673928,0.711504,-379.890015,55.299999,240.449997,21.85
688180,-0.152744,-1.074088,0.551440,-350.000000,45.500000,205.729996,21.85
688191,-0.240096,-1.650904,0.329400,-284.480011,35.560001,158.410004,21.86
688202,-0.262056,-2.007632,0.217160,-175.910004,28.910000,93.519997,21.86
688213,-0.236192,-2.231624,0.173240,-69.580002,14.910000,45.500000,21.89
688224,-0.170800,-2.456592,0.178120,26.950001,12.180000,-19.950001,21.89
688235,-0.122976,-2.540040,0.256688,91.559998,5.110000,-84.070000,21.86
688246,-0.058560,-2.142320,0.455792,149.169998,-2.310000,-136.570007,21.89
688258,0.030256,-1.847080,0.580720,155.889999,1.050000,-171.850006,21.89
688269,0.107360,-1.561600,0.546072,169.470001,0.420000,-207.970001,21.87
688280,0.150792,-1.242448,0.452376,214.970001,-11.340000,-246.399994,21.87
688291,0.204472,-0.772992,0.330376,318.779999,-29.540001,-282.589996,21.87
688302,0.278160,-0.380152,0.347944,461.790009,-68.669998,-304.640015,21.86
688313,0.375760,0.265960,0.436760,617.539978,-120.120003,-314.790009,21.86
688324,0.432368,0.755912,0.341600,725.900024,-213.149994,-302.470001,21.87
688335,0.604632,0.902800,0.013664,901.739990,-251.089996,-278.390015,21.87
688346,0.823744,1.097512,-0.259616,1028.790039,-275.519989,-247.100006,21.87
688357,0.804712,1.618208,-0.604632,1059.030029,-271.950012,-185.639999,21.87
688368,1.005280,1.950048,-0.585600,934.150024,-190.119995,-86.099998,21.87
688379,0.272792,1.830000,-0.564616,682.919983,-155.119995,-66.080002,21.84
688390,-0.125416,1.597712,-0.824720,379.609985,-77.559998,-61.950001,21.84
688401,-0.358192,1.366888,-1.246840,56.000000,-25.129999,-30.240000,21.89
688413,0.253760,1.367864,-1.805600,-209.160004,15.750000,-16.730000,21.86
688424,0.829600,1.461560,-1.909056,-458.079987,41.299999,-3.430000,21.86
688435,1.127280,1.231224,-1.387384,-569.520020,100.029999,26.320000,21.89
688446,1.311744,1.154120,-0.998448,-584.359985,166.600006,62.090000,21.89
688457,1.022848,1.229272,-0.321104,-562.099976,177.029999,98.839996,21.84
688468,0.810080,1.299544,0.212280,-507.989990,166.600006,140.979996,21.84
688479,0.846680,1.301984,0.441640,-474.670013,148.820007,173.740005,21.84
688490,0.814960,0.986248,0.610000,-462.839996,139.229996,199.009995,21.91
688500,0.691984,0.646112,0.693448,-446.600006,126.139999,212.029999,21.91
688511,0.622200,0.420168,0.711504,-440.929993,102.199997,227.009995,21.84
688522,0.592920,0.358192,0.799832,-458.920013,88.900002,239.259995,21.84
688533,0.490440,0.374296,0.763232,-499.450012,88.199997,250.320007,21.85
688545,0.350872,0.237168,0.647576,-540.750000,86.800003,259.630005,21.85
688556,0.166408,-0.199104,0.669536,-537.599976,81.199997,252.139999,21.85
688567,0.030256,-0.716384,0.590968,-486.850006,65.099998,221.830002,21.84
688578,0.018056,-0.992104,0.514352,-372.540009,50.259998,175.350006,21.84
688589,-0.022448,-1.107760,0.347456,-262.079987,36.470001,139.509995,21.88
688600,-0.058072,-1.274168,0.160552,-161.559998,25.969999,97.650002,21.85
688611,-0.058560,-1.625040,-0.022936,-82.180000,21.559999,51.450001,21.85
688622,-0.058072,-1.976888,-0.004880,27.719999,15.540000,1.540000,21.91
688633,0.027816,-2.068144,0.226920,107.309998,9.100000,-40.040001,21.91
688644,0.107360,-2.001776,0.488488,158.690002,7.490000,-86.239998,21.87
688655,0.117608,-1.789496,0.756888,147.000000,7.910000,-125.510002,21.87
688666,0.147376,-1.626504,0.871568,123.620003,10.360000,-150.570007,21.87
688677,0.147376,-1.619184,0.785680,122.360001,11.270000,-184.169998,21.92
688688,0.121512,-1.469368,0.551440,167.369995,-1.750000,-229.320007,21.92
688699,0.116632,-0.925248,0.445056,252.910004,-19.040001,-267.750000,21.87
688710,0.224968,-0.580720,0.418216,356.019989,-45.709999,-294.489990,21.87
688721,0.292800,-0.062952,0.495320,483.209991,-87.639999,-315.350006,21.87
688732,0.407480,0.556808,0.480192,592.900024,-137.270004,-320.390015,21.86
688743,0.405528,1.188768,0.227408,724.780029,-191.520004,-290.989990,21.86
688754,0.580232,1.765584,0.120536,765.520020,-220.919998,-249.550003,21.86
688765,1.005768,2.305800,-0.175680,663.809998,-207.059998,-160.160004,21.86
688776,0.921832,1.498648,-0.327936,557.340027,-136.919998,-138.600006,21.82
688787,0.222528,1.138992,-0.536312,445.760010,-95.620003,-114.800003,21.85
688798,-0.416752,1.917352,-0.719312,287.700012,-72.940002,-73.989998,21.85
688810,0.456280,3.089040,-0.873520,-82.809998,-29.469999,12.180000,21.87
688821,0.996984,2.821128,-0.963312,-395.709991,54.740002,70.559998,21.87
688832,1.083848,1.845128,-0.917928,-515.969971,106.260002,124.739998,21.82
688843,1.127280,1.224392,-0.561688,-517.369995,134.119995,142.589996,21.85
688854,1.138992,0.866688,-0.174704,-453.950012,137.619995,158.199997,21.85
688865,0.925248,1.040904,0.222528,-403.339996,111.300003,189.630005,21.87
688876,0.850584,1.141432,0.497760,-355.809998,90.580002,224.839996,21.87
688887,0.863760,1.055056,0.518256,-345.589996,83.160004,245.770004,21.85
688898,0.716872,0.916952,0.597312,-348.950012,84.489998,256.130005,21.86
688909,0.560712,0.825208,0.647576,-364.839996,78.190002,267.329987,21.86
688920,0.424560,0.716872,0.627568,-391.649994,82.949997,276.989990,21.85
688931,0.127368,0.310368,0.562176,-408.029999,82.739998,277.690002,21.85
688953,-0.181048,-0.725656,0.439688,-288.119995,44.869999,232.119995,21.82
688964,-0.148352,-1.081896,0.384056,-189.279999,25.200001,194.389999,21.82
688975,-0.132736,-1.356640,0.392352,-91.559998,10.220000,155.470001,21.86
688986,-0.105896,-1.563064,0.480680,-27.650000,1.960000,116.199997,21.86
688998,-0.036600,-1.772904,0.662704,26.389999,-3.640000,77.559998,21.83
689009,0.009760,-1.939312,0.868152,48.299999,-3.570000,38.080002,21.86
689020,0.008784,-2.073512,0.980392,45.080002,-2.660000,4.970000,21.86
689031,0.026352,-2.154520,1.015040,36.820000,0.770000,-37.590000,21.84
689042,-0.007320,-2.054968,0.918904,12.810000,-1.960000,-80.430000,21.84
689054,0.004392,-2.069608,0.712480,19.670000,5.740000,-128.729996,21.85
689065,-0.057096,-1.769000,0.481168,39.410000,3.780000,-171.360001,21.88
689078,0.032696,-1.580632,0.191784,105.910004,5.390000,-214.410004,21.88
689090,0.037576,-1.251232,0.033672,209.229996,-8.190000,-255.429993,21.90
689102,0.122488,-0.864736,0.077104,358.890015,-37.099998,-293.089996,21.83
689114,0.219112,-0.141520,0.275720,512.539978,-85.120003,-322.839996,21.83
689127,0.335744,0.564616,0.458232,633.989990,-160.440002,-326.549988,21.84
689139,0.406016,1.142408,0.320128,767.549988,-237.860001,-306.670013,21.83
689151,0.746152,1.494256,0.129808,834.890015,-260.609985,-253.330002,21.83
689163,0.883768,1.875384,-0.390888,811.159973,-236.179993,-204.259995,21.83
689176,0.656848,1.017480,-0.543632,822.710022,-181.649994,-200.970001,21.87
689189,0.113216,1.061400,-0.829600,759.570007,-145.600006,-65.589996,21.87
689200,-0.202520,2.358016,-1.078480,480.760010,-148.889999,-55.439999,21.85
689212,0.498248,2.007632,-1.276608,-13.370000,-38.919998,-20.440001,21.85
689224,0.158112,1.357616,-1.592344,-304.500000,47.040001,-10.150000,21.86
689235,0.677832,1.652368,-1.551840,-543.760010,67.059998,36.820000,21.86
689246,1.278560,1.340536,-1.179496,-637.770020,152.460007,87.779999,21.86
689257,1.294176,1.283928,-0.683688,-629.859985,203.839996,103.320000,21.86
689268,0.954528,1.308816,0.040016,-596.260010,180.669998,155.539993,21.86
689279,0.722728,1.330288,0.453352,-493.989990,144.759995,184.309998,21.87
689290,0.886208,1.321504,0.636352,-444.709991,115.080002,223.580002,21.86
689301,0.952576,1.188280,0.610000,-427.279999,114.029999,248.639999,21.86
689312,0.798368,1.053104,0.711992,-462.420013,107.379997,264.040009,21.85
689323,0.592920,0.856440,0.627080,-489.649994,105.910004,282.730011,21.85
689334,0.394792,0.501664,0.502640,-517.159973,99.470001,297.429993,21.82
689345,0.093696,0.190808,0.531920,-498.470001,84.139999,290.989990,21.84
689356,-0.081496,-0.229360,0.481656,-436.589996,59.990002,273.279999,21.84
689367,-0.141520,-0.594872,0.436272,-363.230011,41.580002,239.679993,21.83
689378,-0.168360,-1.044320,0.307928,-259.350006,30.660000,196.630005,21.83
689389,-0.237168,-1.372256,0.198616,-137.830002,12.810000,150.289993,21.87
689400,-0.183976,-1.685552,0.177144,-34.090000,-0.420000,112.699997,21.84
689411,-0.090768,-1.882216,0.288408,16.870001,-0.770000,69.370003,21.84
689422,-0.062464,-2.078392,0.549000,50.189999,1.470000,27.930000,21.86
689433,-0.008296,-2.233088,0.801296,58.450001,4.270000,-8.680000,21.86
689445,0.039040,-2.185752,0.964776,34.509998,8.960000,-51.029999,21.83
689456,0.017568,-2.181360,0.905240,3.640000,16.940001,-95.410004,21.83
689467,-0.024400,-1.986160,0.713944,-1.960000,21.840000,-143.500000,21.83
689478,-0.001464,-1.785592,0.399184,10.500000,27.299999,-189.559998,21.81
689490,0.008784,-1.626992,0.067344,66.570000,27.299999,-231.770004,21.81
689501,0.021960,-1.327848,-0.080032,178.779999,11.900000,-268.239990,21.84
689511,0.141032,-0.819840,-0.037088,305.619995,-20.440001,-313.529999,21.84
689523,0.220576,-0.038552,0.261080,470.540009,-56.279999,-343.209991,21.82
689534,0.354776,0.637328,0.602192,619.780029,-115.849998,-349.369995,21.80
689545,0.417728,1.603568,0.681248,729.260010,-182.419998,-330.890015,21.80
689556,0.664168,1.814384,0.353800,795.760010,-212.800003,-279.579987,21.85
689570,0.711016,1.436184,-0.259616,857.289978,-225.679993,-200.479996,21.80
689582,0.853512,1.602104,-1.134112,808.500000,-191.589996,-144.270004,21.80
689593,0.016592,1.811456,-0.536312,649.250000,-152.179993,-106.820000,21.87
689604,0.251320,2.981680,-0.667584,402.149994,-75.599998,-53.130001,21.87
689616,0.787144,2.804048,-1.155584,-162.119995,16.660000,32.340000,21.81
689627,0.623176,2.111576,-1.351272,-485.799988,75.320000,64.260002,21.85
689638,0.992104,1.657736,-1.227808,-589.609985,134.889999,112.139999,21.85
689649,1.169736,1.550376,-0.782752,-615.090027,163.520004,140.419998,21.83
689659,0.999912,1.397632,-0.225456,-591.289978,189.770004,144.339996,21.83
689670,0.812032,1.186328,0.043920,-543.340027,138.809998,204.259995,21.80
689681,0.627568,0.904752,0.495320,-444.220001,106.190002,231.630005,21.86
689692,0.667584,0.748592,0.715896,-373.799988,85.050003,252.210007,21.86
689703,0.662216,0.567056,0.798368,-344.470001,72.029999,263.269989,21.81
689714,0.552904,0.514840,0.775920,-340.619995,65.730003,267.470001,21.81
689725,0.492880,0.455304,0.657824,-374.220001,66.500000,278.320007,21.86
689736,0.200080,0.065880,0.608536,-387.309998,64.540001,274.049988,21.86
689747,-0.040016,-0.371368,0.558272,-364.000000,43.820000,258.299988,21.79
689758,-0.083936,-0.730048,0.486536,-306.529999,29.820000,230.580002,21.82
689769,-0.084912,-0.943304,0.412360,-238.419998,25.270000,201.320007,21.82
689781,-0.164456,-1.177544,0.369904,-165.130005,20.230000,162.750000,21.82
689792,-0.180072,-1.469368,0.302072,-91.349998,12.670000,124.110001,21.82
689803,-0.119560,-1.948584,0.268400,-35.209999,10.290000,77.629997,21.84
689814,-0.088328,-2.279936,0.336720,34.790001,8.050000,21.700001,21.79
689825,-0.038552,-2.259440,0.545096,69.300003,6.090000,-18.690001,21.79
689836,0.013176,-2.161840,0.684664,66.709999,11.270000,-64.330002,21.82
689847,0.013664,-1.977376,0.732488,49.209999,22.540001,-102.480003,21.82
689858,0.032696,-1.948096,0.630496,42.560001,25.200001,-154.770004,21.83
689869,0.080520,-1.592832,0.498736,38.150002,32.689999,-172.830002,21.86
689880,0.113216,-1.376648,0.226920,49.000000,38.150002,-206.360001,21.86
689891,0.129808,-1.168272,0.002440,116.269997,32.130001,-244.229996,21.84
689903,0.159088,-0.858880,-0.010248,235.199997,16.379999,-283.359985,21.84
689914,0.180560,-0.390888,0.134200,395.079987,-19.809999,-310.799988,21.84
689925,0.272792,0.249368,0.378200,530.039978,-72.099998,-329.910004,21.84
689935,0.407968,1.006744,0.515816,671.090027,-118.230003,-327.739990,21.84
689946,0.456768,1.552328,0.695888,769.719971,-189.630005,-301.700012,21.83
689958,0.802760,2.250168,0.479704,773.640015,-199.289993,-241.850006,21.83
689974,1.020896,1.330776,-0.405040,666.260010,-151.759995,-164.779999,21.81
689985,0.177144,1.018456,-0.341112,657.580017,-108.989998,-151.899994,21.84
689996,-0.129320,2.354600,-0.555832,513.869995,-89.389999,-88.339996,21.84
690007,0.374784,3.149552,-0.747128,94.779999,-42.209999,-17.570000,21.84
690018,0.838384,2.858216,-0.871568,-309.540009,30.309999,42.209999,21.83
690029,0.860832,2.005192,-0.837408,-471.730011,86.099998,88.830002,21.83
690040,1.078480,1.554280,-0.551440,-522.409973,115.010002,116.550003,21.84
690051,1.103856,1.297592,-0.259616,-512.330017,136.990005,130.970001,21.84
690062,0.848632,1.101416,0.173728,-467.670013,114.800003,164.289993,21.83
690073,0.673440,0.944280,0.457744,-378.910004,91.209999,189.559998,21.80
690084,0.709552,0.968680,0.749080,-323.679993,64.820000,210.839996,21.80
690095,0.685640,0.826184,0.679296,-286.790009,60.970001,223.720001,21.79
690106,0.567544,0.663192,0.728096,-296.170013,55.439999,227.429993,21.79
690117,0.495320,0.562664,0.727608,-309.119995,49.910000,236.809998,21.85
690127,0.381616,0.364536,0.672952,-328.720001,49.700001,244.929993,21.85
690138,0.227896,0.069784,0.658800,-341.880005,46.619999,243.110001,21.87
690149,0.072712,-0.106872,0.608536,-325.359985,36.750000,234.850006,21.81
690160,0.084424,-0.360144,0.572424,-295.890015,26.459999,220.570007,21.81
690171,0.113704,-0.661240,0.516792,-257.320007,22.049999,195.860001,21.80
690182,0.081984,-0.901336,0.461648,-200.899994,18.270000,165.970001,21.80
690194,0.050264,-1.130696,0.391864,-135.800003,10.150000,139.649994,21.86
690205,0.037088,-1.443016,0.331840,-78.540001,8.610000,104.860001,21.82
690215,0.019520,-1.772416,0.299144,-33.740002,8.610000,63.770000,21.82
690227,0.029768,-2.006656,0.246440,4.130000,14.980000,21.280001,21.82
690238,-0.023424,-2.313608,0.275720,39.340000,16.590000,-23.379999,21.82
690249,-0.013664,-2.600064,0.220576,74.410004,18.549999,-83.930000,21.80
690260,-0.105896,-2.195024,0.349408,110.599998,18.200001,-140.910004,21.75
690271,-0.052704,-2.103280,0.332816,139.580002,23.660000,-185.289993,21.75
690282,-0.088328,-1.728008,0.458720,209.300003,12.600000,-238.979996,21.84
690294,-0.000976,-1.174616,0.601704,300.230011,-13.300000,-285.179993,21.84
690305,0.188368,-0.449448,0.757864,394.380005,-46.270000,-317.170013,21.80
690317,0.413336,0.357216,0.812520,484.049988,-83.860001,-328.369995,21.75
690328,0.548512,1.290272,0.824720,554.890015,-122.220001,-312.829987,21.75
690339,0.591456,1.264408,0.272304,667.450012,-153.509995,-269.220001,21.77
690350,0.666120,1.076528,-0.496296,845.599976,-208.809998,-240.100006,21.77
690361,0.545584,1.119960,-0.555832,987.210022,-247.729996,-192.779999,21.80
690372,0.483608,1.869040,-0.753960,961.940002,-214.550003,-181.509995,21.82
690383,0.715408,2.024712,-0.431880,728.000000,-159.389999,-61.740002,21.82
690394,-0.129808,2.294576,-0.564616,445.339996,-96.809998,-112.769997,21.81
690405,0.203008,2.467816,-0.912560,-7.420000,-35.070000,-27.719999,21.81
690417,0.467504,2.053504,-1.322480,-328.859985,63.840000,48.650002,21.81
690428,0.662704,1.653832,-1.517680,-562.099976,88.339996,95.620003,21.77
690439,1.308328,1.359080,-1.051640,-658.840027,154.490005,120.470001,21.77
690449,1.206824,1.217072,-0.459696,-678.090027,194.389999,135.589996,21.80
690461,1.082384,1.439600,-0.019032,-673.679993,184.449997,172.550003,21.80
690472,0.742248,1.179984,0.526064,-621.599976,142.309998,232.119995,21.80
690483,0.656360,0.915488,0.779824,-540.960022,110.599998,254.309998,21.79
690494,0.743224,0.730048,0.764208,-500.149994,85.120003,278.739990,21.79
690505,0.701744,0.478728,0.706136,-474.320007,71.470001,282.869995,21.75
690516,0.590480,0.364536,0.637328,-465.640015,68.879997,285.600006,21.75
690527,0.414800,0.168848,0.452376,-460.109985,63.770000,281.329987,21.79
690538,0.132248,-0.130296,0.291336,-437.290009,56.700001,260.329987,21.79
690549,-0.086864,-0.511912,0.156160,-358.540009,44.380001,225.050003,21.77
690560,-0.238632,-0.930616,0.053680,-241.500000,31.920000,187.250000,21.75
690571,-0.334280,-1.234640,0.044408,-98.769997,13.160000,142.660004,21.75
690582,-0.239120,-1.604544,0.135664,-0.210000,-5.040000,97.860001,21.81
690593,-0.045384,-1.877336,0.402600,98.419998,-10.290000,50.959999,21.81
690605,0.085400,-1.848544,0.808616,131.039993,-11.200000,14.490000,21.82
690616,0.149816,-1.752896,1.118008,105.559998,-7.840000,-9.450000,21.79
690627,0.156160,-1.736792,1.195112,50.540001,2.520000,-34.860001,21.79
690638,0.107360,-1.851960,1.062864,18.270000,11.830000,-69.650002,21.84
690649,0.061000,-1.802184,0.749568,-5.180000,11.760000,-103.040001,21.84
690660,0.110288,-1.749968,0.299144,7.840000,17.850000,-135.729996,21.81
690671,0.073200,-1.590880,0.071736,62.090000,19.530001,-180.529999,21.77
690682,0.063928,-1.312232,-0.062464,128.449997,12.180000,-221.059998,21.77
690693,0.110288,-1.101904,-0.056120,253.259995,-0.560000,-263.970001,21.86
690705,0.122488,-0.653432,0.160064,410.059998,-31.010000,-294.839996,21.86
690716,0.207888,0.032696,0.375272,559.020020,-77.559998,-318.429993,21.80
690727,0.478240,0.768600,0.536800,652.820007,-130.759995,-319.130005,21.84
690738,0.375760,1.388848,0.605120,750.750000,-196.070007,-292.739990,21.84
690749,0.734928,2.172576,0.344528,766.780029,-208.179993,-248.289993,21.84
690760,1.031632,2.112552,-0.116632,693.770020,-182.139999,-194.880005,21.84
690771,0.705160,0.959896,-0.055632,694.750000,-133.979996,-197.889999,21.83
690783,-0.245464,1.090680,-0.351848,634.760010,-129.990005,-119.279999,21.76
690795,0.042456,2.373144,-0.942328,435.190002,-111.790001,-61.950001,21.76
690806,0.746640,2.668872,-0.927688,-20.090000,-19.250000,-2.520000,21.75
690817,0.434808,2.415600,-0.981856,-374.359985,49.000000,35.910000,21.75
690827,0.868152,2.197464,-0.921344,-576.590027,102.480003,99.260002,21.82
690838,1.233664,1.753872,-0.600240,-656.530029,144.690002,148.119995,21.77
690849,1.175104,1.374696,-0.110288,-691.880005,170.380005,166.600006,21.77
690860,0.947696,1.194624,0.315736,-685.650024,155.399994,210.910004,21.82
690871,0.731024,0.886696,0.718824,-628.320007,96.949997,257.040009,21.82
690882,0.746152,0.718336,0.794464,-555.869995,80.849998,279.510010,21.82
690893,0.816424,0.630984,0.767136,-513.729980,61.110001,292.250000,21.79
690904,0.711504,0.630496,0.666608,-500.989990,56.700001,292.950012,21.79
690915,0.517768,0.599752,0.473848,-493.640015,63.139999,283.010010,21.77
690926,0.168360,0.222528,0.231800,-452.410004,64.120003,266.769989,21.77
690937,-0.309880,-0.531432,-0.029280,-361.130005,49.910000,221.410004,21.80
690948,-0.508008,-1.164856,-0.222040,-186.899994,15.610000,170.309998,21.80
690959,-0.352336,-1.545984,-0.323056,-8.540000,-11.340000,128.169998,21.77
690970,-0.071248,-1.839760,0.039040,124.320000,-20.090000,76.370003,21.75
690982,0.087352,-1.828048,0.630984,170.169998,-20.160000,38.639999,21.75
690996,0.161040,-1.686528,1.479616,122.010002,-12.180000,6.370000,21.80
691007,0.108336,-1.854400,1.521096,47.110001,-1.330000,-16.799999,21.79
691018,0.048800,-1.887584,1.325408,11.690000,2.380000,-47.110001,21.79
691029,0.069296,-1.842200,0.826672,-12.390000,7.000000,-85.050003,21.77
691040,0.083448,-1.798768,0.328424,24.290001,5.740000,-123.339996,21.77
