timestamp_ms,ax,ay,az,gx,gy,gz,tempC
378308,0.122000,0.080520,1.216584,48.090000,-108.639999,59.779999,22.24
378319,0.145424,0.157136,1.186816,48.090000,-111.790001,65.940002,22.27
378332,0.189344,0.132736,1.155096,44.520000,-114.029999,70.980003,22.25
378343,0.212768,0.081008,1.114592,47.040001,-113.959999,73.849998,22.25
378354,0.212280,0.100528,1.060912,51.660000,-113.400002,80.150002,22.27
378366,0.220576,0.125904,1.037000,51.380001,-116.129997,86.940002,22.24
378378,0.278160,0.092720,1.015528,45.779999,-113.889999,92.610001,22.24
378389,0.291824,0.099064,1.032608,37.310001,-110.110001,95.970001,22.25
378400,0.306464,0.058560,0.976000,29.680000,-107.589996,98.980003,22.25
378412,0.321104,0.053192,0.973072,17.639999,-107.589996,103.040001,22.27
378423,0.325496,0.094184,0.978440,-0.070000,-109.269997,107.239998,22.21
378433,0.350384,0.080032,0.967216,-17.990000,-107.660004,107.449997,22.21
378444,0.375760,0.010248,0.957456,-35.070000,-104.089996,106.540001,22.28
378455,0.386008,-0.078080,0.934032,-39.200001,-100.730003,102.410004,22.28
378467,0.401624,-0.119560,0.893528,-39.900002,-98.769997,101.639999,22.27
378479,0.402600,-0.136640,0.873032,-44.169998,-99.470001,101.080002,22.29
378490,0.544608,-0.173728,0.858880,-48.650002,-77.980003,117.739998,22.29
378501,0.261568,-0.236680,0.897920,-41.860001,-98.629997,115.570000,22.24
378512,0.400648,-0.152256,0.818864,-50.959999,-123.339996,108.290001,22.24
378523,0.493368,-0.241560,0.763720,-58.310001,-98.070000,105.769997,22.25
378535,0.355264,-0.293288,0.788120,-63.490002,-109.970001,106.750000,22.25
378546,0.449936,-0.307928,0.778848,-68.040001,-107.800003,107.870003,22.25
378557,0.400648,-0.329400,0.790072,-74.550003,-106.190002,103.180000,22.24
378568,0.341112,-0.334280,0.786656,-82.459999,-115.709999,96.040001,22.24
378579,0.361608,-0.409920,0.724192,-86.029999,-122.080002,88.199997,22.24
378590,0.395280,-0.463112,0.647576,-83.019997,-117.389999,78.889999,22.30
378601,0.380152,-0.507032,0.590968,-75.110001,-118.720001,71.889999,22.30
378612,0.387960,-0.506056,0.519232,-63.490002,-120.120003,63.349998,22.28
378623,0.401624,-0.549000,0.504592,-48.369999,-117.599998,57.119999,22.28
378635,0.395768,-0.559736,0.504104,-35.490002,-117.110001,52.709999,22.31
378646,0.417728,-0.548512,0.507032,-20.510000,-115.150002,47.669998,22.27
378657,0.402600,-0.572424,0.518256,-1.400000,-115.639999,44.520000,22.27
378668,0.402600,-0.542656,0.497272,16.030001,-114.169998,40.250000,22.25
378680,0.438224,-0.549000,0.469944,26.809999,-113.540001,39.619999,22.25
378690,0.479216,-0.513864,0.457744,28.559999,-110.879997,37.169998,22.28
378701,0.487024,-0.525088,0.457744,27.790001,-108.500000,31.990000,22.25
378712,0.518256,-0.512400,0.445056,26.809999,-103.739998,33.810001,22.25
378723,0.532896,-0.505080,0.446520,26.670000,-96.809998,29.750000,22.29
378734,0.487024,-0.442128,0.424560,20.370001,-90.580002,13.160000,22.29
378745,0.505568,-0.624152,0.415776,21.350000,-81.900002,51.939999,22.27
378756,0.539728,-0.488000,0.390888,18.760000,-119.629997,41.230000,22.27
378768,0.606096,-0.504104,0.409920,11.200000,-101.779999,39.340000,22.21
378779,0.603168,-0.544120,0.389424,11.970000,-83.510002,43.959999,22.25
378790,0.648552,-0.504104,0.341112,2.800000,-82.389999,40.599998,22.25
378801,0.678320,-0.539240,0.318664,-2.730000,-72.309998,41.230000,22.30
378813,0.668072,-0.532896,0.355752,-6.930000,-60.900002,40.950001,22.22
378824,0.628544,-0.530944,0.380152,-13.440000,-55.580002,38.430000,22.22
378835,0.618296,-0.569496,0.382592,-15.540000,-48.230000,35.840000,22.25
378847,0.602680,-0.572912,0.385520,-18.620001,-40.740002,31.920000,22.25
378858,0.621224,-0.562176,0.387960,-23.309999,-30.730000,27.090000,22.26
378869,0.652456,-0.567544,0.366000,-27.860001,-26.040001,25.410000,22.24
378880,0.715408,-0.615856,0.363072,-28.770000,-23.940001,25.270000,22.24
378891,0.726144,-0.623176,0.377224,-27.230000,-18.969999,24.709999,22.23
378902,0.700768,-0.625616,0.376248,-27.090000,-17.219999,23.940001,22.23
378913,0.711504,-0.644648,0.372832,-28.770000,-17.290001,23.030001,22.28
378924,0.711504,-0.662704,0.383568,-32.270000,-17.219999,22.680000,22.28
378935,0.707112,-0.667584,0.415776,-37.730000,-17.780001,21.000000,22.20
378946,0.703208,-0.675880,0.432368,-43.400002,-18.690001,18.549999,22.25
378957,0.709064,-0.687104,0.424072,-46.900002,-21.280001,17.570000,22.25
378968,0.719800,-0.696376,0.397720,-47.529999,-22.190001,15.960000,22.26
378980,0.721264,-0.709552,0.345992,-43.820000,-22.049999,13.370000,22.26
378991,0.735904,-0.721264,0.277672,-35.349998,-21.209999,10.850000,22.24
379006,0.729560,-0.726632,0.249368,-18.620001,-21.280001,8.680000,22.25
379017,0.739320,-0.731512,0.247416,-6.580000,-21.700001,6.650000,22.25
379029,0.744688,-0.700768,0.251320,5.950000,-21.490000,5.180000,22.27
379040,0.734928,-0.677832,0.261080,14.560000,-22.049999,4.060000,22.22
379051,0.741760,-0.662216,0.254736,22.260000,-21.280001,3.220000,22.22
379061,0.742736,-0.625616,0.245464,25.760000,-19.110001,3.640000,22.28
379072,0.736880,-0.598288,0.240096,25.340000,-17.709999,3.570000,22.28
379084,0.726632,-0.584624,0.234240,20.790001,-15.190000,3.500000,22.28
379094,0.732000,-0.575840,0.224968,14.980000,-11.340000,4.690000,22.23
379105,0.733464,-0.569984,0.220088,8.960000,-9.100000,6.160000,22.23
379120,0.725656,-0.585112,0.233264,0.210000,-6.860000,7.630000,22.28
379131,0.728584,-0.602192,0.242048,-3.640000,-5.250000,8.610000,22.30
379142,0.719800,-0.589016,0.259616,-7.770000,-2.450000,10.010000,22.30
379154,0.718336,-0.603656,0.278648,-12.110000,-1.330000,10.640000,22.22
379164,0.708576,-0.589016,0.289384,-17.500000,-0.280000,11.900000,22.22
379175,0.715408,-0.596824,0.298656,-22.260000,-0.210000,12.740000,22.23
379186,0.716872,-0.618784,0.303048,-26.809999,-0.210000,12.810000,22.30
379197,0.708088,-0.628056,0.317688,-29.680000,0.140000,13.300000,22.30
379209,0.704184,-0.656360,0.315736,-29.190001,0.280000,12.460000,22.25
379220,0.703696,-0.679784,0.315248,-26.320000,0.770000,12.110000,22.25
379231,0.703208,-0.688568,0.330376,-23.309999,0.980000,11.550000,22.27
379243,0.698328,-0.696376,0.337696,-21.629999,0.490000,10.290000,22.24
379255,0.700280,-0.703208,0.341112,-19.740000,0.420000,8.890000,22.24
379267,0.699792,-0.712480,0.342576,-18.270000,0.560000,7.280000,22.27
379278,0.692472,-0.729560,0.339160,-16.309999,0.350000,5.390000,22.27
379289,0.696864,-0.746640,0.337208,-11.760000,0.840000,3.290000,22.23
379300,0.686128,-0.736392,0.333792,-6.510000,1.120000,1.820000,22.29
379312,0.687592,-0.733464,0.325496,-1.890000,1.260000,-0.210000,22.29
379323,0.683200,-0.728096,0.325008,1.960000,2.170000,-2.240000,22.29
379334,0.690032,-0.705648,0.322568,3.150000,2.870000,-3.920000,22.29
379344,0.690032,-0.703696,0.328912,1.540000,3.640000,-5.250000,22.29
379356,0.694424,-0.714920,0.332328,0.700000,4.130000,-6.580000,22.25
379368,0.694912,-0.716872,0.331840,0.070000,4.200000,-7.840000,22.25
379379,0.693936,-0.719800,0.315736,0.980000,4.760000,-9.170000,22.28
379391,0.691496,-0.704672,0.309392,2.730000,4.760000,-10.080000,22.28
379402,0.687104,-0.673928,0.317200,2.800000,4.760000,-10.290000,22.24
379413,0.691008,-0.670512,0.321104,2.380000,4.690000,-10.850000,22.27
379423,0.701256,-0.683688,0.320128,3.570000,4.480000,-10.640000,22.27
379435,0.693936,-0.667584,0.332816,4.480000,3.990000,-10.220000,22.30
379446,0.691984,-0.633424,0.334280,2.940000,3.640000,-10.290000,22.30
379456,0.692960,-0.613416,0.330376,0.280000,3.150000,-10.150000,22.27
379468,0.691496,-0.589992,0.341112,-3.080000,2.310000,-9.870000,22.27
379479,0.700280,-0.617320,0.340624,-6.160000,1.750000,-9.590000,22.27
379490,0.712480,-0.645136,0.340136,-5.530000,1.610000,-9.380000,22.27
379501,0.723216,-0.666608,0.341600,-4.200000,1.190000,-10.080000,22.27
379512,0.719312,-0.672464,0.339648,-2.450000,1.050000,-10.220000,22.28
379523,0.710528,-0.646112,0.337208,-3.010000,1.050000,-10.290000,22.23
379534,0.711992,-0.671000,0.337208,-3.570000,0.630000,-10.780000,22.23
379545,0.706136,-0.675880,0.335744,-1.890000,0.840000,-10.990000,22.26
379556,0.707600,-0.640744,0.323056,-1.050000,1.260000,-11.200000,22.26
379567,0.708576,-0.625616,0.310856,-2.450000,1.820000,-11.340000,22.25
379578,0.703208,-0.608536,0.312320,-4.760000,2.030000,-11.830000,22.25
379588,0.707112,-0.575352,0.343064,-10.150000,2.240000,-11.480000,22.25
379600,0.716384,-0.602680,0.355752,-15.610000,1.960000,-11.130000,22.24
379611,0.732976,-0.654896,0.355264,-12.950000,2.590000,-10.570000,22.24
379622,0.723704,-0.667584,0.353312,-4.970000,1.890000,-10.360000,22.26
379633,0.722240,-0.630008,0.354288,0.210000,1.260000,-9.870000,22.26
379644,0.712968,-0.599752,0.353800,3.010000,1.190000,-9.660000,22.26
379654,0.713944,-0.578280,0.358680,2.590000,0.210000,-8.680000,22.27
379666,0.725168,-0.574864,0.353800,2.030000,-0.350000,-7.490000,22.27
379677,0.730048,-0.567056,0.356240,0.420000,-1.120000,-6.160000,22.27
379688,0.732976,-0.561200,0.359168,-1.750000,-2.030000,-5.250000,22.27
379699,0.731512,-0.557784,0.358680,-4.410000,-3.290000,-3.570000,22.26
379710,0.733952,-0.580720,0.345992,-5.250000,-4.060000,-2.520000,22.24
379721,0.733952,-0.585600,0.334280,-4.900000,-4.410000,-1.750000,22.24
379733,0.732976,-0.593896,0.327448,-3.850000,-4.480000,-1.260000,22.25
379744,0.734928,-0.608536,0.325008,-1.260000,-4.130000,-0.910000,22.25
379755,0.728584,-0.596336,0.328424,-0.070000,-4.130000,-0.210000,22.27
379766,0.724680,-0.601216,0.327448,-0.350000,-4.340000,0.350000,22.25
379777,0.725168,-0.609512,0.321592,-1.470000,-4.410000,0.630000,22.25
379788,0.725168,-0.627080,0.308904,-1.750000,-4.410000,0.420000,22.27
379799,0.730536,-0.627080,0.302072,-1.260000,-3.990000,0.560000,22.27
379810,0.726144,-0.625128,0.303536,-1.260000,-3.360000,0.350000,22.26
379821,0.729560,-0.629520,0.308904,-1.540000,-2.800000,0.140000,22.27
379832,0.731024,-0.638792,0.306464,-0.630000,-2.100000,-0.070000,22.27
379844,0.728584,-0.646600,0.299144,0.630000,-1.470000,-0.210000,22.22
379854,0.723216,-0.637328,0.290848,1.120000,-0.770000,-0.420000,22.22
379866,0.723704,-0.635376,0.290848,1.260000,-0.490000,-0.630000,22.25
379876,0.722728,-0.632448,0.297680,1.400000,0.210000,-0.700000,22.23
379888,0.724192,-0.633912,0.300608,1.120000,0.490000,-0.840000,22.23
379899,0.726144,-0.635376,0.295240,0.980000,1.260000,-1.190000,22.27
379911,0.740296,-0.659288,0.280600,1.750000,2.240000,-2.170000,22.27
379922,0.737856,-0.656848,0.275232,3.220000,3.710000,-2.660000,22.25
379933,0.731024,-0.655384,0.273768,2.450000,4.830000,-3.640000,22.20
379944,0.724192,-0.661728,0.281088,1.750000,6.020000,-4.690000,22.20
379955,0.720288,-0.656848,0.269376,2.030000,7.560000,-5.460000,22.27
379966,0.718824,-0.621712,0.277672,-1.400000,8.470000,-6.230000,22.27
379977,0.722728,-0.651480,0.280600,-3.710000,8.820000,-7.140000,22.26
379988,0.726144,-0.682224,0.288896,-1.470000,10.220000,-7.000000,22.23
379999,0.720288,-0.676368,0.299144,0.420000,11.060000,-8.190000,22.23
380011,0.719312,-0.657336,0.309880,0.980000,11.130000,-9.030000,22.23
380022,0.712968,-0.642208,0.327936,0.770000,11.830000,-9.660000,22.23
380033,0.712968,-0.635376,0.334280,0.070000,12.250000,-10.290000,22.24
380044,0.719800,-0.632448,0.336720,0.070000,12.390000,-10.570000,22.24
380055,0.720776,-0.626104,0.336232,0.070000,12.810000,-11.060000,22.26
380066,0.729072,-0.621224,0.346480,0.000000,12.670000,-11.200000,22.27
380077,0.723216,-0.611952,0.362096,0.630000,12.600000,-11.340000,22.27
380088,0.728096,-0.604632,0.367464,0.840000,12.250000,-11.270000,22.27
380100,0.724680,-0.592432,0.374784,1.610000,12.180000,-10.850000,22.27
380110,0.722240,-0.583648,0.378200,2.380000,11.900000,-10.710000,22.25
380121,0.724192,-0.573400,0.379664,3.290000,11.480000,-10.010000,22.24
380134,0.722240,-0.569496,0.376248,5.670000,11.410000,-9.660000,22.24
380144,0.737368,-0.578280,0.361608,8.960000,11.270000,-9.310000,22.26
380155,0.741272,-0.579256,0.341600,12.320000,12.600000,-9.170000,22.26
380166,0.744688,-0.576328,0.321592,17.570000,13.790000,-9.520000,22.25
380177,0.749080,-0.580232,0.301096,22.889999,15.470000,-9.590000,22.27
380188,0.745176,-0.598776,0.279624,27.930000,18.549999,-10.010000,22.27
380199,0.738344,-0.604144,0.273280,35.700001,21.840000,-10.290000,22.23
380210,0.741760,-0.629520,0.269864,46.270000,26.180000,-11.270000,22.23
380221,0.726632,-0.605608,0.269864,57.610001,32.410000,-11.620000,22.25
380233,0.722728,-0.594384,0.256200,65.940002,40.599998,-11.900000,22.23
380243,0.718824,-0.594384,0.213744,76.510002,47.740002,-13.370000,22.23
380254,0.699304,-0.586576,0.166408,88.550003,57.330002,-14.770000,22.24
380266,0.670024,-0.569008,0.087352,105.980003,68.180000,-14.420000,22.24
380276,0.684176,-0.562664,-0.008296,119.419998,77.139999,-14.560000,22.31
380287,0.656360,-0.518256,-0.047824,127.610001,92.820000,-14.560000,22.23
380299,0.641232,-0.452864,-0.049776,126.279999,106.260002,-14.560000,22.23
380310,0.608536,-0.386984,0.035624,116.059998,121.309998,-16.030001,22.24
380321,0.560712,-0.370392,0.131760,97.580002,132.789993,-18.549999,22.24
380332,0.501176,-0.369416,0.222040,76.230003,140.910004,-19.809999,22.27
380343,0.455304,-0.366488,0.282552,55.860001,147.699997,-20.370001,22.21
380354,0.416264,-0.338184,0.403576,21.700001,151.270004,-18.830000,22.21
380365,0.394792,-0.292312,0.497272,17.570000,152.179993,-15.750000,22.28
380376,0.407480,-0.286944,0.551928,-5.810000,151.970001,-14.070000,22.28
380387,0.392840,-0.338184,0.570472,-19.670000,152.740005,-14.490000,22.27
380398,0.352336,-0.434320,0.591456,-16.450001,154.839996,-14.910000,22.27
380409,0.305488,-0.470432,0.636352,-7.070000,155.399994,-13.230000,22.21
380421,0.284992,-0.537288,0.655872,7.700000,157.080002,-15.470000,22.24
380432,0.261080,-0.660264,0.686128,31.920000,159.179993,-18.340000,22.24
380443,0.237168,-0.699304,0.714920,56.770000,159.809998,-20.930000,22.23
380454,0.238632,-0.637816,0.785680,87.919998,157.639999,-20.440001,22.23
380465,0.224480,-0.508984,0.929640,107.099998,153.369995,-20.719999,22.28
380476,0.213256,-0.334280,1.026752,111.930000,146.440002,-21.840000,22.20
380487,0.198128,-0.147376,1.163880,100.870003,132.300003,-21.700001,22.20
380498,0.179096,-0.076128,1.271240,75.599998,120.400002,-23.100000,22.25
380509,0.192272,-0.054656,1.385432,40.529999,100.239998,-21.280001,22.25
380520,0.198128,-0.127368,1.454240,19.110001,83.370003,-20.020000,22.22
380530,0.255712,-0.192760,1.477664,6.230000,80.919998,-19.879999,22.21
380541,0.264984,-0.252784,1.428864,-6.440000,78.610001,-16.590000,22.21
380552,0.204472,-0.250344,1.363472,-11.900000,68.040001,-15.400000,22.26
380563,0.209840,-0.290848,1.287832,-13.510000,57.820000,-15.540000,22.26
380574,0.210816,-0.304512,1.233664,-8.960000,48.369999,-17.500000,22.24
380586,0.249368,-0.334768,1.189744,-0.280000,46.689999,-17.850000,22.25
380597,0.229848,-0.329888,1.166808,6.510000,43.330002,-18.690001,22.25
380608,0.206424,-0.313296,1.142896,10.150000,39.619999,-17.850000,22.28
380618,0.201056,-0.299632,1.112640,12.880000,33.950001,-16.870001,22.28
380629,0.195688,-0.275720,1.083848,14.350000,30.940001,-15.190000,22.25
380640,0.177632,-0.245952,1.070184,13.090000,28.070000,-12.530000,22.25
380651,0.164456,-0.247904,1.038952,13.790000,27.440001,-11.830000,22.25
380662,0.140544,-0.251808,1.034072,16.100000,25.480000,-11.200000,22.26
380673,0.131272,-0.253272,1.062376,16.870001,21.770000,-9.380000,22.26
380684,0.142984,-0.250832,1.074576,19.530001,20.299999,-8.890000,22.27
380695,0.137128,-0.250832,1.053592,22.049999,18.340000,-8.400000,22.27
380706,0.139080,-0.271328,1.059448,23.590000,16.450001,-8.120000,22.30
380717,0.143960,-0.269376,1.049688,24.010000,14.420000,-7.140000,22.24
380729,0.145912,-0.243024,1.032120,22.959999,12.880000,-5.390000,22.24
380740,0.147864,-0.244488,0.995520,21.770000,11.690000,-5.460000,22.25
380751,0.153720,-0.237656,1.009184,0.000000,8.890000,-3.570000,22.25
380762,0.149816,-0.209352,1.015040,12.320000,7.630000,-1.680000,22.25
380773,0.160552,-0.207888,1.022848,5.110000,4.690000,-1.050000,22.24
380784,0.178120,-0.234240,1.026264,0.070000,1.400000,-1.260000,22.24
380795,0.195688,-0.251808,1.045784,-4.690000,-0.420000,-0.210000,22.24
380806,0.204960,-0.265472,1.037976,-7.000000,0.000000,0.070000,22.24
380818,0.222528,-0.277184,1.042856,-10.220000,-0.910000,0.280000,22.23
380830,0.192272,-0.296216,1.036512,-9.450000,-0.420000,-0.420000,22.29
380841,0.226432,-0.335256,0.989176,-4.550000,0.490000,-1.400000,22.29
380853,0.197152,-0.315736,0.995032,-1.400000,-0.070000,-0.840000,22.27
380864,0.232288,-0.328912,0.959896,4.760000,2.030000,-2.520000,22.27
380875,0.188368,-0.293776,0.983808,4.200000,0.490000,-2.170000,22.25
380886,0.225456,-0.312808,0.973560,7.070000,0.210000,-2.450000,22.25
380897,0.209352,-0.265960,0.975024,6.860000,1.260000,-2.030000,22.25
380908,0.183000,-0.272792,0.969656,5.600000,1.330000,-2.450000,22.25
380919,0.173728,-0.264008,0.971120,4.060000,1.400000,-2.380000,22.25
380930,0.157624,-0.261080,0.964776,2.100000,1.400000,-2.310000,22.24
380941,0.158600,-0.253272,0.964288,-0.070000,1.400000,-2.730000,22.23
380952,0.161040,-0.267912,0.972096,-1.820000,1.330000,-2.940000,22.23
380964,0.163480,-0.280600,0.976488,-1.540000,1.820000,-2.590000,22.28
380975,0.156648,-0.286944,0.973560,-0.770000,2.170000,-2.800000,22.28
380986,0.146400,-0.304512,0.967216,0.700000,2.380000,-2.590000,22.26
380997,0.145912,-0.296216,0.965752,3.010000,2.240000,-2.100000,22.24
381008,0.145912,-0.282064,0.974048,4.060000,1.260000,-1.890000,22.24
381019,0.151280,-0.280600,0.979416,5.460000,0.560000,-1.890000,22.26
381030,0.156160,-0.261568,0.993080,5.530000,0.630000,-1.540000,22.26
381041,0.153720,-0.257176,1.011136,3.290000,0.210000,-1.680000,22.24
381052,0.155672,-0.262056,1.012112,1.330000,-0.420000,-1.750000,22.25
381064,0.154208,-0.263032,1.008208,0.070000,-0.560000,-1.820000,22.25
381074,0.158600,-0.275720,1.002352,-0.210000,-1.190000,-2.030000,22.31
381086,0.154696,-0.273280,0.982832,0.560000,-1.540000,-2.170000,22.31
381097,0.170800,-0.290360,0.976000,2.450000,-2.030000,-2.170000,22.27
381108,0.169824,-0.270840,0.976000,3.640000,-2.310000,-2.100000,22.27
381119,0.168360,-0.262056,0.975512,3.150000,-1.750000,-1.750000,22.27
381131,0.160552,-0.253760,0.969168,2.240000,-1.610000,-1.890000,22.25
381142,0.155672,-0.264496,0.973560,1.400000,-1.960000,-1.680000,22.25
381157,0.161528,-0.262056,0.976488,0.420000,-2.240000,-1.400000,22.25
381168,0.160552,-0.269864,0.979416,0.140000,-1.680000,-1.400000,22.27
381179,0.156160,-0.271328,0.979904,0.630000,-1.890000,-1.050000,22.27
381190,0.151768,-0.272304,0.977464,1.610000,-2.030000,-0.910000,22.25
381202,0.151280,-0.265472,0.976976,1.890000,-1.960000,-0.770000,22.25
381214,0.149816,-0.266448,0.976000,2.100000,-2.030000,-0.560000,22.25
381225,0.151280,-0.271816,0.975512,2.590000,-2.100000,-0.560000,22.25
381236,0.154696,-0.270840,0.976488,2.590000,-2.310000,-0.420000,22.25
381247,0.158112,-0.273768,0.978928,1.680000,-2.380000,-0.490000,22.26
381258,0.158600,-0.276208,0.984296,1.190000,-2.520000,-0.630000,22.25
381269,0.157624,-0.277672,0.991616,1.400000,-2.660000,-0.770000,22.25
381280,0.156648,-0.277184,0.987712,1.260000,-3.290000,-0.840000,22.28
381291,0.156648,-0.281088,0.992592,1.820000,-3.500000,-1.050000,22.28
381302,0.159088,-0.280600,0.988200,2.730000,-3.640000,-1.330000,22.24
381313,0.159088,-0.275720,0.978928,2.940000,-3.990000,-1.470000,22.24
381324,0.159576,-0.268400,0.984296,3.010000,-4.270000,-1.330000,22.24
381335,0.158600,-0.260592,0.989664,1.750000,-4.550000,-1.260000,22.21
381346,0.156648,-0.264984,0.981856,0.560000,-4.760000,-1.260000,22.21
381357,0.155672,-0.275232,0.981856,0.560000,-4.970000,-1.400000,22.24
381368,0.157136,-0.274744,0.984296,1.050000,-5.320000,-1.470000,22.24
381379,0.158600,-0.268400,0.983808,1.260000,-5.320000,-1.470000,22.25
381390,0.159088,-0.267912,0.974048,1.610000,-5.320000,-1.540000,22.21
381401,0.158600,-0.266448,0.973072,1.890000,-5.390000,-1.400000,22.21
381412,0.160064,-0.263032,0.972584,1.470000,-5.530000,-1.330000,22.30
381423,0.164456,-0.264984,0.974048,1.470000,-5.180000,-1.260000,22.30
381434,0.165920,-0.263032,0.972096,1.610000,-5.040000,-0.980000,22.25
381445,0.164944,-0.261568,0.971120,1.540000,-5.040000,-0.700000,22.21
381456,0.169824,-0.262056,0.962336,1.680000,-4.970000,-0.560000,22.21
381467,0.169336,-0.267912,0.955504,2.450000,-4.270000,-0.420000,22.30
381479,0.171288,-0.262544,0.956480,3.010000,-3.990000,-0.280000,22.30
381490,0.169824,-0.261568,0.959408,3.500000,-3.710000,-0.280000,22.25
381501,0.172752,-0.250832,0.960872,3.150000,-3.570000,0.000000,22.26
381512,0.174704,-0.251320,0.955992,2.030000,-3.290000,0.140000,22.26
381523,0.174216,-0.255224,0.962824,1.190000,-3.430000,0.210000,22.22
381534,0.175192,-0.263032,0.962336,1.050000,-3.080000,0.280000,22.22
381545,0.170800,-0.266448,0.966728,1.750000,-2.660000,0.420000,22.28
381556,0.167872,-0.261568,0.973072,1.750000,-2.520000,0.560000,22.22
381567,0.163968,-0.261080,0.974536,1.680000,-2.730000,0.700000,22.22
381578,0.162992,-0.264008,0.978928,1.820000,-2.800000,0.700000,22.25
381589,0.165920,-0.260592,0.976976,1.820000,-2.660000,0.700000,22.25
381600,0.165920,-0.263032,0.973072,1.400000,-2.800000,0.700000,22.29
381611,0.164944,-0.264496,0.975024,1.120000,-2.940000,0.770000,22.29
381622,0.166408,-0.267912,0.974048,0.980000,-2.870000,0.630000,22.25
381633,0.164944,-0.269376,0.972584,1.120000,-2.590000,0.560000,22.29
381644,0.164944,-0.271816,0.970632,1.330000,-2.380000,0.490000,22.29
381655,0.165920,-0.270840,0.975024,1.470000,-2.520000,0.280000,22.26
381666,0.162992,-0.260592,0.978928,0.560000,-2.590000,0.350000,22.26
381677,0.165432,-0.268400,0.979416,-0.490000,-2.870000,0.000000,22.27
381688,0.168848,-0.272792,0.976976,-0.630000,-2.800000,-0.140000,22.24
381700,0.166896,-0.277184,0.976488,-0.490000,-2.800000,-0.210000,22.24
381711,0.165920,-0.278648,0.976000,0.070000,-2.800000,-0.630000,22.27
381722,0.165920,-0.276208,0.975512,0.630000,-2.730000,-0.700000,22.27
381733,0.165920,-0.271816,0.976000,0.630000,-2.660000,-0.700000,22.24
381744,0.165920,-0.268888,0.975024,0.350000,-2.870000,-0.700000,22.25
381755,0.161528,-0.267424,0.978440,0.350000,-2.590000,-0.700000,22.25
381766,0.164944,-0.267912,0.975512,0.350000,-2.800000,-0.910000,22.23
381777,0.167384,-0.272304,0.972584,0.350000,-2.660000,-0.910000,22.23
381787,0.171776,-0.273768,0.974536,0.770000,-2.520000,-0.980000,22.27
381798,0.169824,-0.272304,0.976488,1.120000,-2.800000,-0.910000,22.27
381809,0.167872,-0.265472,0.983808,1.120000,-3.220000,-0.980000,22.25
381821,0.169336,-0.267424,0.982832,1.610000,-3.150000,-0.980000,22.27
381832,0.167872,-0.265472,0.976976,2.380000,-3.150000,-0.840000,22.27
381843,0.163480,-0.260592,0.977952,2.590000,-3.360000,-0.770000,22.23
381854,0.163480,-0.252784,0.977952,2.310000,-3.710000,-0.630000,22.23
381865,0.166408,-0.254736,0.976000,1.750000,-3.850000,-0.350000,22.26
381876,0.165920,-0.255224,0.976976,1.050000,-3.780000,-0.210000,22.24
381887,0.167384,-0.259128,0.971608,0.490000,-3.920000,0.000000,22.24
381898,0.168360,-0.268400,0.968680,0.630000,-3.990000,-0.070000,22.27
381908,0.174216,-0.274744,0.968680,1.400000,-3.920000,0.000000,22.27
381919,0.174216,-0.266448,0.974536,2.030000,-3.710000,0.000000,22.22
381931,0.168848,-0.264008,0.976000,1.960000,-3.570000,-0.140000,22.24
381942,0.170312,-0.264496,0.976488,1.540000,-3.920000,-0.210000,22.24
381953,0.170800,-0.262056,0.975512,0.840000,-3.920000,-0.070000,22.25
381964,0.172264,-0.265960,0.971120,0.000000,-3.920000,-0.280000,22.25
381975,0.170312,-0.272792,0.971120,0.140000,-3.640000,-0.210000,22.28
381986,0.171776,-0.265960,0.973072,0.000000,-3.640000,-0.140000,22.24
381997,0.171288,-0.272792,0.970144,0.210000,-3.500000,-0.350000,22.24
382008,0.175192,-0.279624,0.967704,1.330000,-3.080000,-0.490000,22.25
382020,0.175680,-0.275720,0.965264,2.170000,-2.800000,-0.770000,22.25
382031,0.175192,-0.265960,0.965752,2.730000,-2.940000,-0.700000,22.22
382042,0.175192,-0.260592,0.963800,2.030000,-2.590000,-0.770000,22.20
382053,0.169824,-0.255712,0.968192,1.400000,-2.380000,-0.840000,22.20
382064,0.169336,-0.257176,0.969168,1.050000,-2.450000,-0.770000,22.25
382076,0.169336,-0.256200,0.968192,0.420000,-2.310000,-0.700000,22.25
382087,0.170800,-0.261080,0.971608,-0.140000,-2.310000,-0.630000,22.26
382098,0.170312,-0.263032,0.976488,-0.490000,-2.310000,-0.490000,22.27
382109,0.168848,-0.269864,0.976000,-0.210000,-2.240000,-0.490000,22.27
382120,0.166408,-0.272304,0.975024,0.420000,-2.240000,-0.560000,22.23
382132,0.166408,-0.269376,0.976976,1.190000,-2.310000,-0.490000,22.23
382143,0.169336,-0.266448,0.975512,2.100000,-2.310000,-0.700000,22.27
382154,0.173240,-0.262544,0.970632,2.730000,-2.310000,-0.490000,22.25
382168,0.170312,-0.249856,0.972584,1.750000,-2.380000,-0.280000,22.25
382179,0.172752,-0.253760,0.976488,0.490000,-2.660000,-0.140000,22.25
382190,0.171776,-0.258152,0.978440,0.140000,-2.800000,0.000000,22.25
382201,0.175192,-0.260592,0.979416,0.000000,-2.800000,0.070000,22.28
382212,0.172264,-0.270352,0.976488,0.630000,-2.660000,0.070000,22.25
382223,0.169824,-0.275232,0.971120,1.750000,-2.520000,-0.140000,22.25
382234,0.170312,-0.266448,0.973560,2.590000,-2.450000,0.000000,22.27
382245,0.171776,-0.264008,0.971608,2.800000,-2.590000,0.000000,22.27
382256,0.171776,-0.259128,0.971608,2.100000,-2.450000,0.210000,22.24
382268,0.170800,-0.256688,0.975512,0.700000,-2.800000,0.000000,22.22
382279,0.174216,-0.264008,0.974536,0.210000,-2.800000,-0.070000,22.22
382290,0.171776,-0.274256,0.966240,0.560000,-2.520000,-0.070000,22.25
382301,0.173728,-0.274256,0.967216,0.980000,-2.310000,-0.280000,22.25
382312,0.173240,-0.273280,0.965264,1.610000,-2.030000,-0.490000,22.28
382323,0.173728,-0.264984,0.971608,1.610000,-1.960000,-0.350000,22.24
382334,0.171288,-0.265472,0.974048,1.400000,-1.890000,-0.770000,22.24
382345,0.167872,-0.261080,0.977464,0.980000,-1.820000,-0.630000,22.21
382356,0.169824,-0.262544,0.975512,0.280000,-1.960000,-0.630000,22.21
382367,0.170312,-0.265472,0.975512,0.000000,-2.310000,-0.910000,22.23
382378,0.175680,-0.272792,0.972096,0.070000,-2.030000,-0.770000,22.27
382389,0.172264,-0.272304,0.970632,0.560000,-1.680000,-1.260000,22.27
382400,0.172264,-0.261568,0.972584,0.560000,-1.820000,-0.980000,22.26
382411,0.175192,-0.258152,0.971608,0.280000,-1.820000,-1.120000,22.26
382422,0.171776,-0.262056,0.976976,-0.210000,-2.030000,-1.120000,22.28
382433,0.173728,-0.261080,0.974536,-0.280000,-1.890000,-1.050000,22.26
382445,0.170800,-0.262544,0.975024,-0.280000,-1.820000,-0.980000,22.26
382456,0.169336,-0.265960,0.975024,0.000000,-1.960000,-1.190000,22.26
382467,0.173240,-0.267424,0.971120,0.630000,-1.890000,-0.980000,22.26
382478,0.171776,-0.259128,0.971120,0.910000,-1.890000,-0.770000,22.26
382489,0.171288,-0.258152,0.973072,0.630000,-1.960000,-0.700000,22.19
382500,0.170312,-0.257176,0.976000,0.350000,-1.890000,-0.560000,22.19
382511,0.170312,-0.257664,0.974536,-0.070000,-2.030000,-0.350000,22.24
382522,0.171288,-0.262544,0.973072,0.070000,-2.170000,-0.280000,22.24
382534,0.172752,-0.266448,0.970632,0.490000,-1.890000,-0.210000,22.25
382545,0.171288,-0.265472,0.970632,1.260000,-1.820000,-0.280000,22.25
382556,0.171776,-0.260592,0.970144,1.400000,-1.750000,-0.070000,22.27
382566,0.170800,-0.258640,0.973560,1.330000,-1.820000,-0.070000,22.23
382578,0.170800,-0.256200,0.976976,0.910000,-1.960000,0.280000,22.23
382589,0.167384,-0.257664,0.979904,0.280000,-2.240000,0.490000,22.23
382600,0.168360,-0.261080,0.977464,-0.140000,-2.240000,0.490000,22.23
382611,0.165920,-0.268400,0.971120,0.350000,-2.240000,0.280000,22.24
382622,0.174216,-0.273768,0.969168,1.120000,-2.240000,0.280000,22.20
382633,0.175680,-0.266448,0.968192,1.190000,-1.960000,0.420000,22.20
382643,0.172264,-0.266936,0.975024,0.490000,-1.960000,0.420000,22.22
382654,0.166896,-0.271328,0.976976,0.420000,-2.100000,0.210000,22.22
382665,0.167872,-0.274256,0.977952,0.490000,-1.960000,0.280000,22.27
382677,0.166408,-0.272304,0.975024,0.280000,-2.030000,0.000000,22.21
382688,0.165432,-0.276696,0.974536,0.210000,-1.890000,-0.280000,22.21
382699,0.167872,-0.277184,0.973072,0.490000,-2.030000,-0.490000,22.25
382710,0.167872,-0.271816,0.975512,0.490000,-1.750000,-0.770000,22.25
382721,0.168360,-0.267912,0.976488,0.420000,-1.820000,-0.910000,22.24
382732,0.166896,-0.268888,0.975512,0.630000,-1.610000,-1.120000,22.19
382743,0.170312,-0.265472,0.977952,0.420000,-1.960000,-1.050000,22.19
382754,0.170800,-0.265472,0.978440,0.140000,-2.030000,-1.190000,22.22
382765,0.169824,-0.268400,0.975024,0.070000,-1.890000,-1.050000,22.22
382776,0.168360,-0.270840,0.974048,0.630000,-1.820000,-1.050000,22.24
382787,0.166896,-0.263032,0.976000,0.630000,-2.030000,-0.910000,22.24
382799,0.164456,-0.263032,0.980392,0.350000,-2.240000,-0.840000,22.24
382810,0.166408,-0.264008,0.978440,0.280000,-2.310000,-0.770000,22.20
382821,0.166408,-0.266936,0.976488,0.630000,-2.380000,-0.770000,22.20
382832,0.166896,-0.264496,0.975512,0.770000,-2.660000,-0.630000,22.27
382843,0.171776,-0.260104,0.971608,0.560000,-2.520000,-0.560000,22.27
382854,0.170312,-0.262544,0.972584,0.140000,-2.450000,-0.350000,22.22
382865,0.167384,-0.259128,0.972096,-0.350000,-2.520000,-0.350000,22.21
382876,0.169336,-0.270840,0.971608,-0.210000,-2.450000,-0.350000,22.21
382888,0.170312,-0.264008,0.971608,-0.630000,-2.310000,0.000000,22.21
382899,0.170312,-0.269864,0.971608,-0.840000,-2.380000,-0.420000,22.21
382910,0.167872,-0.271328,0.971608,-0.420000,-2.310000,-0.280000,22.22
382921,0.166408,-0.270840,0.970144,0.140000,-2.240000,-0.420000,22.24
382932,0.169824,-0.270840,0.971120,0.490000,-2.030000,-0.490000,22.24
382943,0.164944,-0.266936,0.971608,0.420000,-1.890000,-0.350000,22.27
382955,0.166408,-0.269376,0.972096,0.420000,-1.960000,-0.350000,22.27
382966,0.167872,-0.266936,0.973560,0.280000,-2.030000,-0.210000,22.28
382977,0.167872,-0.265472,0.971608,0.280000,-1.960000,-0.140000,22.22
382988,0.166408,-0.265960,0.972584,0.070000,-1.960000,-0.210000,22.22
382999,0.170312,-0.270840,0.972584,-0.070000,-2.100000,-0.280000,22.25
383010,0.168848,-0.269376,0.972096,0.070000,-1.960000,-0.210000,22.25
383021,0.167872,-0.269864,0.973560,0.210000,-2.030000,-0.280000,22.25
383033,0.168360,-0.273280,0.974536,0.560000,-1.960000,-0.350000,22.22
383044,0.169336,-0.272304,0.974048,1.260000,-1.890000,-0.420000,22.22
383055,0.168848,-0.270840,0.974048,1.400000,-2.030000,-0.210000,22.21
383066,0.170312,-0.266936,0.974536,1.190000,-2.100000,-0.210000,22.21
383077,0.165920,-0.270840,0.974536,1.470000,-2.100000,-0.280000,22.24
383088,0.166896,-0.263032,0.971608,1.260000,-2.170000,-0.210000,22.27
383098,0.167384,-0.264984,0.972096,0.560000,-2.310000,-0.210000,22.27
383110,0.169824,-0.271328,0.977464,0.070000,-2.380000,-0.280000,22.22
383121,0.169336,-0.274744,0.976976,0.350000,-2.310000,-0.280000,22.22
383132,0.166896,-0.270840,0.975024,0.770000,-2.170000,-0.420000,22.28
383144,0.165920,-0.272304,0.970144,0.980000,-2.310000,-0.350000,22.22
383155,0.166408,-0.269376,0.974048,0.840000,-2.380000,-0.490000,22.22
383166,0.167872,-0.270840,0.975024,0.770000,-2.380000,-0.420000,22.23
383177,0.166408,-0.269376,0.972584,0.630000,-2.310000,-0.420000,22.23
383192,0.164944,-0.267424,0.974048,0.210000,-2.520000,-0.350000,22.23
383203,0.166408,-0.271816,0.974536,0.280000,-2.520000,-0.350000,22.24
383214,0.165432,-0.274744,0.976488,0.560000,-2.450000,-0.490000,22.24
383225,0.165920,-0.275232,0.972096,1.120000,-2.380000,-0.490000,22.26
383236,0.166408,-0.274256,0.968192,1.610000,-2.100000,-0.420000,22.24
383247,0.166408,-0.266448,0.970144,1.120000,-2.310000,-0.140000,22.24
383258,0.166408,-0.269376,0.972584,0.770000,-2.310000,-0.490000,22.23
383269,0.168360,-0.267912,0.975512,0.560000,-2.240000,-0.350000,22.23
383280,0.166896,-0.268888,0.974048,0.210000,-2.450000,-0.420000,22.28
383292,0.169824,-0.273768,0.971120,0.350000,-2.380000,-0.560000,22.22
383303,0.169336,-0.274744,0.973072,0.840000,-2.170000,-0.420000,22.22
383314,0.168360,-0.268888,0.970632,0.980000,-2.240000,-0.350000,22.26
383325,0.166408,-0.272304,0.967216,1.120000,-1.960000,-0.210000,22.26
383336,0.164456,-0.268888,0.971608,0.700000,-2.030000,-0.070000,22.22
383348,0.161040,-0.265960,0.975512,0.490000,-2.170000,-0.070000,22.27
383359,0.166408,-0.268400,0.975512,0.630000,-2.100000,-0.070000,22.27
383370,0.168848,-0.272792,0.973560,0.770000,-2.240000,-0.070000,22.25
383381,0.168360,-0.272304,0.971120,0.840000,-2.100000,-0.070000,22.25
383392,0.169336,-0.270352,0.971608,0.980000,-2.030000,-0.140000,22.26
383403,0.167384,-0.267912,0.972584,0.630000,-1.960000,-0.070000,22.23
383414,0.163480,-0.270352,0.972096,0.280000,-1.960000,0.070000,22.23
383425,0.163968,-0.271816,0.973072,0.070000,-1.890000,-0.140000,22.24
383437,0.161528,-0.274744,0.973560,0.000000,-1.750000,-0.350000,22.24
383448,0.166896,-0.276208,0.970632,0.140000,-1.750000,-0.420000,22.22
383459,0.169336,-0.281576,0.969168,0.770000,-1.610000,-0.560000,22.22
383470,0.169824,-0.272304,0.963312,0.560000,-1.400000,-0.770000,22.24
383482,0.170800,-0.267424,0.971120,-0.280000,-1.470000,-0.700000,22.26
383494,0.167384,-0.268888,0.972584,-1.470000,-1.400000,-0.490000,22.26
383505,0.163968,-0.274256,0.969168,-2.310000,-1.190000,-0.630000,22.26
383516,0.161528,-0.279136,0.970144,-2.590000,-1.190000,-0.770000,22.19
383527,0.162504,-0.278160,0.968192,-2.870000,-0.840000,-0.840000,22.19
383538,0.162504,-0.280600,0.969656,-3.220000,-0.700000,-1.400000,22.25
383549,0.163968,-0.290360,0.969168,-2.520000,-0.770000,-1.260000,22.25
383560,0.162992,-0.287920,0.970144,-1.540000,-0.210000,-1.610000,22.26
383572,0.163968,-0.284504,0.968192,-0.630000,0.000000,-1.960000,22.19
383583,0.162992,-0.284016,0.970144,0.630000,0.000000,-1.820000,22.19
383594,0.162992,-0.276208,0.972096,1.400000,-0.350000,-1.820000,22.22
383605,0.162016,-0.265960,0.976000,1.400000,-0.350000,-1.680000,22.22
383616,0.162504,-0.263032,0.974536,0.910000,-0.140000,-1.750000,22.21
383628,0.162016,-0.265472,0.976976,0.000000,-0.630000,-1.470000,22.23
383639,0.162504,-0.265960,0.976976,-0.420000,-0.770000,-1.120000,22.23
383650,0.160064,-0.271816,0.977464,-0.420000,-0.910000,-1.120000,22.25
383661,0.159576,-0.272792,0.979904,0.140000,-1.120000,-0.840000,22.25
383672,0.155672,-0.269864,0.979904,0.420000,-1.750000,-0.630000,22.27
383683,0.157136,-0.266448,0.981856,0.210000,-2.310000,-0.560000,22.27
383695,0.160064,-0.272304,0.982344,-0.070000,-2.520000,-0.350000,22.21
383707,0.159088,-0.276208,0.981368,0.420000,-2.800000,0.000000,22.25
383717,0.160552,-0.273768,0.981368,0.700000,-2.660000,-0.070000,22.25
383728,0.160064,-0.271328,0.975024,0.630000,-2.170000,-0.210000,22.25
383740,0.160064,-0.274256,0.976976,0.630000,-2.450000,-0.070000,22.23
383751,0.159576,-0.277184,0.976000,0.770000,-2.660000,-0.210000,22.23
383762,0.159576,-0.272304,0.975024,0.700000,-2.660000,-0.070000,22.22
383773,0.160552,-0.275232,0.974536,0.140000,-2.660000,-0.140000,22.22
383784,0.162504,-0.281088,0.970144,0.280000,-2.800000,-0.210000,22.25
383795,0.161040,-0.277672,0.968680,0.420000,-2.520000,-0.140000,22.25
383806,0.160064,-0.278648,0.968680,0.210000,-2.380000,-0.350000,22.25
383818,0.159088,-0.282552,0.970632,0.490000,-2.170000,-0.420000,22.23
383829,0.161528,-0.277672,0.970632,0.280000,-2.030000,-0.560000,22.23
383840,0.159576,-0.279624,0.970144,-0.070000,-1.960000,-0.560000,22.23
383851,0.158600,-0.281576,0.970144,-0.210000,-2.030000,-0.700000,22.23
383862,0.160552,-0.283528,0.970632,-0.560000,-2.170000,-0.770000,22.27
383873,0.160552,-0.284504,0.966728,-0.560000,-1.890000,-0.840000,22.19
383884,0.160064,-0.285480,0.965264,-0.420000,-1.750000,-1.190000,22.19
383896,0.163480,-0.286456,0.965264,-0.350000,-1.680000,-1.260000,22.25
383907,0.162992,-0.285968,0.966728,-0.070000,-1.330000,-1.400000,22.23
383919,0.161528,-0.282064,0.967704,0.140000,-1.050000,-1.470000,22.23
383930,0.157136,-0.278648,0.975024,-0.350000,-1.120000,-1.470000,22.21
383941,0.156648,-0.280600,0.975024,-0.280000,-0.980000,-1.750000,22.21
383952,0.157136,-0.284016,0.974536,0.140000,-1.190000,-1.330000,22.24
383964,0.153232,-0.276696,0.974536,0.280000,-2.240000,-1.120000,22.24
383975,0.159088,-0.276696,0.970632,0.490000,-2.310000,-1.260000,22.24
383986,0.162992,-0.275232,0.970144,0.560000,-2.240000,-0.700000,22.28
383997,0.159088,-0.273768,0.974048,0.490000,-2.450000,-0.490000,22.28
384008,0.160552,-0.275720,0.975024,0.490000,-2.170000,-0.560000,22.25
384019,0.158112,-0.274744,0.976000,0.490000,-1.330000,-0.700000,22.25
384030,0.156648,-0.276208,0.976488,0.490000,-1.960000,-0.350000,22.23
384041,0.159088,-0.278160,0.975024,0.840000,-2.030000,-0.490000,22.22
384052,0.160064,-0.281088,0.970632,1.330000,-1.820000,-0.280000,22.22
384063,0.158600,-0.272304,0.973072,1.470000,-2.170000,-0.210000,22.24
384074,0.160552,-0.270840,0.975024,1.050000,-2.100000,-0.140000,22.24
384085,0.157624,-0.270840,0.976488,0.770000,-2.030000,-0.140000,22.25
384096,0.156648,-0.276696,0.975024,0.630000,-2.240000,-0.140000,22.25
384107,0.158600,-0.280112,0.972096,0.560000,-2.100000,-0.210000,22.25
384118,0.158600,-0.280112,0.967704,0.980000,-1.890000,-0.140000,22.25
384129,0.156160,-0.278160,0.970144,1.050000,-1.960000,-0.070000,22.25
384140,0.158112,-0.276696,0.969168,0.980000,-1.960000,-0.070000,22.25
384151,0.161040,-0.276208,0.975024,0.630000,-2.100000,0.140000,22.24
384163,0.158600,-0.278648,0.975024,0.210000,-2.240000,0.070000,22.24
384174,0.158112,-0.281576,0.974536,0.280000,-2.170000,-0.140000,22.24
384185,0.158600,-0.279136,0.968192,0.350000,-2.240000,-0.280000,22.24
384203,0.164944,-0.279136,0.964776,-0.070000,-1.890000,-0.420000,22.28
384214,0.164944,-0.281576,0.970632,-0.420000,-1.820000,-0.490000,22.21
384225,0.161528,-0.281576,0.972096,-0.560000,-1.680000,-0.490000,22.20
384236,0.157624,-0.284504,0.969168,-0.210000,-1.680000,-0.490000,22.20
384247,0.152256,-0.282552,0.968680,0.140000,-1.330000,-0.350000,22.26
384259,0.157136,-0.284016,0.967704,0.490000,-1.470000,-0.420000,22.26
384270,0.153720,-0.281576,0.972584,0.630000,-1.610000,-0.350000,22.21
384281,0.155672,-0.280112,0.975024,0.630000,-1.610000,-0.210000,22.21
384292,0.154696,-0.282064,0.982344,0.490000,-1.890000,-0.280000,22.21
384303,0.152256,-0.280600,0.981368,0.490000,-2.030000,-0.210000,22.27
384315,0.152256,-0.279624,0.985272,0.420000,-2.240000,-0.210000,22.27
384326,0.153232,-0.285480,0.979904,0.630000,-2.380000,-0.420000,22.23
384337,0.156160,-0.286944,0.976000,1.260000,-2.450000,-0.280000,22.22
384348,0.156160,-0.281576,0.974048,1.540000,-2.590000,-0.280000,22.22
384359,0.155672,-0.278160,0.973072,1.190000,-2.660000,0.000000,22.25
384370,0.155184,-0.278160,0.975024,0.700000,-3.080000,-0.140000,22.25
384381,0.154208,-0.280600,0.979904,0.700000,-3.220000,0.070000,22.25
384392,0.151768,-0.283040,0.977952,0.840000,-3.570000,0.000000,22.25
384403,0.155184,-0.285480,0.977464,1.190000,-3.710000,0.210000,22.24
384414,0.159088,-0.282064,0.975024,1.820000,-3.430000,0.070000,22.24
384425,0.155184,-0.280112,0.972584,1.610000,-3.290000,0.070000,22.24
384436,0.156160,-0.280600,0.970144,1.470000,-3.430000,0.210000,22.23
384447,0.153720,-0.280112,0.971120,1.470000,-3.290000,0.140000,22.23
384458,0.158112,-0.277672,0.970632,1.050000,-3.430000,0.280000,22.24
384469,0.159088,-0.282064,0.969168,0.770000,-3.360000,0.070000,22.22
384480,0.160552,-0.286456,0.966240,1.050000,-3.290000,-0.070000,22.22
384492,0.161040,-0.277184,0.967216,1.050000,-3.150000,0.070000,22.27
384503,0.161040,-0.280112,0.970144,0.630000,-3.290000,-17.920000,22.27
384514,0.158600,-0.285480,0.970144,0.700000,-2.940000,0.070000,22.23
384525,0.154696,-0.286456,0.969656,1.190000,-2.800000,0.000000,22.21
384536,0.156160,-0.284992,0.968680,1.400000,-2.870000,-0.070000,22.21
384547,0.157624,-0.283528,0.965264,1.680000,-2.380000,-0.070000,22.26
384558,0.158600,-0.283528,0.969168,1.820000,-2.170000,-0.210000,22.26
384569,0.159088,-0.273768,0.971120,1.470000,-2.310000,-0.210000,22.24
384580,0.161040,-0.269864,0.972096,0.070000,-2.590000,-0.210000,22.24
384591,0.159576,-0.274744,0.972096,-0.700000,-2.520000,-0.210000,22.24
384602,0.160552,-0.280600,0.970144,-0.770000,-2.520000,-0.280000,22.28
384613,0.161528,-0.285968,0.970144,-0.560000,-2.380000,-0.280000,22.28
384624,0.159576,-0.287920,0.969656,0.140000,-2.170000,-0.350000,22.23
384635,0.157624,-0.280112,0.971120,0.700000,-2.100000,-0.280000,22.23
384646,0.159576,-0.277672,0.971120,0.560000,-2.170000,-0.350000,22.22
384657,0.156648,-0.276208,0.975024,0.070000,-2.240000,-0.210000,22.25
384668,0.158112,-0.278648,0.974048,-0.280000,-2.450000,-0.210000,22.25
384679,0.157136,-0.277672,0.974048,-0.420000,-2.660000,-0.070000,22.25
384690,0.156648,-0.280600,0.975512,-0.840000,-2.660000,-0.140000,22.25
384701,0.159576,-0.285968,0.974048,-0.560000,-2.730000,-0.070000,22.28
384712,0.160064,-0.288408,0.971608,0.210000,-2.660000,0.000000,22.25
384723,0.159576,-0.285480,0.972584,0.770000,-2.590000,-0.070000,22.25
384734,0.158600,-0.283040,0.974048,1.120000,-2.730000,-0.070000,22.27
384746,0.159576,-0.284992,0.973072,1.400000,-2.590000,-0.070000,22.27
384757,0.158112,-0.278160,0.972584,1.190000,-2.800000,-0.070000,22.24
384768,0.158600,-0.278160,0.973072,0.490000,-2.870000,0.000000,22.20
384779,0.158600,-0.282552,0.973560,0.210000,-3.010000,0.000000,22.20
384790,0.159088,-0.289384,0.974536,0.490000,-3.010000,0.070000,22.29
384801,0.155672,-0.291336,0.972096,0.980000,-3.080000,0.070000,22.29
384813,0.155672,-0.284016,0.974536,1.120000,-3.150000,-0.140000,22.24
384824,0.155672,-0.286456,0.973560,1.330000,-3.010000,-0.210000,22.21
384835,0.157624,-0.284016,0.974048,1.400000,-3.150000,-0.280000,22.21
384847,0.159088,-0.283040,0.976000,1.260000,-3.220000,-0.350000,22.25
384858,0.157624,-0.283528,0.970144,0.910000,-3.220000,-0.420000,22.25
384869,0.161040,-0.283528,0.971608,0.630000,-3.220000,-0.280000,22.28
384880,0.156648,-0.285480,0.967704,0.490000,-3.150000,-0.350000,22.22
384891,0.160552,-0.288408,0.967216,1.050000,-3.080000,-0.350000,22.22
384902,0.161528,-0.280600,0.970632,1.400000,-3.010000,-0.280000,22.28
384913,0.159576,-0.275232,0.973072,0.840000,-3.080000,-0.140000,22.28
384925,0.161040,-0.282064,0.971120,0.560000,-2.940000,-0.210000,22.26
384936,0.160064,-0.278160,0.969656,0.140000,-3.010000,-0.070000,22.18
384947,0.162504,-0.281576,0.969168,-0.350000,-3.150000,-0.210000,22.18
384958,0.163480,-0.290360,0.966728,0.000000,-2.800000,-0.420000,22.30
384969,0.163480,-0.292800,0.967704,0.980000,-2.520000,-0.280000,22.30
384980,0.162504,-0.284016,0.967704,1.540000,-2.590000,-0.350000,22.25
384991,0.160552,-0.280600,0.970632,1.260000,-2.590000,-0.210000,22.21
385002,0.161528,-0.284016,0.973072,1.260000,-2.590000,-0.140000,22.21
385013,0.157624,-0.279136,0.973072,1.120000,-2.730000,-0.210000,22.24
385024,0.159088,-0.279136,0.972096,0.910000,-2.730000,-0.210000,22.24
385036,0.159576,-0.281088,0.970144,0.700000,-2.800000,-0.140000,22.26
385047,0.162016,-0.284992,0.971120,0.910000,-2.870000,0.000000,22.23
385058,0.161040,-0.284504,0.973072,1.190000,-2.730000,0.000000,22.23
385069,0.160552,-0.280112,0.973560,1.400000,-2.800000,-0.070000,22.23
385080,0.161528,-0.277672,0.972584,1.190000,-2.870000,0.070000,22.23
385091,0.160064,-0.281576,0.971608,0.980000,-2.940000,0.000000,22.25
385102,0.163968,-0.284016,0.968192,1.120000,-2.870000,0.140000,22.25
385113,0.163968,-0.282064,0.968192,1.120000,-2.940000,0.210000,22.25
385124,0.162016,-0.280600,0.970632,0.770000,-2.940000,0.280000,22.25
385135,0.159576,-0.281088,0.971608,0.630000,-2.940000,0.140000,22.25
385146,0.157624,-0.283528,0.968680,1.050000,-2.940000,0.000000,22.25
385157,0.162504,-0.283040,0.965264,1.330000,-2.730000,0.140000,22.25
385168,0.162016,-0.278648,0.968192,0.980000,-2.870000,0.280000,22.18
385179,0.164456,-0.283040,0.970144,0.840000,-2.870000,0.280000,22.22
385189,0.163968,-0.284992,0.969656,0.840000,-2.450000,0.350000,22.22
385200,0.160552,-0.285968,0.972584,0.980000,-2.660000,0.280000,22.23
385214,0.160552,-0.284992,0.968680,1.330000,-2.590000,0.210000,22.22
385226,0.164456,-0.289384,0.968192,1.610000,-2.590000,-0.070000,22.22
385237,0.163968,-0.283528,0.967216,1.680000,-2.240000,-0.070000,22.25
385248,0.162992,-0.279624,0.965752,1.190000,-2.240000,0.070000,22.25
385259,0.162016,-0.281576,0.967216,0.630000,-2.240000,0.070000,22.26
385270,0.162016,-0.283528,0.968680,0.490000,-2.030000,0.070000,22.26
385281,0.158112,-0.286944,0.969656,0.560000,-1.960000,0.070000,22.26
385292,0.158112,-0.291824,0.971120,0.910000,-2.100000,-0.070000,22.29
385303,0.161040,-0.288408,0.970632,1.120000,-1.890000,-0.210000,22.29
385314,0.157624,-0.289872,0.970632,1.400000,-1.960000,-0.350000,22.26
385326,0.162504,-0.281576,0.968680,1.400000,-1.820000,-0.350000,22.27
385337,0.161040,-0.280600,0.973560,0.420000,-2.100000,-0.280000,22.27
385348,0.159576,-0.284504,0.975024,0.140000,-2.170000,-0.420000,22.25
385359,0.163480,-0.285968,0.975512,0.420000,-2.170000,-0.490000,22.25
385370,0.158112,-0.285480,0.972096,0.420000,-2.170000,-0.560000,22.25
385381,0.160064,-0.287432,0.973560,0.630000,-2.310000,-0.560000,22.25
385392,0.160552,-0.285480,0.972584,1.120000,-2.100000,-0.560000,22.23
385403,0.160064,-0.280600,0.974536,1.330000,-2.240000,-0.630000,22.28
385414,0.154696,-0.276696,0.973560,0.630000,-2.450000,-0.490000,22.28
385426,0.158112,-0.277184,0.972096,0.350000,-2.590000,-0.350000,22.23
385437,0.159576,-0.284016,0.969656,0.420000,-2.590000,-0.350000,22.23
385449,0.160552,-0.284016,0.969656,0.910000,-2.450000,-0.350000,22.27
385460,0.162504,-0.282064,0.970632,1.050000,-2.450000,-0.140000,22.30
385471,0.162016,-0.282064,0.971608,0.980000,-2.520000,-0.140000,22.30
385482,0.159576,-0.284016,0.970144,1.120000,-2.380000,-0.210000,22.26
385493,0.160552,-0.280600,0.969656,1.120000,-2.380000,-0.210000,22.26
385504,0.159576,-0.281576,0.968680,0.980000,-2.310000,-0.070000,22.23
385515,0.162016,-0.282552,0.969656,0.770000,-2.310000,-0.140000,22.29
385526,0.160064,-0.282552,0.967216,0.910000,-2.240000,0.000000,22.29
385537,0.159576,-0.284016,0.970144,0.980000,-2.100000,0.070000,22.25
385548,0.158112,-0.284016,0.968192,0.630000,-2.170000,0.070000,22.25
385559,0.160064,-0.286944,0.969168,0.630000,-2.100000,0.070000,22.25
385570,0.157624,-0.286944,0.970144,0.770000,-2.030000,-0.070000,22.27
385581,0.159088,-0.287432,0.973072,0.840000,-2.100000,-0.140000,22.27
385592,0.159576,-0.286944,0.975024,0.560000,-2.240000,-0.280000,22.27
385603,0.160552,-0.286456,0.972096,0.700000,-2.170000,-0.210000,22.27
385614,0.162016,-0.289384,0.968680,0.980000,-2.100000,-0.280000,22.25
385625,0.159088,-0.280600,0.969168,1.120000,-2.030000,-0.350000,22.23
385637,0.159088,-0.282552,0.970144,1.050000,-2.100000,-0.280000,22.23
385648,0.160552,-0.283040,0.973560,0.700000,-2.100000,-0.140000,22.27
385659,0.158600,-0.281576,0.974048,0.630000,-2.030000,-0.070000,22.27
385670,0.155672,-0.284504,0.974048,0.490000,-2.240000,-0.210000,22.30
385681,0.158112,-0.286456,0.972584,0.560000,-2.310000,-0.350000,22.24
385692,0.159576,-0.285480,0.971608,0.980000,-2.100000,-0.420000,22.24
385703,0.161528,-0.282064,0.971608,0.700000,-2.240000,-0.490000,22.29
385714,0.164456,-0.281576,0.974536,0.630000,-2.310000,-0.560000,22.29
385725,0.163480,-0.284992,0.975512,0.770000,-2.380000,-0.560000,22.23
385736,0.160552,-0.281576,0.970632,1.050000,-2.310000,-0.490000,22.27
385748,0.157136,-0.283040,0.969656,1.190000,-2.310000,-0.420000,22.27
385760,0.157624,-0.280600,0.969168,1.190000,-2.310000,-0.350000,22.27
385771,0.156648,-0.278648,0.971120,1.120000,-2.240000,-0.210000,22.27
385782,0.159088,-0.277184,0.968192,0.980000,-2.310000,-0.140000,22.25
385793,0.158112,-0.281088,0.971120,0.630000,-2.380000,-0.140000,22.25
385804,0.160064,-0.284992,0.972584,0.910000,-2.380000,-0.210000,22.25
385815,0.160064,-0.283040,0.970632,0.910000,-2.310000,-0.210000,22.28
385826,0.160552,-0.283528,0.969656,0.770000,-2.310000,-0.140000,22.28
385837,0.160552,-0.282064,0.967704,0.700000,-2.240000,-0.070000,22.27
385849,0.159576,-0.283528,0.969656,0.560000,-2.240000,-0.140000,22.24
385860,0.161040,-0.284016,0.970632,0.630000,-2.240000,-0.070000,22.24
385871,0.158112,-0.284016,0.973072,0.700000,-2.170000,-0.140000,22.27
385882,0.159088,-0.284992,0.969656,0.840000,-2.240000,-0.140000,22.27
385893,0.157624,-0.282064,0.972584,1.050000,-2.310000,-0.210000,22.24
385904,0.157136,-0.283040,0.971608,0.980000,-2.310000,-0.140000,22.25
385915,0.157624,-0.279136,0.969656,0.770000,-2.170000,-0.070000,22.25
385927,0.154208,-0.280600,0.975024,0.490000,-2.450000,0.070000,22.29
385938,0.158600,-0.284016,0.976488,0.350000,-2.520000,0.140000,22.29
385949,0.157136,-0.287920,0.975512,0.630000,-2.380000,0.000000,22.29
385960,0.158600,-0.290848,0.972584,1.260000,-2.590000,-0.070000,22.24
385971,0.157624,-0.284016,0.969168,1.330000,-2.520000,-0.070000,22.24
385982,0.159576,-0.286456,0.965752,1.330000,-2.450000,-0.070000,22.29
385994,0.161528,-0.283040,0.966728,1.400000,-2.310000,-0.070000,22.29
386005,0.157624,-0.283040,0.968192,1.120000,-2.170000,-0.070000,22.29
386016,0.156648,-0.280600,0.968680,0.630000,-2.170000,0.000000,22.25
386027,0.160064,-0.285480,0.971120,0.280000,-2.380000,-0.140000,22.25
386038,0.160064,-0.293288,0.973072,0.490000,-2.310000,-0.210000,22.25
386049,0.159576,-0.290360,0.972096,0.910000,-2.170000,-0.210000,22.25
386060,0.160064,-0.289872,0.971608,1.120000,-2.100000,-0.350000,22.25
386071,0.158112,-0.284992,0.970144,0.980000,-1.960000,-0.490000,22.25
386083,0.156648,-0.283040,0.970144,0.910000,-1.960000,-0.350000,22.29
386094,0.156648,-0.282064,0.973560,0.770000,-2.030000,-0.420000,22.24
386105,0.159088,-0.284016,0.968192,0.910000,-2.030000,-0.420000,22.24
386116,0.157624,-0.284016,0.967704,0.700000,-1.960000,-0.350000,22.27
386127,0.157624,-0.284992,0.971120,0.630000,-2.100000,-0.420000,22.27
386138,0.158600,-0.287432,0.974048,0.770000,-2.030000,-0.350000,22.28
386149,0.156648,-0.284504,0.974048,0.910000,-2.030000,-0.420000,22.21
386160,0.158600,-0.283040,0.974048,1.050000,-2.100000,-0.350000,22.21
386171,0.155672,-0.277672,0.971608,0.910000,-2.100000,-0.420000,22.27
386182,0.156648,-0.280600,0.974048,0.700000,-2.240000,-0.280000,22.27
386193,0.157136,-0.282552,0.971608,0.700000,-2.310000,-0.140000,22.25
386204,0.158112,-0.281088,0.976000,0.560000,-2.310000,-0.070000,22.23
386215,0.157136,-0.285480,0.972584,0.630000,-2.380000,-0.070000,22.23
386230,0.157624,-0.287432,0.974536,1.120000,-2.450000,-0.070000,22.29
386241,0.154696,-0.284992,0.975024,1.260000,-2.450000,0.000000,22.26
386252,0.157136,-0.284992,0.975024,1.120000,-2.590000,-0.140000,22.26
386263,0.158600,-0.284992,0.972584,1.120000,-2.450000,-0.070000,22.27
386274,0.159088,-0.283528,0.970632,0.980000,-2.520000,-0.210000,22.27
386285,0.158112,-0.284504,0.970144,0.980000,-2.520000,-0.210000,22.28
386296,0.157136,-0.281576,0.972096,0.910000,-2.520000,-0.140000,22.26
386308,0.155184,-0.283040,0.971120,0.770000,-2.590000,-0.140000,22.26
386319,0.155184,-0.284504,0.970632,0.770000,-2.520000,-0.140000,22.29
386330,0.156648,-0.285968,0.969656,0.770000,-2.520000,-0.140000,22.29
386341,0.157136,-0.287432,0.970632,0.700000,-2.590000,-0.280000,22.26
386352,0.157136,-0.286944,0.973560,0.560000,-2.520000,-0.350000,22.24
386364,0.159088,-0.285968,0.973072,0.630000,-2.660000,-0.280000,22.24
386376,0.157136,-0.285480,0.972096,0.630000,-2.590000,-0.350000,22.28
386387,0.162016,-0.284992,0.969168,0.560000,-2.450000,-0.490000,22.28
386398,0.159576,-0.285968,0.968192,0.700000,-2.240000,-0.420000,22.29
386409,0.159088,-0.284992,0.968680,0.910000,-2.310000,-0.420000,22.29
386421,0.159088,-0.278648,0.968192,1.120000,-2.100000,-0.140000,22.29
386432,0.156648,-0.275232,0.969656,0.280000,-2.170000,-0.140000,22.23
386443,0.156160,-0.282064,0.968680,-0.420000,-2.450000,-0.070000,22.23
386454,0.159088,-0.292800,0.970144,0.140000,-2.100000,-0.140000,22.25
386465,0.156648,-0.290848,0.973072,0.700000,-2.240000,-0.420000,22.25
386477,0.158600,-0.287432,0.974536,1.120000,-2.030000,-0.490000,22.25
386488,0.159576,-0.284016,0.972584,1.260000,-2.100000,-0.490000,22.28
386499,0.157624,-0.281088,0.968680,1.050000,-2.170000,-0.280000,22.28
386510,0.157136,-0.282552,0.971608,0.910000,-2.170000,-0.210000,22.29
386521,0.157136,-0.282064,0.970632,0.700000,-2.170000,-0.070000,22.28
386532,0.155184,-0.283528,0.968680,0.910000,-2.170000,-0.070000,22.28
386543,0.153720,-0.281576,0.972096,0.840000,-2.240000,-0.070000,22.25
386555,0.154208,-0.283040,0.972096,0.840000,-2.240000,-0.140000,22.25
386566,0.157136,-0.284016,0.972096,0.840000,-2.170000,0.000000,22.27
386577,0.159088,-0.286456,0.969656,0.840000,-2.030000,0.000000,22.26
386588,0.157624,-0.288896,0.967216,1.050000,-1.960000,0.000000,22.26
386599,0.157136,-0.285968,0.970144,1.120000,-1.960000,0.000000,22.29
386610,0.159576,-0.282552,0.971120,0.840000,-1.960000,-0.070000,22.29
386621,0.157624,-0.284016,0.974536,0.770000,-1.960000,-0.070000,22.28
386633,0.155672,-0.282064,0.975024,0.280000,-1.890000,-0.140000,22.25
386644,0.152744,-0.284016,0.971120,0.000000,-2.100000,-0.210000,22.25
386655,0.154696,-0.288896,0.973072,0.350000,-2.030000,-0.140000,22.25
386666,0.153232,-0.287432,0.970632,0.840000,-2.030000,-0.210000,22.25
386677,0.157136,-0.284016,0.973560,1.050000,-2.100000,-0.070000,22.28
386688,0.155672,-0.282552,0.974536,1.050000,-2.170000,0.000000,22.21
386699,0.153720,-0.280600,0.974536,0.980000,-2.240000,0.000000,22.21
386710,0.156648,-0.282552,0.976000,1.050000,-2.240000,-0.140000,22.28
386721,0.153720,-0.282064,0.972096,1.120000,-2.240000,-0.140000,22.28
386733,0.157624,-0.281088,0.970632,0.840000,-2.170000,-0.210000,22.30
386744,0.157624,-0.283528,0.971120,0.490000,-2.240000,-0.210000,22.25
386756,0.157136,-0.288896,0.971608,0.770000,-2.170000,-0.210000,22.25
386767,0.155672,-0.287432,0.969656,0.980000,-2.100000,-0.070000,22.27
386779,0.153720,-0.286944,0.970632,0.840000,-2.170000,-0.070000,22.27
386790,0.152744,-0.287920,0.971120,0.770000,-2.100000,-0.070000,22.26
386802,0.153720,-0.287432,0.971608,0.910000,-2.100000,-0.140000,22.25
386812,0.153232,-0.287432,0.968680,0.840000,-2.170000,-0.280000,22.25
386825,0.153720,-0.286944,0.969656,0.560000,-2.030000,-0.280000,22.29
386836,0.154208,-0.287920,0.971120,0.350000,-2.170000,-0.350000,22.29
386847,0.154696,-0.290360,0.973072,0.700000,-1.890000,-0.350000,22.25
386859,0.154696,-0.289384,0.973560,0.840000,-2.030000,-0.350000,22.26
386870,0.150792,-0.283528,0.972584,1.120000,-1.960000,-0.490000,22.26
386881,0.152256,-0.283040,0.975512,0.840000,-2.030000,-0.420000,22.27
386892,0.153232,-0.284992,0.973560,0.560000,-2.170000,-0.490000,22.27
386903,0.154208,-0.284992,0.975024,0.490000,-2.170000,-0.420000,22.26
386914,0.156160,-0.284504,0.973072,0.560000,-2.240000,-0.490000,22.26
386925,0.156160,-0.283040,0.971120,0.630000,-2.100000,-0.420000,22.26
386935,0.151768,-0.286944,0.971608,0.700000,-2.100000,-0.490000,22.26
386947,0.152744,-0.284992,0.972096,0.910000,-2.100000,-0.280000,22.26
386958,0.154208,-0.281576,0.974048,0.980000,-2.310000,-0.210000,22.25
386969,0.151280,-0.282064,0.973560,0.910000,-2.240000,0.000000,22.19
386980,0.154208,-0.280112,0.973072,0.840000,-2.380000,0.070000,22.19
386991,0.152744,-0.285968,0.971608,0.980000,-2.450000,0.000000,22.27
387002,0.156648,-0.284504,0.971608,1.260000,-2.380000,0.000000,22.27
387013,0.155672,-0.283528,0.973072,1.190000,-2.520000,0.140000,22.29
387024,0.157624,-0.285480,0.973560,1.330000,-2.520000,0.140000,22.25
387035,0.156160,-0.284992,0.971120,1.260000,-2.450000,0.070000,22.25
387046,0.154208,-0.283040,0.972096,1.190000,-2.520000,-0.070000,22.29
387057,0.153720,-0.285968,0.970632,1.050000,-2.520000,0.000000,22.29
387068,0.154208,-0.287920,0.970144,0.910000,-2.450000,-0.070000,22.27
387079,0.153720,-0.287920,0.970632,0.770000,-2.520000,-0.210000,22.27
387091,0.154208,-0.289872,0.968192,0.910000,-2.240000,-0.210000,22.21
387102,0.152744,-0.290848,0.971120,0.980000,-2.380000,-0.280000,22.24
387113,0.154696,-0.287432,0.972096,0.770000,-2.240000,-0.210000,22.24
387124,0.156160,-0.286456,0.970632,0.630000,-2.240000,-0.350000,22.27
387135,0.156160,-0.293288,0.968192,0.980000,-2.100000,-0.490000,22.27
387146,0.152744,-0.288896,0.969656,1.540000,-2.100000,-0.560000,22.21
387157,0.155184,-0.283528,0.969656,1.400000,-2.170000,-0.560000,22.27
387168,0.157136,-0.282552,0.972096,1.120000,-1.960000,-0.420000,22.27
387179,0.150304,-0.280600,0.970632,0.700000,-2.030000,-0.490000,22.26
387190,0.152744,-0.282552,0.971608,0.490000,-2.170000,-0.420000,22.26
387202,0.154696,-0.285480,0.970144,0.770000,-2.030000,-0.210000,22.28
387213,0.153232,-0.284992,0.969656,0.560000,-1.960000,-0.070000,22.23
387224,0.150792,-0.288896,0.969656,0.840000,-2.100000,-0.210000,22.23
387235,0.152256,-0.284992,0.972584,1.120000,-2.170000,-0.280000,22.31
387253,0.152744,-0.283040,0.978440,1.190000,-2.170000,-0.490000,22.28
387264,0.154696,-0.282552,0.975024,0.770000,-2.240000,-0.350000,22.28
387275,0.153720,-0.286456,0.972096,0.770000,-2.240000,-0.490000,22.29
387286,0.153720,-0.284016,0.971120,0.980000,-2.310000,-0.280000,22.25
387297,0.151768,-0.284504,0.969656,1.190000,-2.240000,-0.280000,22.25
387308,0.151768,-0.283528,0.967216,1.260000,-2.240000,-0.070000,22.28
387320,0.150304,-0.282552,0.971608,1.120000,-2.240000,0.000000,22.28
387331,0.149328,-0.285968,0.972096,1.120000,-2.380000,-0.070000,22.31
387343,0.150304,-0.285480,0.977464,1.050000,-2.450000,-0.140000,22.29
387354,0.152256,-0.284992,0.976488,0.630000,-2.590000,-0.210000,22.29
387365,0.154208,-0.287432,0.976488,0.630000,-2.660000,-0.350000,22.31
387376,0.154208,-0.291824,0.975512,0.770000,-2.730000,-0.490000,22.31
387387,0.156648,-0.290360,0.974536,1.050000,-2.520000,-0.490000,22.26
387398,0.154696,-0.283040,0.971120,1.120000,-2.660000,-0.490000,22.28
387410,0.153232,-0.282064,0.970144,0.910000,-2.590000,-0.490000,22.28
387421,0.153232,-0.283040,0.969656,0.700000,-2.660000,-0.420000,22.27
387431,0.152744,-0.283040,0.972584,0.490000,-2.660000,-0.350000,22.27
387443,0.151280,-0.282064,0.974536,0.280000,-2.800000,-0.350000,22.28
387454,0.153232,-0.285968,0.972096,0.630000,-2.870000,-0.210000,22.27
387465,0.154696,-0.284504,0.975024,0.770000,-2.730000,-0.280000,22.27
387477,0.154696,-0.285968,0.968680,1.260000,-2.800000,-0.280000,22.32
387488,0.153720,-0.280112,0.968680,1.120000,-2.800000,-0.140000,22.32
387499,0.154696,-0.281088,0.968192,1.050000,-2.730000,0.000000,22.30
387510,0.152256,-0.282552,0.967216,1.050000,-2.800000,-0.070000,22.26
387521,0.156648,-0.284992,0.969168,1.120000,-2.660000,0.070000,22.26
387532,0.156160,-0.284992,0.969168,0.980000,-2.800000,0.000000,22.25
387543,0.155184,-0.287920,0.967704,1.120000,-2.520000,0.070000,22.25
387554,0.155672,-0.287432,0.968192,1.260000,-2.520000,0.070000,22.28
387565,0.152256,-0.284504,0.968192,1.050000,-2.450000,0.140000,22.28
387576,0.152256,-0.289384,0.968680,0.910000,-2.380000,0.070000,22.28
387587,0.151768,-0.291824,0.973072,1.050000,-2.310000,0.000000,22.29
387598,0.152744,-0.287432,0.972096,1.120000,-2.170000,-0.140000,22.29
387609,0.153232,-0.288408,0.972584,0.980000,-2.310000,-0.350000,22.28
387620,0.153232,-0.287432,0.974048,0.910000,-2.030000,-0.350000,22.28
387631,0.154696,-0.287432,0.972584,0.980000,-2.240000,-0.490000,22.27
387643,0.154208,-0.285968,0.975024,0.910000,-2.310000,-0.490000,22.24
387654,0.150304,-0.285968,0.975512,0.770000,-2.310000,-0.420000,22.24
387665,0.153720,-0.288408,0.974536,0.840000,-2.450000,-0.560000,22.26
387676,0.152744,-0.285480,0.974536,1.050000,-2.380000,-0.560000,22.26
387687,0.153720,-0.283040,0.974048,0.910000,-2.590000,-0.630000,22.25
387698,0.152744,-0.282552,0.972096,0.910000,-2.380000,-0.420000,22.31
387709,0.153720,-0.282552,0.971120,0.770000,-2.520000,-0.420000,22.31
387720,0.154208,-0.281088,0.972096,0.700000,-2.450000,-0.280000,22.27
387731,0.152744,-0.284016,0.974536,0.490000,-2.590000,-0.350000,22.27
387742,0.155672,-0.286944,0.973560,0.840000,-2.520000,-0.280000,22.28
387754,0.154696,-0.285968,0.971608,1.260000,-2.380000,-0.210000,22.29
387764,0.155184,-0.283528,0.973072,1.330000,-2.590000,-0.070000,22.29
387775,0.156160,-0.281088,0.970632,1.330000,-2.590000,-0.140000,22.29
387787,0.153720,-0.281576,0.970144,1.120000,-2.450000,0.000000,22.29
387798,0.153720,-0.282064,0.971120,0.910000,-2.520000,0.000000,22.28
387809,0.154208,-0.284504,0.969656,0.700000,-2.590000,0.140000,22.25
387820,0.155184,-0.286944,0.968680,0.770000,-2.380000,0.070000,22.25
387831,0.154208,-0.289384,0.967704,1.330000,-2.240000,-0.070000,22.25
387842,0.151768,-0.285480,0.968680,1.400000,-2.240000,-0.210000,22.25
387852,0.154696,-0.284992,0.969168,1.050000,-2.170000,-0.070000,22.32
387863,0.154208,-0.287432,0.970632,1.260000,-2.030000,-0.210000,22.32
387875,0.153232,-0.278648,0.972584,0.840000,-2.030000,0.000000,22.23
387885,0.151280,-0.282552,0.972096,0.280000,-2.170000,-0.140000,22.22
387897,0.153720,-0.287432,0.975512,0.210000,-2.170000,-0.070000,22.22
387908,0.149816,-0.288408,0.975512,0.630000,-2.170000,-0.210000,22.29
387919,0.152744,-0.289872,0.974536,0.840000,-2.310000,-0.210000,22.29
387930,0.154696,-0.287432,0.972096,1.050000,-2.380000,-0.210000,22.29
387941,0.156160,-0.284992,0.975024,1.190000,-2.380000,-0.280000,22.26
387952,0.153720,-0.285480,0.974048,1.190000,-2.310000,-0.420000,22.26
387963,0.152744,-0.281088,0.974536,0.910000,-2.450000,-0.280000,22.29
387974,0.150792,-0.280600,0.975024,0.560000,-2.590000,-0.350000,22.29
387985,0.154208,-0.282552,0.974048,0.420000,-2.660000,-0.210000,22.28
387997,0.149816,-0.285968,0.973072,0.630000,-2.800000,-0.280000,22.23
388008,0.149328,-0.288896,0.972584,0.770000,-2.800000,-0.210000,22.23
388019,0.151768,-0.289384,0.971608,1.050000,-2.660000,-0.350000,22.27
388030,0.155184,-0.285480,0.971120,1.190000,-2.590000,-0.490000,22.27
388043,0.156160,-0.282552,0.970632,1.120000,-2.590000,-0.420000,22.27
388054,0.155184,-0.284016,0.973072,0.910000,-2.590000,-0.630000,22.27
388065,0.154208,-0.283528,0.969168,0.840000,-2.520000,-0.420000,22.27
388076,0.152744,-0.287920,0.970632,1.050000,-2.520000,-0.350000,22.29
388087,0.151768,-0.286456,0.967216,1.120000,-2.450000,-0.210000,22.29
388098,0.149328,-0.283528,0.971120,1.190000,-2.450000,-0.140000,22.31
388109,0.149328,-0.283040,0.972584,1.050000,-2.380000,-0.280000,22.26
388121,0.152256,-0.282552,0.968192,1.050000,-2.170000,-0.280000,22.26
388132,0.152744,-0.283528,0.969656,0.770000,-2.380000,-0.280000,22.26
388143,0.154208,-0.284992,0.970632,0.770000,-2.170000,-0.280000,22.26
388154,0.155672,-0.282552,0.970632,0.770000,-2.100000,-0.210000,22.30
388165,0.156648,-0.282552,0.970632,0.560000,-2.240000,-0.140000,22.28
388176,0.154696,-0.284504,0.970632,0.420000,-2.170000,0.000000,22.28
388187,0.155672,-0.286944,0.973072,0.770000,-2.170000,0.000000,22.28
388197,0.148840,-0.285968,0.973072,0.980000,-2.100000,0.000000,22.28
388209,0.151280,-0.280600,0.972096,0.840000,-2.310000,-0.140000,22.28
388220,0.150304,-0.281088,0.974048,0.700000,-2.380000,-0.140000,22.26
388231,0.153232,-0.283528,0.975024,0.420000,-2.520000,-0.070000,22.26
388242,0.154208,-0.285968,0.972096,0.420000,-2.310000,-0.070000,22.26
388253,0.153720,-0.285968,0.972584,0.700000,-2.450000,0.000000,22.26
388270,0.153720,-0.285480,0.973072,0.980000,-2.310000,0.070000,22.30
388281,0.151768,-0.285480,0.972096,0.980000,-2.450000,-0.140000,22.31
388292,0.153232,-0.284016,0.975512,0.840000,-2.520000,0.000000,22.31
388303,0.153720,-0.288408,0.969656,0.910000,-2.450000,0.000000,22.28
388314,0.154696,-0.289384,0.968680,1.190000,-2.450000,0.000000,22.28
388325,0.155672,-0.289872,0.967216,1.470000,-2.310000,-0.070000,22.28
388337,0.152256,-0.285968,0.971120,1.330000,-2.240000,0.140000,22.24
388349,0.152256,-0.285968,0.972584,0.910000,-2.380000,0.070000,22.26
388362,0.151768,-0.288896,0.973072,0.280000,-2.240000,-0.280000,22.26
388372,0.150792,-0.290360,0.972096,0.560000,-2.380000,-0.350000,22.28
388383,0.151280,-0.291336,0.970632,0.910000,-2.170000,-0.420000,22.28
388394,0.151768,-0.286944,0.970144,0.840000,-2.170000,-0.560000,22.25
388405,0.152256,-0.285968,0.969656,1.050000,-2.100000,-0.350000,22.25
388416,0.148840,-0.284016,0.971120,1.120000,-2.030000,-0.280000,22.25
388427,0.151768,-0.280600,0.972096,0.980000,-2.030000,-0.140000,22.27
388438,0.152744,-0.284016,0.974048,0.560000,-2.170000,-0.210000,22.27
388450,0.150304,-0.286944,0.972096,0.630000,-2.170000,-0.420000,22.28
388460,0.149816,-0.283528,0.971120,0.630000,-2.030000,-0.490000,22.28
388472,0.150792,-0.284992,0.973560,0.490000,-2.170000,-0.420000,22.25
388483,0.153720,-0.288408,0.971120,0.840000,-2.030000,-0.350000,22.27
388494,0.151768,-0.283528,0.972584,0.980000,-2.100000,-0.280000,22.27
388505,0.149328,-0.280600,0.973072,0.700000,-2.100000,-0.070000,22.27
388517,0.149816,-0.286456,0.973560,0.770000,-2.100000,-0.070000,22.27
388528,0.148352,-0.286456,0.973560,0.840000,-2.240000,-0.070000,22.25
388539,0.149328,-0.284016,0.976000,1.050000,-2.380000,-0.140000,22.29
388550,0.150792,-0.285968,0.974536,1.120000,-2.450000,-0.140000,22.29
388561,0.154208,-0.283528,0.972584,1.120000,-2.450000,-0.140000,22.29
388572,0.150792,-0.282064,0.974048,0.770000,-2.450000,-0.070000,22.29
388583,0.150304,-0.285480,0.969656,0.700000,-2.450000,-0.070000,22.28
388594,0.151768,-0.291336,0.969168,0.980000,-2.450000,-0.140000,22.25
388606,0.151768,-0.285968,0.972584,1.260000,-2.380000,-0.070000,22.25
388617,0.148840,-0.288408,0.975024,1.050000,-2.380000,-0.070000,22.25
388628,0.148352,-0.288408,0.973072,0.980000,-2.520000,-0.210000,22.25
388639,0.153232,-0.286456,0.970144,1.050000,-2.310000,-0.280000,22.29
388650,0.149816,-0.285480,0.970144,0.980000,-2.450000,-0.210000,22.27
388661,0.150304,-0.284016,0.969168,0.840000,-2.380000,-0.210000,22.27
388672,0.149816,-0.284992,0.972096,0.700000,-2.380000,-0.210000,22.29
388683,0.151280,-0.287432,0.972584,0.560000,-2.380000,-0.210000,22.29
388694,0.152256,-0.286456,0.972096,0.700000,-2.310000,-0.280000,22.29
388705,0.154208,-0.288896,0.972584,1.050000,-2.310000,-0.350000,22.29
388716,0.153720,-0.284016,0.970144,1.330000,-2.100000,-0.210000,22.29
388727,0.151280,-0.283040,0.967216,1.120000,-2.170000,-0.280000,22.28
388739,0.152744,-0.283040,0.969656,0.770000,-2.170000,-0.070000,22.28
388750,0.150792,-0.283528,0.971120,0.350000,-2.170000,-0.070000,22.30
388761,0.148352,-0.285480,0.973560,0.490000,-2.240000,0.070000,22.27
388773,0.144448,-0.289872,0.973560,0.560000,-2.170000,-0.070000,22.27
388784,0.151768,-0.288896,0.973072,1.190000,-2.240000,-0.210000,22.30
388795,0.149328,-0.288896,0.972584,1.610000,-1.960000,-0.280000,22.30
388806,0.153720,-0.284504,0.971120,1.540000,-2.030000,-0.420000,22.27
388818,0.152744,-0.281576,0.971608,1.190000,-2.030000,-0.350000,22.23
388829,0.152256,-0.285480,0.971608,0.910000,-2.100000,-0.280000,22.23
388840,0.150792,-0.284992,0.968192,1.050000,-2.030000,-0.070000,22.30
388851,0.149328,-0.284992,0.969168,1.400000,-1.890000,0.070000,22.30
388862,0.151280,-0.284992,0.968680,1.540000,-1.890000,0.140000,22.27
388873,0.147376,-0.281576,0.969656,1.820000,-1.820000,0.280000,22.23
388884,0.148352,-0.279624,0.968192,1.750000,-1.680000,0.210000,22.23
388895,0.147376,-0.282064,0.970632,1.540000,-1.610000,0.280000,22.27
388906,0.148352,-0.280112,0.974048,1.050000,-1.680000,0.420000,22.27
388917,0.152744,-0.284992,0.973072,0.910000,-1.540000,0.350000,22.24
388928,0.150792,-0.286944,0.972584,1.050000,-1.610000,0.140000,22.28
388939,0.150792,-0.288408,0.968680,1.330000,-1.470000,0.210000,22.28
388950,0.149816,-0.289872,0.968192,1.470000,-1.610000,0.280000,22.27
388961,0.149816,-0.284016,0.976976,1.190000,-1.750000,0.140000,22.27
388973,0.149816,-0.286456,0.975024,1.190000,-1.750000,0.070000,22.27
388983,0.147864,-0.287920,0.975024,1.470000,-1.610000,-0.070000,22.30
388994,0.145424,-0.280112,0.976488,1.050000,-1.890000,-0.070000,22.30
389006,0.148352,-0.287920,0.972096,0.840000,-1.820000,-0.210000,22.27
389017,0.147376,-0.289872,0.972584,1.190000,-1.680000,-17.920000,22.27
389027,0.146888,-0.288896,0.973560,1.400000,-1.610000,-0.210000,22.27
389038,0.147864,-0.287432,0.974048,1.330000,-1.750000,-0.140000,22.27
389050,0.145424,-0.278648,0.978928,1.050000,-1.750000,-0.210000,22.29
389061,0.146888,-0.285480,0.976976,0.980000,-1.890000,-0.210000,22.26
389072,0.147864,-0.289384,0.975512,1.050000,-2.170000,-0.420000,22.26
389083,0.149328,-0.287432,0.974536,1.260000,-1.960000,-0.420000,22.29
389094,0.147376,-0.285968,0.973560,1.330000,-2.170000,-0.350000,22.29
389105,0.147864,-0.282064,0.977464,1.050000,-2.240000,-0.350000,22.31
389117,0.142496,-0.283528,0.976488,0.980000,-2.170000,-0.420000,22.25
389128,0.142008,-0.284504,0.975512,1.050000,-2.310000,-0.420000,22.25
389139,0.141520,-0.288896,0.973072,1.190000,-2.450000,-0.420000,22.26
389150,0.147376,-0.287432,0.973072,1.400000,-2.450000,-0.280000,22.26
389161,0.146400,-0.284992,0.976000,1.540000,-2.380000,-0.630000,22.27
389172,0.149328,-0.282064,0.973072,1.330000,-2.450000,-0.490000,22.23
389183,0.148840,-0.284016,0.975024,0.840000,-2.800000,-0.700000,22.23
389194,0.151280,-0.291824,0.974536,0.630000,-2.940000,-0.840000,22.29
389205,0.148840,-0.298656,0.969656,0.910000,-2.310000,-1.260000,22.29
389216,0.146888,-0.292312,0.970632,1.050000,-2.310000,-1.610000,22.25
389228,0.148352,-0.292800,0.969656,1.050000,-2.100000,-1.540000,22.25
389239,0.145424,-0.285968,0.973560,1.050000,-1.960000,-1.680000,22.25
389250,0.144936,-0.281576,0.974048,0.980000,-2.030000,-1.820000,22.23
389261,0.144936,-0.280600,0.974048,0.700000,-1.960000,-1.750000,22.23
389273,0.143960,-0.278160,0.974536,1.050000,-2.170000,-1.260000,22.30
389288,0.146888,-0.272304,0.973560,1.050000,-2.170000,-0.980000,22.30
389299,0.148840,-0.269376,0.973072,1.190000,-2.310000,-0.630000,22.30
389310,0.151768,-0.266936,0.972584,0.840000,-2.450000,-0.140000,22.27
389321,0.151280,-0.266936,0.972096,0.910000,-2.310000,0.140000,22.26
389334,0.148352,-0.267912,0.971608,1.120000,-2.310000,0.490000,22.26
389346,0.147376,-0.266936,0.971608,0.980000,-2.450000,0.630000,22.28
389357,0.148352,-0.273280,0.972584,0.840000,-2.310000,0.980000,22.22
389368,0.147864,-0.276208,0.973072,0.980000,-2.730000,1.190000,22.22
389379,0.146888,-0.283040,0.974048,0.980000,-2.730000,1.260000,22.30
389390,0.149328,-0.283528,0.973072,1.260000,-2.520000,1.330000,22.30
389401,0.145424,-0.284504,0.973072,1.190000,-2.870000,1.610000,22.25
389412,0.144936,-0.287432,0.970632,1.260000,-2.520000,1.120000,22.25
389423,0.146400,-0.288408,0.967216,1.050000,-2.520000,1.190000,22.25
389435,0.148352,-0.292312,0.966728,0.770000,-2.520000,0.910000,22.25
389446,0.146400,-0.296216,0.970144,0.980000,-2.380000,0.630000,22.25
389458,0.144936,-0.293776,0.968680,1.120000,-2.100000,0.420000,22.28
389469,0.147864,-0.293288,0.972096,1.120000,-2.030000,0.140000,22.27
389480,0.144936,-0.294264,0.970632,0.840000,-1.680000,-0.070000,22.27
389491,0.145424,-0.292800,0.967704,0.700000,-1.610000,-0.280000,22.30
389504,0.147376,-0.287432,0.969168,0.770000,-1.470000,-0.280000,22.30
389515,0.143960,-0.283040,0.973072,0.280000,-1.470000,-0.490000,22.29
389526,0.141032,-0.286456,0.974536,0.000000,-1.400000,-0.630000,22.29
389537,0.142496,-0.283528,0.973072,-0.140000,-1.540000,-0.560000,22.29
389549,0.142496,-0.287432,0.977464,0.070000,-1.540000,-0.700000,22.32
389560,0.143472,-0.287432,0.976000,0.280000,-1.540000,-0.630000,22.32
389571,0.145424,-0.286456,0.981368,0.630000,-1.750000,-0.910000,22.27
389583,0.145424,-0.284504,0.976976,1.050000,-1.890000,-0.840000,22.28
389594,0.144448,-0.280112,0.980392,1.400000,-2.170000,-0.840000,22.28
389605,0.143960,-0.276208,0.981856,0.980000,-2.310000,-0.630000,22.29
389616,0.142008,-0.278648,0.981368,0.490000,-2.590000,-0.560000,22.29
389627,0.142008,-0.281088,0.977464,0.700000,-2.730000,-0.490000,22.32
389638,0.142008,-0.284504,0.977464,0.770000,-2.870000,-0.350000,22.30
389649,0.144936,-0.283040,0.976000,1.190000,-3.010000,-0.280000,22.30
389660,0.144448,-0.279136,0.974048,1.330000,-2.870000,-0.280000,22.27
389671,0.144936,-0.276208,0.972584,0.980000,-3.010000,-0.210000,22.27
389682,0.146400,-0.277672,0.971608,0.350000,-3.080000,-0.070000,22.27
389693,0.148352,-0.284016,0.973072,0.070000,-3.150000,-0.070000,22.25
389704,0.146888,-0.286456,0.967216,0.560000,-3.010000,-0.070000,22.25
389715,0.146400,-0.284992,0.968192,0.840000,-2.870000,0.000000,22.27
389726,0.144936,-0.284992,0.966728,0.910000,-2.800000,-0.140000,22.27
389738,0.146888,-0.286456,0.968192,0.980000,-2.590000,-0.070000,22.30
389749,0.143472,-0.284992,0.966728,0.910000,-2.520000,-0.140000,22.23
389761,0.146400,-0.282064,0.970144,0.560000,-2.380000,-0.070000,22.23
389772,0.146400,-0.284992,0.968192,0.350000,-2.310000,0.000000,22.29
389782,0.144936,-0.288896,0.969656,0.490000,-2.310000,-0.210000,22.29
389793,0.146400,-0.288408,0.971608,0.700000,-2.170000,-0.280000,22.30
389804,0.146400,-0.284504,0.972584,0.630000,-2.170000,-0.350000,22.30
389815,0.145424,-0.282552,0.971120,0.560000,-2.100000,-0.350000,22.27
389826,0.146888,-0.283040,0.971608,0.490000,-2.100000,-0.420000,22.26
389838,0.146888,-0.281576,0.970632,0.420000,-2.100000,-0.350000,22.26
389849,0.143960,-0.284016,0.973560,0.350000,-2.030000,-0.210000,22.30
389860,0.145424,-0.284016,0.972584,0.350000,-2.030000,-0.070000,22.30
389871,0.143960,-0.284992,0.971608,0.560000,-1.960000,0.070000,22.28
389882,0.144448,-0.290360,0.974536,0.910000,-2.170000,-0.070000,22.31
389893,0.146888,-0.285968,0.976488,1.190000,-1.960000,0.140000,22.31
389904,0.144448,-0.283040,0.977952,1.120000,-2.170000,0.000000,22.28
389915,0.144936,-0.283528,0.975512,0.770000,-2.170000,-0.140000,22.28
389926,0.142008,-0.285968,0.976488,0.560000,-2.170000,-0.280000,22.27
389937,0.143472,-0.288896,0.976000,0.280000,-2.380000,-0.420000,22.27
389948,0.144936,-0.290360,0.972584,0.420000,-2.310000,-0.560000,22.27
389959,0.141032,-0.287432,0.974048,0.770000,-2.380000,-0.490000,22.30
389970,0.144936,-0.288408,0.972096,0.840000,-2.450000,-0.420000,22.30
389981,0.143472,-0.284504,0.973072,0.840000,-2.380000,-0.490000,22.30
389993,0.143960,-0.284016,0.975024,0.840000,-2.450000,-0.280000,22.24
390004,0.142984,-0.284016,0.975512,0.630000,-2.520000,-0.350000,22.24
390015,0.142008,-0.284016,0.972584,0.560000,-2.520000,-0.420000,22.31
390026,0.142496,-0.286456,0.972584,0.700000,-2.590000,-0.420000,22.31
390037,0.147376,-0.284992,0.973560,0.840000,-2.450000,-0.420000,22.29
390049,0.143960,-0.282552,0.973072,1.050000,-2.380000,-0.350000,22.28
390060,0.145424,-0.283528,0.970632,0.840000,-2.520000,-0.210000,22.28
390071,0.143472,-0.284016,0.972096,0.910000,-2.380000,-0.210000,22.30
390082,0.141520,-0.285480,0.973072,0.770000,-2.450000,-0.210000,22.30
390093,0.143472,-0.285480,0.973560,0.910000,-2.380000,-0.210000,22.30
390104,0.142496,-0.283528,0.973560,1.050000,-2.310000,-0.210000,22.30
390116,0.145912,-0.285968,0.969168,1.050000,-2.380000,-0.140000,22.30
390127,0.146888,-0.286944,0.968680,1.120000,-2.240000,-0.070000,22.31
390138,0.145912,-0.282552,0.971120,0.980000,-2.240000,0.000000,22.31
390150,0.144936,-0.284992,0.972096,0.770000,-2.310000,-0.070000,22.32
390161,0.141520,-0.283528,0.976000,0.700000,-2.170000,0.070000,22.28
390172,0.144448,-0.286944,0.975024,0.770000,-2.240000,-0.140000,22.28
390183,0.142496,-0.287432,0.971608,1.190000,-2.310000,-0.210000,22.25
390194,0.146888,-0.285480,0.973072,1.190000,-2.310000,-0.210000,22.25
390205,0.150304,-0.284992,0.971120,1.050000,-2.310000,-0.140000,22.32
390216,0.144936,-0.284504,0.969656,0.980000,-2.240000,-0.210000,22.25
390227,0.142984,-0.282552,0.972096,0.840000,-2.310000,0.000000,22.25
390238,0.141520,-0.284016,0.973560,0.700000,-2.310000,0.000000,22.29
390249,0.141032,-0.285968,0.974048,0.630000,-2.310000,0.000000,22.29
390261,0.141032,-0.289872,0.973560,0.770000,-2.380000,-0.140000,22.32
390272,0.143960,-0.285968,0.970632,0.910000,-2.170000,-0.140000,22.29
390283,0.146888,-0.286944,0.971120,0.840000,-2.310000,-0.350000,22.29
390298,0.144936,-0.286944,0.970144,0.840000,-1.960000,-0.420000,22.30
390309,0.146400,-0.284992,0.974536,0.770000,-2.170000,-0.420000,22.30
390320,0.145424,-0.286944,0.976000,0.700000,-2.170000,-0.350000,22.30
390331,0.143472,-0.286944,0.976000,0.630000,-2.240000,-0.420000,22.33
390342,0.141520,-0.288896,0.973072,0.770000,-2.240000,-0.350000,22.33
390353,0.142008,-0.289384,0.969656,1.190000,-2.310000,-0.210000,22.34
390364,0.139568,-0.283040,0.971608,1.190000,-2.240000,-0.070000,22.31
390376,0.138592,-0.284504,0.973560,1.050000,-2.240000,-0.070000,22.31
390387,0.142496,-0.285480,0.975512,1.050000,-2.170000,-0.210000,22.27
390398,0.144936,-0.284504,0.975024,0.910000,-2.310000,-0.210000,22.27
390409,0.143960,-0.285968,0.975024,0.700000,-2.380000,-0.280000,22.26
390420,0.147376,-0.286456,0.974536,0.700000,-2.310000,-0.350000,22.30
390431,0.145424,-0.283040,0.971608,0.770000,-2.380000,-0.420000,22.30
390442,0.144448,-0.282552,0.971608,0.700000,-2.380000,-0.210000,22.29
390454,0.143960,-0.283040,0.973560,0.630000,-2.310000,-0.140000,22.29
390465,0.144936,-0.285968,0.973560,0.700000,-2.450000,-0.210000,22.29
390476,0.143960,-0.284016,0.972584,0.560000,-2.310000,-0.140000,22.29
390487,0.142984,-0.286944,0.971120,0.770000,-2.450000,-0.070000,22.27
390499,0.142008,-0.285968,0.970632,1.120000,-2.380000,0.000000,22.29
390510,0.143472,-0.284016,0.973560,1.260000,-2.310000,0.070000,22.29
390521,0.143472,-0.284016,0.970632,0.910000,-2.380000,0.140000,22.29
390532,0.144448,-0.285968,0.972584,0.840000,-2.310000,0.070000,22.29
390543,0.143472,-0.283528,0.973560,0.770000,-2.240000,0.140000,22.29
390554,0.144936,-0.287432,0.971608,0.770000,-2.310000,0.000000,22.29
390565,0.144936,-0.286456,0.972584,0.770000,-2.240000,0.070000,22.29
390576,0.145912,-0.290360,0.972096,0.980000,-2.100000,0.000000,22.27
390587,0.143472,-0.285968,0.972584,0.980000,-2.100000,0.070000,22.27
390598,0.142008,-0.286944,0.973560,0.840000,-2.100000,0.140000,22.30
390609,0.140056,-0.289384,0.973072,0.630000,-2.170000,0.070000,22.28
390620,0.139080,-0.291336,0.975024,0.700000,-2.170000,0.000000,22.28
390631,0.141520,-0.290848,0.974048,0.840000,-2.170000,-0.140000,22.29
390642,0.144448,-0.286944,0.974536,0.770000,-2.240000,-0.280000,22.29
390653,0.143472,-0.287432,0.974536,0.910000,-2.240000,-0.280000,22.26
390664,0.143960,-0.286944,0.976488,0.910000,-2.310000,-0.210000,22.29
390675,0.142008,-0.284992,0.975512,0.840000,-2.380000,-0.280000,22.29
390687,0.139080,-0.288408,0.976000,0.770000,-2.240000,-0.420000,22.31
390698,0.139080,-0.284992,0.972584,0.980000,-2.380000,-0.350000,22.31
390709,0.140544,-0.285968,0.972096,0.980000,-2.450000,-0.420000,22.28
390720,0.144448,-0.288408,0.973560,0.910000,-2.520000,-0.350000,22.32
390731,0.142008,-0.286944,0.975024,0.910000,-2.450000,-0.350000,22.32
390742,0.142008,-0.284504,0.975024,0.840000,-2.520000,-0.420000,22.33
390754,0.142008,-0.285968,0.974536,0.770000,-2.520000,-0.350000,22.33
390765,0.143472,-0.284016,0.972096,1.120000,-2.450000,-0.280000,22.28
390776,0.141520,-0.281576,0.973560,0.840000,-2.450000,-0.280000,22.28
390787,0.142008,-0.283528,0.970632,0.840000,-2.380000,-0.280000,22.28
390798,0.141520,-0.287920,0.971608,1.050000,-2.380000,-0.280000,22.31
390809,0.144936,-0.285480,0.973072,1.120000,-2.450000,-0.140000,22.31
390820,0.142984,-0.286944,0.972584,1.120000,-2.380000,0.000000,22.32
390831,0.144448,-0.286456,0.973072,1.050000,-2.450000,0.070000,22.25
390847,0.140056,-0.283528,0.971120,1.050000,-2.380000,0.000000,22.25
390859,0.142008,-0.285480,0.973072,0.910000,-2.310000,-0.070000,22.30
390870,0.143472,-0.283528,0.972584,0.770000,-2.240000,-0.070000,22.27
390881,0.143960,-0.285968,0.972584,0.560000,-2.380000,-0.140000,22.27
390892,0.143472,-0.287432,0.973072,0.630000,-2.310000,-0.140000,22.27
390903,0.141032,-0.288896,0.974048,0.700000,-2.240000,-0.070000,22.27
390914,0.141032,-0.285968,0.972584,0.840000,-2.240000,0.000000,22.30
390925,0.141032,-0.287920,0.975512,0.840000,-2.310000,-0.070000,22.28
390936,0.139080,-0.289384,0.974048,1.120000,-2.520000,-0.210000,22.28
390947,0.143472,-0.287920,0.975024,1.050000,-2.520000,-0.140000,22.29
390959,0.144936,-0.287920,0.976488,0.980000,-2.590000,-0.210000,22.29
390970,0.142984,-0.285480,0.971120,0.910000,-2.450000,-0.210000,22.30
390981,0.146888,-0.285968,0.972584,0.840000,-2.450000,-0.280000,22.25
390993,0.143960,-0.283040,0.972096,0.630000,-2.450000,-0.140000,22.25
391004,0.140544,-0.287432,0.973560,0.420000,-2.450000,-0.210000,22.34
391015,0.140544,-0.287432,0.973072,0.700000,-2.380000,-0.140000,22.34
391027,0.139080,-0.287432,0.973072,0.630000,-2.520000,-0.210000,22.29
391038,0.142496,-0.288896,0.974048,0.700000,-2.310000,-0.280000,22.31
391049,0.143960,-0.289872,0.972584,1.050000,-2.380000,-0.490000,22.31
391063,0.144448,-0.286944,0.971120,1.400000,-2.240000,-0.490000,22.32
391074,0.142496,-0.284016,0.972584,1.260000,-2.240000,-0.350000,22.26
391085,0.140544,-0.282552,0.972584,1.050000,-2.240000,-0.210000,22.26
391096,0.139080,-0.284992,0.970632,0.910000,-2.100000,-0.070000,22.27
391107,0.138592,-0.284504,0.971120,0.910000,-2.100000,-0.070000,22.27
391118,0.136640,-0.284992,0.970632,0.910000,-2.100000,-0.070000,22.27
391130,0.139080,-0.287432,0.971120,0.980000,-2.100000,-0.070000,22.27
391141,0.142496,-0.286944,0.971608,1.190000,-1.960000,-0.140000,22.27
391152,0.142496,-0.286456,0.973072,1.050000,-1.960000,-0.140000,22.27
391163,0.142984,-0.284504,0.971120,0.630000,-2.100000,-0.070000,22.27
391175,0.143472,-0.285968,0.973072,0.700000,-2.100000,-0.070000,22.35
391186,0.142008,-0.284016,0.974048,0.630000,-2.030000,-0.140000,22.26
391197,0.139080,-0.285480,0.971608,0.630000,-1.960000,-0.140000,22.26
391208,0.140544,-0.285480,0.974048,0.630000,-1.960000,0.000000,22.26
391219,0.140544,-0.285968,0.973560,0.630000,-2.030000,-0.070000,22.26
391230,0.141032,-0.286944,0.976000,0.770000,-2.100000,0.000000,22.29
391241,0.141520,-0.287432,0.976000,0.910000,-2.170000,0.070000,22.25
391252,0.142008,-0.284504,0.979904,0.910000,-2.240000,0.210000,22.25
391263,0.138592,-0.287920,0.973560,1.120000,-2.310000,0.070000,22.30
391274,0.139568,-0.284992,0.970632,1.190000,-2.240000,0.070000,22.30
391286,0.138104,-0.282064,0.974536,0.840000,-2.240000,0.140000,22.26
391297,0.142496,-0.286944,0.974536,0.560000,-2.310000,0.070000,22.26
391313,0.142496,-0.290360,0.973072,0.910000,-2.310000,0.070000,22.29
391325,0.142496,-0.288408,0.970632,1.120000,-2.240000,0.000000,22.32
391336,0.141032,-0.289872,0.972096,1.190000,-2.240000,0.000000,22.30
391347,0.139568,-0.286456,0.973072,1.190000,-2.170000,0.070000,22.30
391358,0.139568,-0.288408,0.971120,1.050000,-2.170000,0.070000,22.31
391369,0.137128,-0.287920,0.972096,0.910000,-2.310000,0.000000,22.31
391380,0.138104,-0.290360,0.974536,0.840000,-2.240000,-0.070000,22.30
391391,0.139080,-0.290360,0.974048,0.700000,-2.170000,-0.210000,22.30
391403,0.142496,-0.288408,0.971608,0.840000,-2.100000,-0.350000,22.30
391414,0.142496,-0.286944,0.970632,0.980000,-2.100000,-0.420000,22.31
391425,0.141520,-0.286456,0.972584,0.910000,-1.960000,-0.420000,22.31
391436,0.136640,-0.281576,0.974048,0.630000,-2.030000,-0.280000,22.31
391447,0.135664,-0.284016,0.974048,0.210000,-2.170000,-0.350000,22.25
391458,0.138104,-0.289872,0.973560,0.560000,-2.170000,-0.210000,22.25
391469,0.139568,-0.287920,0.972584,0.700000,-2.100000,-0.210000,22.28
391480,0.140056,-0.287920,0.972584,1.120000,-1.960000,-0.210000,22.28
391491,0.142008,-0.283040,0.974048,1.470000,-1.960000,-0.210000,22.31
391502,0.139568,-0.280600,0.976488,0.910000,-2.100000,-0.140000,22.31
391513,0.138104,-0.281088,0.973560,0.630000,-2.100000,-0.070000,22.27
391524,0.137616,-0.284016,0.974048,0.490000,-2.240000,-0.140000,22.31
391535,0.137616,-0.287432,0.975512,0.490000,-2.170000,-0.140000,22.31
391546,0.138592,-0.288408,0.974048,0.840000,-2.170000,0.070000,22.33
391558,0.140056,-0.286944,0.974536,1.120000,-2.170000,0.070000,22.33
391569,0.139568,-0.285968,0.973560,1.330000,-2.240000,0.140000,22.28
391580,0.136640,-0.284504,0.972096,1.260000,-2.240000,0.140000,22.27
391591,0.137616,-0.284504,0.974536,1.120000,-2.240000,0.140000,22.27
391603,0.138104,-0.286944,0.972096,1.050000,-2.310000,0.140000,22.28
391615,0.138104,-0.284992,0.971608,0.770000,-2.240000,0.140000,22.31
391626,0.141032,-0.289872,0.972096,0.770000,-2.170000,0.070000,22.31
391637,0.141032,-0.292312,0.970144,0.910000,-1.960000,0.000000,22.29
391648,0.137128,-0.289384,0.972096,1.050000,-2.030000,-0.070000,22.29
391659,0.137616,-0.288408,0.970632,0.910000,-1.960000,-0.070000,22.29
391670,0.138592,-0.286944,0.972584,0.770000,-2.170000,-0.140000,22.29
391681,0.137128,-0.286456,0.974048,0.700000,-1.960000,-0.210000,22.29
391692,0.137128,-0.287432,0.972096,0.700000,-1.820000,-0.140000,22.29
391703,0.138104,-0.285480,0.975024,0.630000,-2.030000,-0.140000,22.29
391714,0.139080,-0.287432,0.976488,0.700000,-2.170000,-0.070000,22.35
391725,0.142008,-0.284016,0.976488,0.770000,-2.240000,0.070000,22.35
391736,0.137128,-0.285968,0.976976,0.700000,-2.100000,0.000000,22.32
391747,0.134688,-0.285968,0.974048,0.910000,-2.240000,0.070000,22.30
391758,0.135664,-0.284504,0.974536,0.910000,-2.240000,-0.140000,22.30
391770,0.139080,-0.285968,0.975024,0.700000,-2.520000,0.070000,22.31
391781,0.135176,-0.286456,0.975024,0.350000,-2.450000,0.140000,22.31
391792,0.134688,-0.291824,0.974048,0.630000,-2.380000,0.210000,22.32
391803,0.136152,-0.289384,0.973560,0.910000,-2.380000,0.000000,22.26
391816,0.138104,-0.290360,0.975512,1.120000,-2.520000,-0.070000,22.26
391828,0.140056,-0.291336,0.973560,1.120000,-2.380000,-0.280000,22.30
391841,0.139568,-0.288408,0.974536,1.120000,-2.450000,-0.280000,22.31
391852,0.139080,-0.290848,0.973560,1.120000,-2.240000,-0.210000,22.31
391863,0.138104,-0.289384,0.972096,1.120000,-2.310000,-0.210000,22.30
391874,0.134688,-0.288408,0.971120,1.260000,-2.310000,-0.140000,22.30
391885,0.134688,-0.285968,0.970632,1.050000,-2.240000,-0.210000,22.34
391897,0.134200,-0.286944,0.972584,1.050000,-2.240000,-0.140000,22.26
391908,0.137616,-0.284504,0.974048,1.190000,-2.240000,-0.140000,22.26
391921,0.136640,-0.283528,0.973072,0.840000,-2.310000,-0.210000,22.34
391933,0.139080,-0.287432,0.972096,0.560000,-2.310000,-0.210000,22.30
391944,0.139080,-0.286944,0.972584,0.560000,-2.240000,-0.210000,22.30
391955,0.138592,-0.287920,0.971120,0.770000,-2.170000,-0.140000,22.32
391966,0.138104,-0.287432,0.971608,0.980000,-2.100000,-0.140000,22.32
391977,0.134200,-0.284016,0.975024,0.840000,-2.100000,-0.140000,22.27
391988,0.135664,-0.283040,0.974536,0.490000,-2.170000,-0.140000,22.33
391999,0.136640,-0.286456,0.976000,0.700000,-2.170000,-0.210000,22.33
392010,0.134688,-0.283040,0.976976,0.630000,-2.310000,-0.280000,22.30
392022,0.137128,-0.287432,0.975512,0.770000,-2.380000,-0.070000,22.30
392033,0.135176,-0.285968,0.975024,1.120000,-2.450000,-0.070000,22.33
392044,0.136640,-0.285480,0.976976,1.330000,-2.520000,0.000000,22.28
392055,0.136640,-0.283528,0.976488,1.190000,-2.520000,0.070000,22.28
392066,0.133224,-0.284992,0.975024,1.050000,-2.520000,0.070000,22.29
392078,0.136152,-0.284992,0.971120,1.120000,-2.590000,0.070000,22.29
392089,0.138104,-0.287920,0.972584,1.120000,-2.520000,0.000000,22.31
392100,0.138592,-0.288408,0.967216,0.980000,-2.450000,0.070000,22.31
392110,0.138104,-0.289872,0.969168,1.050000,-2.310000,0.210000,22.30
392121,0.136640,-0.290848,0.968680,1.120000,-2.240000,0.140000,22.30
392132,0.134200,-0.287432,0.970144,0.980000,-2.170000,0.070000,22.30
392143,0.134200,-0.291336,0.972584,0.980000,-2.030000,0.070000,22.26
392154,0.134688,-0.290360,0.973560,0.910000,-2.030000,-0.070000,22.26
392166,0.135664,-0.289872,0.971120,0.770000,-1.960000,-0.210000,22.32
392177,0.135664,-0.288408,0.972096,0.910000,-1.890000,-0.280000,22.34
392188,0.137616,-0.287920,0.972096,0.770000,-1.820000,-0.280000,22.34
392199,0.138104,-0.286944,0.972584,0.840000,-1.750000,-0.350000,22.34
392210,0.136640,-0.286944,0.973072,0.700000,-1.820000,-0.280000,22.34
392222,0.134200,-0.288896,0.976000,0.700000,-1.960000,-0.350000,22.31
392233,0.133712,-0.287432,0.976976,0.910000,-1.750000,-0.350000,22.31
392244,0.135664,-0.283528,0.975024,0.910000,-1.820000,-0.210000,22.31
392255,0.135176,-0.283528,0.976000,0.630000,-2.170000,-0.350000,22.33
392266,0.135176,-0.287432,0.976488,0.420000,-2.240000,-0.350000,22.33
392277,0.134200,-0.287920,0.978440,0.700000,-2.310000,-0.420000,22.30
392288,0.131272,-0.285480,0.977464,0.560000,-2.450000,-0.210000,22.32
392299,0.135176,-0.289384,0.977464,0.840000,-2.520000,-0.210000,22.32
392311,0.135176,-0.286944,0.979416,1.050000,-2.660000,-0.070000,22.35
392325,0.131760,-0.285480,0.973560,1.190000,-2.730000,-0.280000,22.28
392336,0.138592,-0.285480,0.972584,1.120000,-2.870000,-0.140000,22.28
392347,0.135664,-0.284016,0.973072,1.120000,-2.660000,-0.070000,22.27
392358,0.138592,-0.285968,0.971608,0.980000,-2.800000,0.140000,22.27
392369,0.138592,-0.288896,0.969656,1.050000,-2.660000,0.070000,22.33
392380,0.134688,-0.289384,0.968680,1.120000,-2.660000,0.140000,22.28
392391,0.133224,-0.289872,0.970632,1.050000,-2.520000,-0.070000,22.28
392403,0.134200,-0.288896,0.971608,0.980000,-2.380000,-0.140000,22.28
392414,0.135176,-0.289384,0.970144,0.840000,-2.380000,-0.210000,22.28
392425,0.135664,-0.289384,0.971608,0.770000,-2.380000,-0.350000,22.30
392436,0.136152,-0.287432,0.971120,0.770000,-2.100000,-0.280000,22.29
392447,0.134688,-0.285480,0.972584,0.560000,-2.100000,-0.280000,22.29
392458,0.133712,-0.290360,0.975024,0.490000,-2.170000,-0.350000,22.33
392469,0.129808,-0.289384,0.976488,0.840000,-2.170000,-0.280000,22.33
392480,0.130296,-0.284992,0.977952,0.840000,-2.240000,-0.210000,22.32
392491,0.133712,-0.284992,0.977464,0.700000,-2.240000,-0.280000,22.32
392502,0.138104,-0.287432,0.974048,0.630000,-2.310000,-0.420000,22.33
392513,0.135664,-0.285480,0.973560,0.770000,-2.450000,-0.420000,22.31
392524,0.138592,-0.285968,0.976488,0.910000,-2.520000,-0.350000,22.31
392535,0.138104,-0.285968,0.973072,0.700000,-2.520000,-0.210000,22.32
392546,0.133712,-0.285480,0.974536,0.980000,-2.520000,-0.280000,22.32
392557,0.132736,-0.286456,0.972096,1.190000,-2.520000,-0.070000,22.30
392568,0.134688,-0.283528,0.973072,1.050000,-2.590000,-0.140000,22.25
392580,0.134200,-0.284016,0.975024,0.630000,-2.520000,-0.140000,22.25
392592,0.134200,-0.289872,0.973560,0.560000,-2.660000,-0.210000,22.30
392603,0.132248,-0.289872,0.974048,0.630000,-2.520000,-0.350000,22.30
392614,0.133712,-0.294264,0.974536,1.050000,-2.520000,-0.420000,22.35
392625,0.137616,-0.295240,0.971608,1.470000,-2.520000,-0.560000,22.29
392636,0.140056,-0.287432,0.971608,1.470000,-2.310000,-0.490000,22.29
392647,0.139080,-0.284504,0.971608,1.400000,-2.380000,-0.420000,22.33
392658,0.137128,-0.284992,0.969656,0.980000,-2.310000,-0.350000,22.33
392670,0.133224,-0.285968,0.968680,0.560000,-2.170000,-0.350000,22.35
392682,0.129808,-0.290360,0.971608,0.490000,-2.240000,-0.420000,22.29
392693,0.129320,-0.288408,0.975024,0.770000,-2.030000,-0.210000,22.29
392704,0.130296,-0.287432,0.975024,0.840000,-2.310000,-0.350000,22.29
392715,0.132248,-0.288896,0.977952,1.050000,-2.100000,-0.210000,22.29
392726,0.134688,-0.287432,0.974536,1.190000,-2.240000,-0.350000,22.25
392737,0.138104,-0.284504,0.972584,0.980000,-2.240000,-0.280000,22.27
392748,0.134688,-0.283528,0.971608,0.630000,-2.170000,-0.210000,22.27
392759,0.135664,-0.286456,0.973560,0.350000,-2.380000,-0.210000,22.29
392770,0.136152,-0.286944,0.975512,0.350000,-2.310000,-0.140000,22.29
392781,0.134688,-0.287432,0.977952,0.490000,-2.520000,-0.210000,22.29
392792,0.130784,-0.286944,0.976000,0.840000,-2.450000,-0.280000,22.34
392803,0.133224,-0.286944,0.974536,0.910000,-2.450000,-0.350000,22.34
392814,0.131272,-0.283528,0.976000,0.840000,-2.590000,-0.210000,22.31
392825,0.135176,-0.284016,0.975024,0.770000,-2.730000,-0.070000,22.31
392836,0.135664,-0.285968,0.974536,0.700000,-2.800000,0.000000,22.34
392847,0.135176,-0.287432,0.976000,0.770000,-2.800000,0.070000,22.27
392858,0.133224,-0.292312,0.975512,1.190000,-2.870000,0.070000,22.27
392869,0.133224,-0.289872,0.976976,1.400000,-2.870000,-0.140000,22.31
392880,0.134200,-0.288896,0.974536,1.400000,-3.010000,-0.210000,22.31
392891,0.137616,-0.286456,0.970632,1.260000,-2.800000,-0.210000,22.35
392902,0.136640,-0.289872,0.968680,1.050000,-2.590000,-0.210000,22.35
392913,0.137128,-0.287432,0.966240,0.910000,-2.590000,-0.140000,22.27
392924,0.136152,-0.289872,0.969656,0.700000,-2.590000,-0.070000,22.32
392935,0.133712,-0.291824,0.970144,1.050000,-2.310000,-0.070000,22.32
392946,0.133224,-0.292800,0.970144,1.190000,-2.240000,-0.140000,22.33
392957,0.132736,-0.286456,0.969168,1.260000,-1.960000,-0.280000,22.33
392968,0.138104,-0.288896,0.967704,1.050000,-1.960000,-0.350000,22.29
392979,0.136152,-0.284016,0.967216,0.560000,-1.890000,-0.420000,22.29
392990,0.134200,-0.288408,0.971608,0.490000,-1.820000,-0.420000,22.29
393001,0.136640,-0.285968,0.973560,0.420000,-1.750000,-0.210000,22.31
393012,0.135176,-0.288896,0.974536,0.560000,-1.680000,-0.280000,22.31
393023,0.133712,-0.289384,0.975512,0.840000,-1.750000,-0.350000,22.32
393034,0.132248,-0.286944,0.975512,1.050000,-1.680000,-0.350000,22.32
393045,0.135176,-0.285480,0.974536,0.910000,-1.820000,-0.140000,22.32
393056,0.132736,-0.281576,0.974536,0.840000,-1.890000,-0.210000,22.29
393068,0.134200,-0.280600,0.975512,0.560000,-2.030000,0.000000,22.29
393079,0.133712,-0.282552,0.973560,0.490000,-2.240000,0.070000,22.35
393090,0.133712,-0.286456,0.976488,0.560000,-2.100000,0.000000,22.30
393101,0.131272,-0.288896,0.976976,0.630000,-2.100000,0.140000,22.30
393112,0.133224,-0.289384,0.976000,0.980000,-2.170000,0.070000,22.29
393122,0.133224,-0.288896,0.976488,0.910000,-2.240000,0.070000,22.29
393133,0.134200,-0.289872,0.975512,0.840000,-2.310000,0.070000,22.30
393145,0.134200,-0.291336,0.974048,0.840000,-2.310000,0.000000,22.30
393155,0.134200,-0.292312,0.975024,0.910000,-2.310000,0.070000,22.29
393166,0.132248,-0.295240,0.974536,1.120000,-2.450000,0.000000,22.27
393177,0.130784,-0.293776,0.975024,1.190000,-2.450000,-0.070000,22.27
393188,0.133712,-0.291824,0.973072,1.330000,-2.450000,-0.280000,22.30
393200,0.133224,-0.289872,0.974048,1.400000,-2.450000,-0.280000,22.30
393211,0.135176,-0.285968,0.973072,1.330000,-2.310000,-0.350000,22.29
393223,0.137128,-0.284504,0.973072,1.190000,-2.450000,-0.350000,22.30
393234,0.135176,-0.282064,0.974048,1.050000,-2.310000,-0.350000,22.30
393245,0.128832,-0.286456,0.973072,0.980000,-2.310000,-0.490000,22.29
393256,0.132248,-0.282552,0.976000,1.120000,-2.380000,-0.350000,22.29
393267,0.134688,-0.284016,0.974048,0.840000,-2.450000,-0.140000,22.27
393278,0.132248,-0.285968,0.973560,0.840000,-2.520000,-0.070000,22.32
393289,0.132736,-0.287920,0.971608,0.840000,-2.450000,0.210000,22.32
393300,0.132248,-0.288896,0.973560,1.050000,-2.520000,0.070000,22.31
393311,0.131760,-0.290360,0.974536,0.910000,-2.310000,0.000000,22.31
393322,0.131760,-0.287432,0.974048,0.700000,-2.380000,-0.140000,22.31
393333,0.133224,-0.289872,0.973560,0.700000,-2.310000,-0.280000,22.32
393348,0.134688,-0.288408,0.973560,0.770000,-2.380000,-0.070000,22.32
393359,0.132248,-0.291336,0.973072,0.910000,-2.380000,-0.210000,22.31
393370,0.132248,-0.290848,0.975024,1.260000,-2.310000,-0.140000,22.32
393381,0.132248,-0.288896,0.976000,1.260000,-2.450000,-0.210000,22.32
393392,0.130784,-0.289872,0.976976,1.190000,-2.450000,-0.280000,22.30
393403,0.130296,-0.289384,0.975024,1.050000,-2.520000,-0.210000,22.30
393414,0.129808,-0.290360,0.973560,0.980000,-2.450000,-0.490000,22.29
393426,0.133712,-0.290360,0.975512,1.120000,-2.590000,-0.490000,22.31
393437,0.133712,-0.289872,0.980392,1.120000,-2.590000,-0.560000,22.31
393448,0.133712,-0.289384,0.978440,1.120000,-2.590000,-0.770000,22.31
393459,0.133224,-0.289384,0.977464,1.330000,-2.800000,-0.770000,22.31
393470,0.133712,-0.287920,0.974536,1.680000,-2.800000,-0.630000,22.32
393481,0.132736,-0.282552,0.974536,1.610000,-2.870000,-0.560000,22.30
393492,0.132248,-0.282064,0.974048,1.680000,-2.870000,-0.350000,22.30
393503,0.127856,-0.282064,0.977464,1.400000,-2.940000,-0.350000,22.30
393514,0.128344,-0.284016,0.974048,0.980000,-2.940000,-0.280000,22.30
393525,0.128344,-0.284504,0.976000,0.630000,-3.010000,-0.420000,22.32
393536,0.131272,-0.290360,0.977952,0.420000,-3.220000,-0.560000,22.32
393547,0.135664,-0.294264,0.975512,0.910000,-3.150000,-0.630000,22.31
393558,0.137128,-0.289872,0.973072,1.190000,-3.080000,-0.700000,22.30
393569,0.136152,-0.287920,0.969656,1.330000,-3.150000,-0.560000,22.30
393581,0.136152,-0.285480,0.973560,1.050000,-3.080000,-0.560000,22.33
393592,0.133224,-0.283528,0.975512,0.840000,-3.150000,-0.490000,22.33
393603,0.132248,-0.285480,0.974536,0.560000,-3.290000,-0.560000,22.32
393614,0.130784,-0.284016,0.975512,0.630000,-3.290000,-0.700000,22.30
393625,0.133712,-0.285968,0.973560,0.700000,-3.290000,-0.770000,22.30
393636,0.136640,-0.287432,0.969656,0.840000,-3.150000,-0.700000,22.33
393647,0.139080,-0.284504,0.970632,0.980000,-3.080000,-0.350000,22.33
393658,0.138592,-0.283040,0.972584,0.700000,-3.010000,-0.280000,22.30
393669,0.135664,-0.283040,0.970144,0.770000,-2.940000,-0.140000,22.27
393680,0.134688,-0.284992,0.971608,0.910000,-2.870000,-0.210000,22.27
393691,0.136152,-0.285480,0.969656,1.120000,-2.730000,-0.140000,22.29
393702,0.137128,-0.285968,0.966728,1.330000,-2.590000,-0.210000,22.29
393713,0.140544,-0.283040,0.966728,1.330000,-2.660000,-0.140000,22.34
393724,0.141520,-0.283528,0.962824,1.260000,-2.380000,-0.140000,22.31
393735,0.139080,-0.279136,0.964288,0.840000,-2.170000,0.140000,22.31
393746,0.135664,-0.282552,0.968680,0.700000,-1.890000,0.140000,22.28
393757,0.135176,-0.285968,0.969168,0.420000,-1.890000,0.280000,22.28
393768,0.133224,-0.293288,0.970144,0.700000,-1.680000,0.140000,22.36
393779,0.134200,-0.287920,0.973560,1.050000,-1.540000,0.070000,22.36
393790,0.134200,-0.286944,0.972096,0.980000,-1.540000,-0.070000,22.30
393801,0.137128,-0.284992,0.974536,0.560000,-1.540000,-0.070000,22.31
393812,0.134200,-0.288896,0.974536,0.630000,-1.470000,-0.210000,22.31
393823,0.136152,-0.286944,0.978440,0.560000,-1.680000,-0.140000,22.32
393834,0.134200,-0.285968,0.979416,0.280000,-1.820000,-0.140000,22.32
393845,0.134688,-0.290360,0.979904,0.490000,-1.890000,-0.280000,22.32
393856,0.131760,-0.286944,0.978928,0.700000,-1.960000,-0.350000,22.26
393868,0.133224,-0.286456,0.975024,0.910000,-2.170000,-0.350000,22.26
393879,0.132736,-0.283528,0.977952,0.770000,-2.170000,-0.350000,22.34
393890,0.134200,-0.282064,0.977464,0.700000,-2.240000,-0.280000,22.34
393901,0.131272,-0.284992,0.977464,0.560000,-2.520000,-0.210000,22.32
393912,0.132248,-0.287432,0.979904,0.630000,-2.590000,-0.210000,22.32
393923,0.130296,-0.288408,0.978440,0.700000,-2.590000,-0.280000,22.32
393934,0.133712,-0.287920,0.976000,0.980000,-2.660000,-0.210000,22.32
393945,0.132248,-0.287432,0.974536,1.050000,-2.800000,-0.140000,22.32
393956,0.136152,-0.287432,0.974048,0.980000,-2.730000,-0.140000,22.29
393967,0.135176,-0.287432,0.972096,0.980000,-2.730000,-0.140000,22.31
393979,0.134688,-0.285480,0.969656,0.910000,-2.590000,-0.070000,22.31
393990,0.133712,-0.289384,0.972584,0.980000,-2.590000,-0.070000,22.34
394001,0.132248,-0.288896,0.971120,1.050000,-2.520000,0.000000,22.34
394012,0.134688,-0.288896,0.970632,1.120000,-2.520000,0.000000,22.34
394023,0.134200,-0.285968,0.969656,0.980000,-2.380000,0.000000,22.31
394034,0.136640,-0.287432,0.970632,0.840000,-2.170000,0.000000,22.31
394045,0.132736,-0.288408,0.971120,0.770000,-2.170000,-0.140000,22.28
394057,0.133712,-0.287920,0.971120,0.700000,-2.030000,-0.140000,22.28
394068,0.131760,-0.288896,0.975512,0.490000,-2.100000,-0.140000,22.32
394079,0.133712,-0.289872,0.976488,0.490000,-2.030000,-0.210000,22.31
394090,0.132736,-0.291824,0.975024,0.840000,-2.170000,-0.350000,22.31
394101,0.136152,-0.286456,0.974048,1.050000,-2.100000,-0.420000,22.32
394112,0.135664,-0.284992,0.972096,0.840000,-2.310000,-0.350000,22.32
394124,0.135176,-0.286456,0.975512,0.560000,-2.170000,-0.210000,22.32
394135,0.134200,-0.286456,0.975512,0.490000,-2.240000,-0.140000,22.32
394146,0.134200,-0.288408,0.976488,0.560000,-2.310000,-0.140000,22.32
394157,0.130784,-0.289872,0.976976,0.700000,-2.450000,-0.210000,22.33
394168,0.132248,-0.290848,0.976976,0.770000,-2.520000,-0.210000,22.33
394179,0.130296,-0.290848,0.976488,1.120000,-2.590000,-0.420000,22.32
394190,0.132248,-0.286944,0.974536,1.120000,-2.450000,-0.490000,22.27
394201,0.136640,-0.284504,0.973560,0.910000,-2.590000,-0.560000,22.27
394212,0.135664,-0.287432,0.973560,0.490000,-2.660000,-0.560000,22.31
394224,0.134688,-0.288408,0.974536,0.420000,-2.660000,-0.420000,22.31
394235,0.134688,-0.286944,0.974048,0.630000,-2.660000,-0.350000,22.31
394247,0.132248,-0.290360,0.973560,0.910000,-2.590000,-0.280000,22.29
394258,0.131272,-0.291824,0.971608,1.400000,-2.590000,-0.280000,22.29
394269,0.129808,-0.285968,0.974048,1.680000,-2.590000,-0.280000,22.25
394280,0.130784,-0.285480,0.972584,1.400000,-2.590000,-0.070000,22.25
394291,0.132248,-0.282064,0.973560,0.770000,-2.660000,-0.210000,22.39
394302,0.135176,-0.283040,0.973560,0.280000,-2.730000,-0.210000,22.32
394313,0.132736,-0.289872,0.972096,0.280000,-2.660000,-0.350000,22.32
394324,0.134688,-0.290848,0.974048,0.630000,-2.660000,-0.420000,22.32
394335,0.133712,-0.288408,0.972096,0.840000,-2.520000,-0.350000,22.32
394346,0.137128,-0.290848,0.975024,0.980000,-2.590000,-0.350000,22.30
394363,0.134200,-0.284504,0.971120,0.980000,-2.520000,-0.140000,22.31
394374,0.131760,-0.284504,0.974048,0.700000,-2.520000,-0.140000,22.31
394385,0.131760,-0.284992,0.973560,0.630000,-2.380000,-0.210000,22.34
394396,0.135664,-0.286944,0.973072,0.490000,-2.520000,-0.210000,22.30
394407,0.135664,-0.286456,0.975024,0.420000,-2.590000,-0.210000,22.30
394418,0.134200,-0.286944,0.974536,0.560000,-2.730000,-0.070000,22.33
394429,0.134200,-0.288408,0.972584,0.910000,-2.660000,-0.070000,22.33
394440,0.134200,-0.286944,0.971120,1.330000,-2.450000,-0.070000,22.32
394451,0.133224,-0.285480,0.972584,1.330000,-2.590000,0.000000,22.32
394462,0.134200,-0.284992,0.974536,1.120000,-2.590000,0.070000,22.34
394473,0.134688,-0.286456,0.973560,0.840000,-2.520000,0.070000,22.31
394484,0.134688,-0.291824,0.973560,0.770000,-2.590000,-0.070000,22.31
394495,0.133224,-0.294264,0.973560,0.980000,-2.590000,-0.070000,22.30
394506,0.135176,-0.292800,0.970144,1.120000,-2.520000,-0.070000,22.30
394517,0.134688,-0.290848,0.969168,1.260000,-2.380000,-0.140000,22.32
394528,0.134688,-0.288896,0.972096,1.120000,-2.030000,-0.140000,22.26
394539,0.133712,-0.287432,0.971608,0.910000,-2.170000,-0.210000,22.26
394550,0.133224,-0.290360,0.972584,0.560000,-2.170000,-0.210000,22.30
394561,0.135664,-0.290848,0.974536,0.560000,-2.100000,-0.350000,22.30
394573,0.135176,-0.291824,0.972584,0.700000,-1.890000,-0.490000,22.33
394584,0.135664,-0.290848,0.973560,1.120000,-2.030000,-0.490000,22.34
394596,0.135176,-0.286944,0.972096,1.050000,-1.960000,-0.490000,22.34
394607,0.134200,-0.284992,0.972584,1.050000,-1.890000,-0.420000,22.34
394618,0.132736,-0.284504,0.976000,0.700000,-2.030000,-0.350000,22.34
394629,0.131272,-0.284992,0.976000,0.420000,-2.170000,-0.350000,22.31
394640,0.130784,-0.286456,0.976488,0.350000,-2.240000,-0.140000,22.29
394651,0.129320,-0.287432,0.976488,0.560000,-2.240000,-0.210000,22.29
394662,0.132248,-0.289384,0.975512,0.560000,-2.240000,-0.210000,22.31
394673,0.133224,-0.289384,0.975512,0.700000,-2.310000,-0.210000,22.31
394684,0.132248,-0.284016,0.975024,0.770000,-2.380000,-0.070000,22.29
394695,0.134200,-0.285968,0.976488,0.420000,-2.660000,-0.070000,22.31
394706,0.132248,-0.290360,0.973072,0.630000,-2.730000,-0.140000,22.31
394717,0.131272,-0.291336,0.975024,1.120000,-2.730000,-0.140000,22.32
394728,0.133224,-0.289872,0.974536,1.330000,-2.660000,-0.210000,22.32
394739,0.133712,-0.286944,0.975024,1.190000,-2.660000,-0.140000,22.29
394750,0.134688,-0.288408,0.974048,1.120000,-2.520000,-0.140000,22.27
394761,0.133712,-0.288896,0.973560,1.050000,-2.590000,-0.140000,22.27
394772,0.135176,-0.287920,0.970632,0.910000,-2.450000,-0.140000,22.27
394783,0.133712,-0.287920,0.969168,0.980000,-2.450000,-0.140000,22.27
394794,0.133224,-0.289872,0.973560,1.050000,-2.310000,-0.210000,22.35
394805,0.134200,-0.287432,0.970632,1.050000,-2.310000,-0.140000,22.35
394816,0.132736,-0.283528,0.973072,0.770000,-2.310000,-0.140000,22.34
394827,0.131272,-0.284992,0.975512,0.630000,-2.240000,-0.070000,22.34
394838,0.132248,-0.289384,0.975512,0.630000,-2.240000,-0.210000,22.34
394849,0.130296,-0.289872,0.975024,0.700000,-2.240000,-0.070000,22.33
394861,0.131272,-0.289384,0.975024,0.910000,-2.380000,-0.210000,22.33
394872,0.134688,-0.288896,0.975024,0.980000,-2.380000,-0.280000,22.34
394883,0.136152,-0.287920,0.972584,0.980000,-2.450000,-0.280000,22.32
394894,0.134688,-0.288896,0.974536,0.840000,-2.380000,-0.140000,22.32
394905,0.132736,-0.287920,0.974536,0.770000,-2.450000,-0.350000,22.36
394916,0.131760,-0.288896,0.973560,0.630000,-2.520000,-0.140000,22.36
394927,0.130784,-0.288408,0.976000,0.560000,-2.520000,-0.210000,22.32
394938,0.130296,-0.290360,0.973072,0.560000,-2.520000,-0.140000,22.32
394949,0.128344,-0.291336,0.972584,0.840000,-2.520000,-0.140000,22.32
394960,0.131272,-0.294264,0.975512,1.120000,-2.520000,-0.280000,22.36
394971,0.133712,-0.290360,0.976000,1.190000,-2.450000,-0.420000,22.36
394982,0.133712,-0.287432,0.975024,1.120000,-2.590000,-0.490000,22.33
394993,0.138592,-0.286944,0.974536,1.050000,-2.590000,-0.490000,22.33
395004,0.136640,-0.286944,0.971120,1.050000,-2.590000,-0.420000,22.33
395015,0.133224,-0.288408,0.970144,1.190000,-2.380000,-0.350000,22.35
395026,0.130784,-0.287920,0.972096,0.980000,-2.380000,-0.210000,22.35
395037,0.130296,-0.287432,0.971608,1.050000,-2.310000,-0.210000,22.32
395048,0.129320,-0.288408,0.973072,1.120000,-2.240000,-0.140000,22.32
395059,0.131760,-0.289872,0.972584,1.120000,-2.310000,-0.140000,22.33
395071,0.134200,-0.288896,0.973072,0.910000,-2.240000,-0.210000,22.37
395082,0.134688,-0.288408,0.972096,0.910000,-2.310000,-0.280000,22.37
395093,0.133224,-0.286944,0.973560,0.630000,-2.310000,-0.350000,22.32
395104,0.134200,-0.288408,0.975024,0.700000,-2.380000,-0.210000,22.32
395115,0.134200,-0.287920,0.975024,0.840000,-2.240000,-0.210000,22.31
395126,0.132736,-0.287920,0.974536,0.840000,-2.380000,-0.210000,22.36
395137,0.131272,-0.284504,0.973560,0.700000,-2.380000,-0.280000,22.36
395148,0.129320,-0.285480,0.976000,0.630000,-2.520000,-0.280000,22.36
395159,0.132736,-0.287432,0.976488,0.630000,-2.520000,-0.210000,22.36
395170,0.133712,-0.289872,0.974048,0.700000,-2.520000,-0.420000,22.33
395181,0.134688,-0.287920,0.974048,0.910000,-2.730000,-0.280000,22.36
395192,0.135176,-0.285480,0.976976,1.050000,-2.590000,-0.280000,22.36
395203,0.131272,-0.285968,0.973560,0.910000,-2.660000,-0.140000,22.30
395214,0.132736,-0.287920,0.973560,0.840000,-2.730000,0.000000,22.30
395225,0.130296,-0.286944,0.973072,0.980000,-2.660000,-0.070000,22.31
395236,0.130296,-0.289872,0.972584,0.980000,-2.730000,-0.140000,22.32
395247,0.132736,-0.289384,0.972096,1.050000,-2.660000,-0.140000,22.32
395258,0.134200,-0.288896,0.971608,1.190000,-2.520000,-0.140000,22.30
395270,0.136640,-0.289384,0.971608,1.120000,-2.660000,-0.140000,22.30
395281,0.134688,-0.290360,0.971120,0.910000,-2.520000,-0.140000,22.31
395292,0.135176,-0.291824,0.970144,0.840000,-2.380000,-0.070000,22.32
395303,0.133224,-0.293288,0.970144,1.050000,-2.450000,-0.140000,22.32
395314,0.132736,-0.291824,0.972096,1.120000,-2.310000,-0.280000,22.34
395325,0.133224,-0.290360,0.973560,0.980000,-2.100000,-0.280000,22.34
395336,0.133224,-0.287920,0.974536,0.840000,-2.100000,-0.490000,22.32
395347,0.132736,-0.287432,0.975024,0.560000,-2.240000,-0.420000,22.32
395358,0.132736,-0.287920,0.976000,0.490000,-2.310000,-0.490000,22.32
395375,0.131272,-0.289872,0.977464,0.700000,-2.310000,-0.420000,22.28
395386,0.132736,-0.288896,0.976976,0.910000,-2.310000,-0.490000,22.30
395397,0.132248,-0.285480,0.975512,1.050000,-2.310000,-0.490000,22.30
395408,0.131272,-0.284992,0.974536,0.700000,-2.590000,-0.420000,22.31
395419,0.130784,-0.285480,0.975512,0.490000,-2.660000,-0.420000,22.31
395430,0.133224,-0.289872,0.973072,0.630000,-2.660000,-0.350000,22.29
395441,0.134200,-0.287432,0.973560,0.910000,-2.730000,-0.210000,22.30
395452,0.131272,-0.288408,0.973072,1.120000,-2.660000,-0.350000,22.30
395463,0.133712,-0.286456,0.970632,1.330000,-2.380000,-0.350000,22.31
395475,0.132736,-0.281576,0.973072,0.980000,-2.590000,-0.140000,22.31
395486,0.135176,-0.284992,0.973560,0.560000,-2.660000,-0.210000,22.36
395498,0.133712,-0.288896,0.976000,0.490000,-2.660000,-0.210000,22.28
395509,0.132248,-0.292800,0.973072,0.770000,-2.730000,-0.140000,22.28
395520,0.135664,-0.293776,0.971120,1.400000,-2.520000,-0.210000,22.31
395531,0.131760,-0.288896,0.968680,1.540000,-2.310000,-0.210000,22.31
395542,0.134200,-0.285480,0.969656,1.330000,-2.380000,-0.070000,22.32
395553,0.134200,-0.286944,0.972096,1.120000,-2.380000,-0.070000,22.31
395566,0.134688,-0.285968,0.974536,0.560000,-2.310000,-0.070000,22.31
395577,0.134200,-0.290360,0.971120,0.490000,-2.310000,-0.140000,22.38
395589,0.133712,-0.290360,0.971608,0.630000,-2.170000,-0.280000,22.38
395600,0.130784,-0.289872,0.971608,0.910000,-2.170000,-0.280000,22.32
395611,0.132248,-0.286456,0.975512,0.840000,-1.960000,-0.210000,22.33
395622,0.130784,-0.286456,0.975024,0.770000,-2.100000,-0.140000,22.33
395633,0.131272,-0.287920,0.976000,0.700000,-2.170000,-0.140000,22.34
395644,0.130784,-0.286456,0.976488,0.700000,-2.380000,-0.210000,22.34
395655,0.131760,-0.287432,0.977464,0.700000,-2.310000,-0.210000,22.35
395666,0.132736,-0.288408,0.976488,0.910000,-2.450000,-0.210000,22.34
395677,0.135176,-0.289872,0.975512,0.910000,-2.520000,-0.070000,22.34
395688,0.137128,-0.286944,0.977464,0.700000,-2.590000,-0.140000,22.32
395700,0.130296,-0.287432,0.974048,0.770000,-2.520000,-0.140000,22.32
395712,0.133712,-0.291824,0.976000,1.120000,-2.660000,-0.070000,22.33
395723,0.131272,-0.289384,0.976976,0.910000,-2.590000,-0.280000,22.38
395734,0.128832,-0.287920,0.975512,0.770000,-2.870000,-0.140000,22.38
395745,0.130296,-0.290848,0.974536,0.910000,-2.870000,-0.350000,22.33
395756,0.130784,-0.291824,0.973072,1.050000,-2.730000,-0.350000,22.33
395769,0.137616,-0.290848,0.973560,0.980000,-2.660000,-0.420000,22.37
395780,0.137616,-0.292312,0.971608,1.120000,-2.660000,-0.490000,22.35
395796,0.138104,-0.290360,0.971608,1.260000,-2.590000,-0.700000,22.35
395807,0.136152,-0.290360,0.965264,1.400000,-2.380000,-0.560000,22.35
395819,0.134200,-0.285480,0.966728,1.260000,-2.240000,-0.350000,22.32
395830,0.130784,-0.282064,0.966240,0.980000,-2.170000,-0.420000,22.32
395841,0.130784,-0.282552,0.971120,0.770000,-1.960000,-0.140000,22.37
395853,0.129808,-0.284016,0.975512,0.490000,-2.030000,-0.140000,22.32
395864,0.129320,-0.289872,0.974536,0.490000,-2.100000,-0.210000,22.32
395875,0.133712,-0.290360,0.976976,0.770000,-2.100000,-0.280000,22.35
395887,0.134200,-0.290360,0.976000,0.980000,-2.170000,-0.350000,22.35
395898,0.134688,-0.284504,0.975024,0.910000,-2.170000,-0.280000,22.35
395909,0.135176,-0.283040,0.976000,0.630000,-2.380000,-0.210000,22.38
395920,0.136152,-0.285480,0.975512,0.420000,-2.450000,0.000000,22.38
395931,0.130784,-0.287432,0.978928,0.280000,-2.590000,-0.140000,22.32
395942,0.129320,-0.289384,0.978928,0.420000,-2.800000,-0.070000,22.32
395953,0.128832,-0.293288,0.980880,0.840000,-3.010000,-0.280000,22.33
395964,0.128832,-0.289384,0.977464,1.190000,-3.010000,-0.490000,22.37
395975,0.132736,-0.289872,0.974048,1.260000,-3.150000,-0.350000,22.37
395986,0.134200,-0.287432,0.972584,1.050000,-3.290000,-0.210000,22.30
395997,0.134688,-0.285480,0.973072,0.910000,-3.150000,0.000000,22.30
396008,0.132736,-0.287920,0.975024,0.840000,-3.290000,0.070000,22.33
396019,0.131272,-0.292800,0.973560,1.050000,-3.290000,-0.140000,22.33
396030,0.132736,-0.294752,0.972096,1.470000,-3.220000,-0.210000,22.33
396041,0.135176,-0.290848,0.969656,1.540000,-3.150000,-0.420000,22.35
396052,0.138104,-0.288408,0.969656,1.330000,-3.010000,-0.420000,22.35
396063,0.138104,-0.286944,0.969168,0.910000,-2.800000,-0.280000,22.33
396074,0.136152,-0.287432,0.967216,0.840000,-2.660000,-0.280000,22.33
396086,0.136152,-0.288896,0.967704,0.700000,-2.520000,-0.210000,22.36
396096,0.133224,-0.291336,0.967704,0.770000,-2.310000,-0.280000,22.36
396107,0.131760,-0.290848,0.968192,1.190000,-2.240000,-0.350000,22.36
396118,0.132736,-0.286944,0.970144,1.330000,-1.960000,-0.350000,22.41
396129,0.133712,-0.282552,0.972584,0.840000,-2.170000,-0.490000,22.41
396140,0.135664,-0.283528,0.972096,0.700000,-2.030000,-0.420000,22.35
396151,0.136152,-0.285480,0.975024,0.420000,-1.960000,-0.490000,22.36
396163,0.133224,-0.285968,0.974536,0.280000,-1.960000,-0.350000,22.36
396174,0.134200,-0.289872,0.976488,0.490000,-1.960000,-0.350000,22.32
396185,0.132736,-0.288408,0.976488,0.840000,-2.030000,-0.280000,22.32
396196,0.133712,-0.287432,0.976488,0.980000,-2.100000,-0.210000,22.35
396207,0.132248,-0.284992,0.976488,0.840000,-2.240000,-0.140000,22.36
396218,0.131760,-0.284016,0.977464,0.700000,-2.380000,-0.070000,22.36
396229,0.133224,-0.288896,0.976488,0.770000,-2.450000,-0.070000,22.36
396240,0.132248,-0.287432,0.977464,0.840000,-2.590000,-0.210000,22.36
396251,0.131760,-0.290360,0.975512,1.050000,-2.660000,-0.070000,22.33
396262,0.133712,-0.290360,0.976000,1.120000,-2.730000,0.000000,22.37
396272,0.131272,-0.288896,0.972584,1.190000,-2.730000,0.000000,22.37
396283,0.132248,-0.289384,0.974048,1.260000,-2.730000,0.000000,22.33
396294,0.130784,-0.289872,0.973072,1.120000,-2.800000,-0.070000,22.33
396305,0.132736,-0.291824,0.972584,0.910000,-2.730000,-0.140000,22.39
396316,0.133224,-0.291824,0.972096,1.190000,-2.660000,-0.210000,22.39
396327,0.133224,-0.292800,0.972096,1.190000,-2.660000,-0.210000,22.36
396338,0.134688,-0.288896,0.972096,1.260000,-2.660000,-0.280000,22.37
396349,0.133224,-0.290848,0.969656,1.050000,-2.590000,-0.280000,22.37
396360,0.132736,-0.292312,0.970632,0.980000,-2.520000,-0.280000,22.36
396372,0.133224,-0.289872,0.969168,1.190000,-2.380000,-0.420000,22.36
396383,0.133224,-0.287920,0.970632,0.840000,-2.240000,-0.350000,22.35
396396,0.134200,-0.285968,0.972584,0.630000,-2.170000,-0.350000,22.32
396407,0.132248,-0.287920,0.971608,0.700000,-2.100000,-0.280000,22.32
396418,0.135664,-0.285480,0.974536,0.700000,-2.240000,-0.280000,22.35
396429,0.132736,-0.285480,0.972096,0.910000,-2.100000,-0.280000,22.35
396440,0.132248,-0.285480,0.975512,1.050000,-2.100000,-0.140000,22.29
396451,0.134688,-0.285480,0.975512,0.840000,-2.240000,-0.070000,22.30
396462,0.132736,-0.285480,0.976000,0.770000,-2.450000,0.070000,22.30
396473,0.131760,-0.286456,0.976488,0.700000,-2.520000,-0.070000,22.34
396484,0.136640,-0.290360,0.975024,0.980000,-2.590000,-0.070000,22.34
396496,0.135664,-0.288408,0.975024,1.260000,-2.450000,0.000000,22.32
396507,0.131272,-0.289872,0.976488,1.260000,-2.590000,-0.140000,22.34
396518,0.133712,-0.288408,0.973072,1.330000,-2.590000,0.000000,22.34
396529,0.133712,-0.287432,0.975024,1.050000,-2.450000,0.070000,22.37
396539,0.130296,-0.286944,0.974048,0.840000,-2.730000,-0.070000,22.37
396550,0.130784,-0.292312,0.973560,0.910000,-2.660000,-0.070000,22.34
396561,0.131272,-0.291336,0.974536,0.840000,-2.660000,-0.140000,22.30
396572,0.134688,-0.295240,0.974536,0.980000,-2.590000,-0.280000,22.30
396583,0.138104,-0.292312,0.974536,1.260000,-2.590000,-0.490000,22.37
396594,0.137128,-0.286944,0.974536,1.260000,-2.520000,-0.490000,22.37
396605,0.135664,-0.286456,0.974536,0.980000,-2.450000,-0.560000,22.39
396616,0.133224,-0.288408,0.970632,0.980000,-2.520000,-0.490000,22.36
396627,0.130296,-0.289384,0.971608,0.980000,-2.660000,-0.350000,22.36
396638,0.130296,-0.289872,0.973072,1.120000,-2.590000,-0.280000,22.36
396649,0.130784,-0.286944,0.973560,1.190000,-2.590000,-0.280000,22.36
396660,0.130784,-0.289384,0.973072,1.330000,-2.450000,-0.350000,22.38
396671,0.134200,-0.283040,0.972096,1.260000,-2.450000,-0.350000,22.38
396683,0.134688,-0.281576,0.973072,0.840000,-2.450000,-0.280000,22.34
396694,0.134688,-0.284016,0.973560,0.630000,-2.520000,-0.210000,22.37
396705,0.137128,-0.287432,0.972584,0.560000,-2.590000,-0.140000,22.37
396716,0.135176,-0.288896,0.974048,0.700000,-2.380000,-0.140000,22.37
396727,0.134688,-0.286944,0.975512,0.910000,-2.520000,-0.140000,22.37
396738,0.132736,-0.287432,0.975512,0.840000,-2.590000,-0.140000,22.35
396749,0.132736,-0.287920,0.975512,1.050000,-2.520000,-0.210000,22.30
396760,0.132736,-0.284992,0.975024,0.840000,-2.450000,-0.140000,22.30
396771,0.131272,-0.285480,0.974048,0.700000,-2.520000,-0.140000,22.33
396782,0.134688,-0.285480,0.974048,0.700000,-2.730000,0.000000,22.33
396793,0.133712,-0.290848,0.974048,0.980000,-2.590000,0.070000,22.36
396805,0.132248,-0.291336,0.975512,1.050000,-2.660000,0.000000,22.29
396816,0.132736,-0.288896,0.971608,1.120000,-2.660000,0.070000,22.29
396827,0.133712,-0.290360,0.972584,1.330000,-2.730000,-0.070000,22.32
396837,0.132248,-0.289384,0.971120,1.190000,-2.730000,-0.210000,22.32
396848,0.133712,-0.287432,0.969656,1.190000,-2.590000,-0.350000,22.34
396859,0.135664,-0.289384,0.969656,0.910000,-2.590000,-0.280000,22.35
396870,0.136640,-0.289384,0.970632,0.840000,-2.590000,-0.210000,22.35
396881,0.135664,-0.290360,0.973072,0.840000,-2.450000,-0.280000,22.36
396893,0.134688,-0.291824,0.971608,0.980000,-2.310000,-0.280000,22.36
396904,0.132248,-0.289384,0.975024,0.910000,-2.520000,-0.280000,22.37
396915,0.130784,-0.290360,0.974536,0.980000,-2.310000,-0.350000,22.37
396926,0.131760,-0.290848,0.972096,1.120000,-2.240000,-0.490000,22.37
396937,0.132248,-0.287920,0.975024,1.190000,-2.240000,-0.490000,22.34
396949,0.134200,-0.285480,0.978928,0.840000,-2.380000,-0.630000,22.34
396960,0.137128,-0.285968,0.977464,0.700000,-2.450000,-0.420000,22.36
396971,0.134200,-0.285480,0.975512,0.630000,-2.590000,-0.420000,22.36
396982,0.133712,-0.286944,0.975024,0.700000,-2.660000,-0.420000,22.36
396993,0.132248,-0.287920,0.972584,1.050000,-2.590000,-0.420000,22.34
397004,0.136640,-0.285968,0.973072,1.330000,-2.590000,-0.350000,22.34
397015,0.136640,-0.281088,0.973560,0.840000,-2.730000,-0.280000,22.36
397026,0.123952,-0.280112,0.976488,0.560000,-2.520000,-0.350000,22.36
397037,0.134688,-0.283040,0.976488,0.140000,-3.150000,-0.210000,22.35
397048,0.132248,-0.290848,0.974048,0.490000,-2.660000,-0.210000,22.39
397059,0.135176,-0.290848,0.972096,0.840000,-3.010000,-0.070000,22.39
397070,0.137128,-0.297680,0.968680,1.540000,-2.730000,0.070000,22.39
397081,0.134688,-0.290360,0.967216,2.030000,-2.590000,0.140000,22.39
397092,0.136152,-0.284504,0.966240,1.680000,-2.310000,0.070000,22.39
397103,0.135664,-0.287920,0.969656,1.260000,-2.170000,0.000000,22.33
397114,0.137128,-0.285480,0.965752,0.910000,-2.170000,-0.070000,22.33
397125,0.138592,-0.288896,0.970144,0.420000,-1.960000,-0.140000,22.36
397136,0.135176,-0.290360,0.970632,0.350000,-1.820000,-0.420000,22.36
397147,0.136152,-0.290360,0.968192,0.350000,-1.470000,-0.420000,22.38
397158,0.135176,-0.290848,0.971120,0.630000,-1.680000,-0.420000,22.36
397169,0.132736,-0.288896,0.972584,0.700000,-1.470000,-0.350000,22.36
397179,0.132736,-0.285480,0.976976,0.700000,-1.540000,-0.210000,22.35
397190,0.132736,-0.287432,0.976976,0.630000,-1.680000,-0.140000,22.35
397201,0.133712,-0.290848,0.978440,0.770000,-1.750000,-0.140000,22.35
397212,0.134200,-0.285968,0.975512,1.120000,-1.820000,-0.140000,22.35
397223,0.134200,-0.284504,0.976488,1.050000,-2.030000,-0.140000,22.36
397234,0.131760,-0.282064,0.977464,0.770000,-2.170000,0.000000,22.29
397245,0.132248,-0.284504,0.976976,0.490000,-2.170000,-0.070000,22.29
397256,0.133712,-0.285968,0.977952,0.350000,-2.310000,-0.140000,22.37
397267,0.135664,-0.287920,0.979416,0.280000,-2.380000,-0.140000,22.37
397278,0.134200,-0.290360,0.977952,0.490000,-2.450000,-0.070000,22.37
397289,0.131760,-0.290360,0.975512,0.910000,-2.380000,-0.140000,22.33
397299,0.131272,-0.287920,0.975024,1.190000,-2.520000,-0.070000,22.33
397310,0.130296,-0.287432,0.975024,1.260000,-2.660000,0.140000,22.34
397321,0.130784,-0.284016,0.973560,0.910000,-2.730000,0.070000,22.34
397332,0.132248,-0.287432,0.973072,0.630000,-2.660000,0.140000,22.34
397343,0.131760,-0.291336,0.969168,0.700000,-2.730000,0.140000,22.34
397354,0.137128,-0.293288,0.970144,0.700000,-2.590000,0.000000,22.37
397365,0.136640,-0.293776,0.971120,0.770000,-2.450000,-0.070000,22.37
397376,0.134200,-0.294264,0.972096,0.910000,-2.380000,-0.280000,22.37
397387,0.137128,-0.293776,0.974536,0.980000,-2.240000,-0.420000,22.41
397399,0.133224,-0.293288,0.971608,1.050000,-2.310000,-0.420000,22.41
397413,0.130296,-0.290848,0.969656,1.120000,-2.170000,-0.420000,22.30
