timestamp_ms,ax,ay,az,gx,gy,gz,tempC
2557157,0.326960,0.026352,0.973072,-0.700000,-4.060000,7.840000,21.64
2557168,0.330376,0.013664,0.975024,-0.770000,-4.200000,7.980000,21.64
2557179,0.336232,0.001464,0.972584,-0.560000,-4.130000,8.050000,21.61
2557190,0.341600,-0.011224,0.969168,-0.280000,-4.060000,7.700000,21.61
2557201,0.351848,-0.023912,0.963312,0.700000,-4.130000,7.490000,21.66
2557212,0.364048,-0.030256,0.965752,1.050000,-4.550000,7.000000,21.66
2557223,0.373808,-0.039528,0.962336,1.890000,-4.550000,6.300000,21.63
2557234,0.379176,-0.037576,0.962824,1.400000,-4.690000,6.090000,21.62
2557245,0.381616,-0.034648,0.962824,0.840000,-5.320000,5.040000,21.62
2557256,0.389424,-0.039040,0.960384,-0.070000,-5.530000,4.340000,21.66
2557267,0.390888,-0.041968,0.951600,-1.260000,-5.810000,3.290000,21.66
2557278,0.390888,-0.046360,0.947696,-1.680000,-5.880000,2.380000,21.67
2557289,0.389912,-0.049776,0.941352,-1.400000,-6.020000,1.120000,21.66
2557300,0.393328,-0.045384,0.941352,-0.980000,-6.090000,0.280000,21.66
2557311,0.389424,-0.035136,0.942328,-1.540000,-6.160000,-0.350000,21.64
2557322,0.391376,-0.045384,0.939888,-1.400000,-6.160000,-1.190000,21.64
2557333,0.388448,-0.040992,0.936960,-1.330000,-6.160000,-1.890000,21.67
2557344,0.393328,-0.040016,0.934032,-0.420000,-6.020000,-2.940000,21.66
2557356,0.394792,-0.032696,0.935496,0.630000,-5.390000,-4.060000,21.66
2557367,0.393328,-0.018056,0.931104,1.330000,-4.830000,-4.690000,21.67
2557378,0.387960,-0.000488,0.925248,0.980000,-4.410000,-5.460000,21.67
2557389,0.390400,0.000488,0.923784,0.630000,-4.060000,-5.880000,21.66
2557400,0.390888,0.009760,0.923784,0.210000,-3.500000,-6.160000,21.63
2557411,0.387960,0.011224,0.929152,-0.210000,-3.010000,-6.650000,21.63
2557422,0.379664,0.022448,0.934032,-17.920000,-2.660000,-6.580000,21.65
2557433,0.373320,0.029280,0.935496,-0.700000,-2.450000,-6.230000,21.65
2557445,0.372344,0.029280,0.933544,-0.840000,-2.240000,-5.880000,21.65
2557455,0.370392,0.034160,0.935984,-1.470000,-1.680000,-5.320000,21.64
2557467,0.365024,0.035136,0.941352,-2.170000,-1.540000,-4.690000,21.64
2557478,0.366976,0.026840,0.939888,-1.750000,-1.680000,-4.060000,21.66
2557488,0.366976,0.024888,0.943792,-1.400000,-1.610000,-3.150000,21.66
2557499,0.373320,0.025864,0.950136,-0.700000,-1.890000,-2.450000,21.64
2557510,0.381128,0.022448,0.960384,-0.350000,-1.610000,-1.400000,21.64
2557521,0.378688,0.013176,0.958920,1.190000,-1.960000,-0.910000,21.61
2557532,0.385032,0.009272,0.957944,2.450000,-2.170000,-0.140000,21.64
2557543,0.394304,0.007808,0.956968,3.360000,-2.240000,0.350000,21.64
2557554,0.395768,0.008784,0.957456,3.780000,-2.170000,0.490000,21.65
2557564,0.391864,0.013664,0.954040,3.500000,-2.940000,0.980000,21.65
2557575,0.392840,0.017568,0.949160,2.240000,-3.710000,1.400000,21.63
2557586,0.403088,0.019032,0.951112,0.490000,-3.850000,1.610000,21.63
2557597,0.403088,0.006832,0.955992,0.210000,-4.200000,0.980000,21.63
2557608,0.397232,-0.002928,0.962336,0.280000,-4.550000,0.210000,21.66
2557618,0.390400,-0.013176,0.965752,0.840000,-5.040000,-0.280000,21.66
2557630,0.381128,-0.008784,0.958920,1.260000,-5.390000,-0.700000,21.63
2557641,0.381128,-0.002928,0.955992,0.770000,-5.600000,-0.770000,21.63
2557652,0.377224,0.007320,0.950624,-0.350000,-5.530000,-1.050000,21.63
2557663,0.372832,0.009272,0.947696,-0.560000,-5.250000,-1.120000,21.63
2557674,0.374296,0.010736,0.944280,-0.560000,-5.390000,-1.400000,21.63
2557685,0.384544,0.004880,0.932080,-0.210000,-5.040000,-1.820000,21.68
2557696,0.393816,0.001952,0.926712,0.700000,-4.200000,-1.890000,21.68
2557707,0.393328,0.006832,0.926224,1.680000,-3.430000,-2.450000,21.66
2557718,0.387960,0.013176,0.918904,2.590000,-3.080000,-2.590000,21.62
2557729,0.393328,0.022448,0.906216,3.010000,-2.590000,-2.310000,21.62
2557740,0.400648,0.025864,0.905728,2.240000,-1.960000,-2.100000,21.65
2557751,0.406504,0.034160,0.905240,0.980000,-1.120000,-1.890000,21.65
2557762,0.411872,0.026352,0.908656,0.490000,-0.490000,-1.680000,21.63
2557773,0.411872,0.025376,0.914024,0.560000,-0.070000,-1.400000,21.60
2557784,0.405528,0.025376,0.914512,0.350000,0.280000,-1.190000,21.60
2557795,0.403088,0.020984,0.916952,-0.210000,0.700000,-0.910000,21.64
2557806,0.399184,0.011712,0.916952,-0.630000,1.330000,-1.050000,21.64
2557818,0.392840,0.004392,0.922320,0.630000,2.100000,-1.120000,21.66
2557828,0.383080,0.010248,0.928664,1.680000,2.520000,-0.840000,21.66
2557839,0.380640,0.021472,0.948184,0.980000,2.590000,-0.350000,21.65
2557850,0.373320,0.021472,0.962336,-0.070000,2.520000,-17.920000,21.63
2557861,0.371368,0.012200,0.970144,0.210000,2.520000,0.000000,21.63
2557872,0.369416,0.009760,0.973560,0.840000,2.240000,-0.140000,21.68
2557882,0.366976,0.004880,0.972096,0.980000,1.680000,-0.210000,21.68
2557893,0.372344,-0.007320,0.972584,1.470000,1.190000,-0.630000,21.67
2557904,0.374784,-0.007808,0.973072,2.380000,0.980000,-0.910000,21.68
2557915,0.373808,0.000488,0.972584,2.730000,0.630000,-0.980000,21.68
2557926,0.370392,0.010248,0.971120,2.380000,0.070000,-1.330000,21.66
2557937,0.373320,0.015128,0.970632,1.540000,-0.420000,-1.750000,21.66
2557947,0.372832,0.007808,0.965264,1.680000,-0.700000,-2.100000,21.68
2557959,0.379176,0.008296,0.960872,1.820000,-0.980000,-2.100000,21.68
2557969,0.381128,0.017080,0.961848,1.820000,-1.260000,-1.750000,21.69
2557980,0.380152,0.021960,0.962824,1.540000,-1.540000,-1.680000,21.61
2557991,0.377224,0.019032,0.953064,1.820000,-1.680000,-1.330000,21.61
2558002,0.371856,0.021960,0.943304,1.610000,-1.680000,-0.910000,21.67
2558013,0.366000,0.028304,0.941352,1.330000,-1.820000,-0.910000,21.67
2558024,0.370392,0.024400,0.938424,1.050000,-1.750000,-0.910000,21.65
2558035,0.375272,0.017568,0.943792,2.170000,-1.330000,-0.980000,21.60
2558046,0.376736,0.023424,0.948672,2.940000,-0.910000,-0.840000,21.60
2558057,0.374296,0.036112,0.950136,2.240000,-0.910000,-0.630000,21.66
2558067,0.376248,0.025376,0.948184,1.050000,-0.840000,-0.560000,21.66
2558079,0.373808,0.014152,0.947208,1.120000,-0.630000,-0.490000,21.62
2558089,0.372344,0.009272,0.939400,1.540000,-0.700000,-0.420000,21.62
2558100,0.373808,0.010736,0.945744,1.820000,-0.560000,-0.210000,21.62
2558115,0.373320,0.007808,0.946720,2.450000,-0.420000,-0.630000,21.62
2558126,0.375272,0.011712,0.951112,2.520000,-0.210000,-0.490000,21.62
2558137,0.377224,0.015616,0.954528,1.890000,-0.700000,-0.560000,21.68
2558147,0.374784,0.013176,0.963800,1.540000,-0.560000,-0.630000,21.65
2558158,0.374296,0.020984,0.965264,0.560000,-0.910000,-0.420000,21.65
2558169,0.366976,0.014640,0.960872,1.120000,-0.980000,-0.560000,21.68
2558180,0.366488,0.014640,0.959408,1.260000,-1.190000,-0.560000,21.68
2558191,0.364536,0.016592,0.960872,1.610000,-1.470000,-0.630000,21.68
2558202,0.364048,0.019520,0.966240,1.190000,-1.960000,-0.560000,21.66
2558213,0.365512,0.019520,0.969656,0.560000,-2.030000,-0.280000,21.66
2558224,0.366000,0.014640,0.970144,0.560000,-2.310000,-0.210000,21.64
2558235,0.367464,0.013664,0.967704,0.770000,-2.380000,-0.210000,21.64
2558246,0.368440,0.018056,0.963312,1.190000,-2.520000,-0.280000,21.64
2558257,0.369416,0.018056,0.958432,1.400000,-2.660000,-0.490000,21.64
2558268,0.368440,0.019520,0.957944,1.400000,-2.870000,-0.560000,21.64
2558279,0.367464,0.021472,0.954528,1.330000,-3.080000,-0.630000,21.66
2558290,0.370880,0.029768,0.956968,0.840000,-3.360000,-0.770000,21.66
2558301,0.370880,0.026840,0.955016,0.490000,-3.290000,-0.630000,21.63
2558312,0.373320,0.024888,0.951600,0.210000,-3.360000,-0.350000,21.63
2558323,0.375272,0.018056,0.949160,0.910000,-3.220000,-0.350000,21.64
2558334,0.374296,0.017080,0.942328,1.260000,-3.010000,0.000000,21.61
2558345,0.371856,0.021472,0.943304,1.120000,-3.010000,0.140000,21.61
2558356,0.373808,0.013176,0.944280,1.190000,-2.940000,0.280000,21.66
2558367,0.372832,0.013664,0.949160,1.610000,-2.730000,0.280000,21.66
2558377,0.370880,0.017568,0.947208,1.750000,-2.660000,0.350000,21.65
2558388,0.370880,0.017080,0.944280,1.540000,-2.450000,0.280000,21.65
2558399,0.374296,0.016592,0.943304,1.190000,-2.310000,0.280000,21.64
2558410,0.373808,0.013664,0.943304,0.840000,-2.240000,0.000000,21.60
2558421,0.377712,0.008296,0.945744,1.400000,-1.820000,0.070000,21.60
2558432,0.375272,0.016592,0.947696,1.400000,-1.890000,0.000000,21.64
2558443,0.376248,0.013664,0.947696,0.560000,-1.750000,-0.210000,21.64
2558454,0.374784,0.008296,0.946232,0.630000,-1.750000,-0.350000,21.64
2558465,0.371856,0.010248,0.947208,1.050000,-1.750000,-0.560000,21.68
2558476,0.373808,0.014152,0.951112,1.190000,-1.890000,-0.490000,21.68
2558487,0.369904,0.020496,0.956480,0.630000,-1.960000,-0.420000,21.65
2558498,0.368928,0.016592,0.958432,0.630000,-2.030000,-0.420000,21.65
2558509,0.365512,0.009272,0.962824,0.910000,-2.100000,-0.490000,21.67
2558520,0.366488,0.008784,0.958432,1.820000,-2.100000,-0.700000,21.62
2558530,0.366488,0.009272,0.956968,2.800000,-2.100000,-0.840000,21.62
2558541,0.368440,0.022448,0.955504,2.800000,-2.170000,-0.770000,21.68
2558552,0.370392,0.020008,0.955992,2.100000,-2.240000,-0.770000,21.68
2558564,0.369904,0.019032,0.962824,1.470000,-2.520000,-0.840000,21.61
2558575,0.372344,0.020984,0.962336,1.050000,-2.870000,-0.840000,21.61
2558586,0.371856,0.015128,0.958920,1.120000,-2.870000,-0.910000,21.64
2558596,0.370880,0.011712,0.955016,1.610000,-2.940000,-1.050000,21.63
2558607,0.370392,0.019520,0.949648,1.890000,-3.010000,-1.260000,21.63
2558618,0.371368,0.020496,0.946232,1.890000,-2.730000,-1.120000,21.63
2558629,0.369904,0.026352,0.953552,1.260000,-2.940000,-0.980000,21.63
2558640,0.370392,0.031720,0.958920,0.280000,-2.940000,-0.560000,21.66
2558651,0.368440,0.028304,0.957944,-0.140000,-3.220000,-0.350000,21.63
2558662,0.371856,0.024400,0.955992,-0.280000,-3.080000,-0.140000,21.63
2558674,0.371368,0.023912,0.951112,-0.140000,-3.010000,0.000000,21.62
2558684,0.368440,0.019032,0.947208,0.420000,-2.940000,0.070000,21.62
2558695,0.368928,0.021472,0.947208,0.770000,-2.940000,0.070000,21.65
2558707,0.368928,0.024888,0.951112,0.700000,-2.940000,0.210000,21.62
2558718,0.369416,0.022448,0.952088,0.700000,-2.940000,0.140000,21.62
2558728,0.371368,0.024400,0.948184,0.560000,-2.870000,0.350000,21.70
2558739,0.372832,0.020984,0.945256,0.490000,-2.730000,0.350000,21.70
2558750,0.373808,0.017568,0.942816,0.280000,-2.660000,0.210000,21.63
2558761,0.379176,0.012688,0.940864,0.560000,-2.450000,-0.070000,21.63
2558772,0.374784,0.014152,0.941840,1.050000,-2.310000,-0.210000,21.69
2558782,0.377712,0.012688,0.942328,1.330000,-2.030000,-0.490000,21.66
2558793,0.376248,0.020984,0.944280,1.190000,-1.890000,-0.630000,21.66
2558804,0.374296,0.023424,0.944280,0.490000,-1.820000,-0.770000,21.66
2558816,0.374784,0.020496,0.947696,-0.070000,-1.680000,-0.770000,21.66
2558827,0.372832,0.018544,0.953064,-0.560000,-1.750000,-0.700000,21.67
2558837,0.372832,0.019032,0.960384,-1.050000,-1.960000,-0.700000,21.64
2558849,0.367952,0.019520,0.967704,-1.610000,-2.030000,-0.560000,21.64
2558860,0.366976,0.013176,0.968192,-1.400000,-2.240000,-0.560000,21.65
2558871,0.365512,0.010736,0.966240,-0.980000,-2.590000,-0.420000,21.65
2558882,0.365024,0.017080,0.962824,-0.910000,-2.800000,-0.280000,21.62
2558893,0.368440,0.008784,0.960872,0.000000,-2.940000,-0.140000,21.64
2558904,0.368440,0.016104,0.965264,0.770000,-3.010000,-0.070000,21.64
2558915,0.369904,0.019032,0.964776,0.770000,-3.430000,-0.140000,21.69
2558926,0.371368,0.023424,0.965752,0.350000,-3.710000,0.000000,21.69
2558937,0.366000,0.018056,0.965752,-0.070000,-4.060000,-0.070000,21.62
2558949,0.367952,0.016592,0.958432,0.140000,-4.270000,0.070000,21.68
2558960,0.367952,0.020496,0.953064,-0.210000,-4.620000,-0.070000,21.68
2558971,0.370880,0.012688,0.955016,-0.560000,-4.550000,-0.070000,21.66
2558982,0.376248,0.013664,0.954528,-0.350000,-4.550000,-0.210000,21.66
2558993,0.372344,0.015128,0.948672,-0.210000,-4.620000,-0.280000,21.71
2559004,0.373320,0.013664,0.946720,-0.140000,-4.270000,-0.280000,21.62
2559016,0.373320,0.013664,0.942816,-0.140000,-4.200000,-0.420000,21.62
2559027,0.376248,0.011224,0.944280,0.210000,-4.060000,-0.350000,21.69
2559038,0.380152,0.010248,0.945256,0.630000,-3.990000,-0.420000,21.69
2559049,0.379664,0.013664,0.948184,0.910000,-3.780000,-0.350000,21.66
2559060,0.382592,0.016592,0.943792,0.700000,-3.640000,-0.280000,21.66
2559071,0.381128,0.017568,0.939400,0.490000,-3.290000,-0.210000,21.66
2559082,0.377712,0.011224,0.933056,0.560000,-3.080000,-0.140000,21.66
2559093,0.377712,0.014152,0.938424,0.420000,-3.010000,-17.920000,21.66
2559105,0.381616,0.014640,0.942816,0.280000,-2.800000,-0.140000,21.70
2559116,0.378200,0.015128,0.947208,0.280000,-2.520000,-0.140000,21.70
2559132,0.373808,0.014152,0.949160,0.070000,-2.590000,-0.070000,21.65
2559144,0.372832,0.010736,0.945744,0.350000,-2.310000,-0.140000,21.66
2559155,0.372344,0.009272,0.942328,0.700000,-2.240000,0.070000,21.66
2559165,0.376736,0.016104,0.949160,0.700000,-2.380000,0.000000,21.66
2559176,0.374784,0.016104,0.949160,0.560000,-2.240000,0.000000,21.65
2559187,0.375760,0.015128,0.951112,0.490000,-2.310000,-0.070000,21.65
2559198,0.374296,0.012688,0.950136,0.630000,-2.240000,-0.070000,21.65
2559209,0.373320,0.011224,0.952088,0.700000,-2.380000,-0.140000,21.65
2559220,0.373808,0.014640,0.954528,0.980000,-2.450000,-0.210000,21.65
2559231,0.378200,0.012688,0.950624,1.330000,-2.520000,-0.140000,21.61
2559242,0.376736,0.016104,0.950136,1.470000,-2.380000,-0.140000,21.61
2559253,0.380152,0.014640,0.945744,1.260000,-2.240000,-0.070000,21.64
2559264,0.377712,0.016104,0.943792,1.190000,-2.380000,0.000000,21.64
2559275,0.376248,0.016592,0.950136,0.770000,-2.240000,-0.070000,21.61
2559286,0.375272,0.016592,0.955016,0.210000,-2.310000,-0.140000,21.63
2559297,0.375760,0.010248,0.956480,0.140000,-2.450000,0.140000,21.63
2559308,0.372832,0.011224,0.955504,-0.070000,-2.520000,0.000000,21.67
2559319,0.372344,0.012200,0.951600,0.350000,-2.450000,-0.140000,21.67
2559329,0.377712,0.009272,0.947208,0.700000,-2.450000,0.070000,21.62
2559340,0.377224,0.012688,0.948672,0.980000,-2.310000,0.000000,21.66
2559351,0.373808,0.010248,0.951600,1.050000,-2.310000,0.000000,21.66
2559362,0.374296,0.010736,0.950136,1.120000,-2.310000,0.210000,21.66
2559373,0.372344,0.016104,0.950136,0.980000,-2.450000,0.280000,21.66
2559384,0.373808,0.017080,0.951112,0.840000,-2.520000,0.350000,21.63
2559395,0.376736,0.014640,0.945744,0.630000,-2.520000,0.210000,21.63
2559405,0.378200,0.013664,0.945744,0.350000,-2.380000,0.140000,21.64
2559417,0.380152,0.012200,0.950136,0.420000,-2.450000,-0.140000,21.61
2559428,0.375760,0.008784,0.950624,0.490000,-2.310000,-0.140000,21.61
2559439,0.372344,0.008296,0.951112,0.840000,-2.310000,-0.210000,21.64
2559451,0.374296,0.010248,0.951112,1.120000,-2.450000,-0.280000,21.64
2559462,0.378200,0.015128,0.952576,0.840000,-2.450000,-0.210000,21.65
2559472,0.376736,0.013176,0.955504,0.420000,-2.520000,-0.280000,21.63
2559484,0.375272,0.015616,0.960872,0.350000,-2.730000,0.000000,21.63
2559495,0.375272,0.017080,0.960384,0.140000,-3.010000,-0.140000,21.67
2559506,0.371856,0.007808,0.958432,0.420000,-3.080000,-0.140000,21.67
2559517,0.373808,0.007320,0.951112,0.910000,-3.010000,-0.140000,21.61
2559527,0.373808,0.012200,0.948184,1.190000,-3.150000,-0.070000,21.63
2559539,0.376736,0.013664,0.952088,0.560000,-3.150000,0.000000,21.63
2559550,0.374784,0.005856,0.951112,0.910000,-3.220000,0.000000,21.65
2559560,0.374296,0.012688,0.948184,1.050000,-3.290000,0.210000,21.65
2559571,0.375760,0.012200,0.947208,1.120000,-3.150000,0.280000,21.64
2559583,0.376248,0.011712,0.946232,1.050000,-3.150000,0.140000,21.64
2559593,0.379176,0.017568,0.945744,0.840000,-3.150000,0.210000,21.61
2559604,0.377712,0.014152,0.948184,0.420000,-3.080000,0.140000,21.64
2559615,0.376736,0.013664,0.949160,0.280000,-3.080000,0.070000,21.64
2559626,0.376248,0.006832,0.949648,0.630000,-3.010000,0.140000,21.69
2559637,0.373808,0.008784,0.947208,0.630000,-3.010000,0.140000,21.69
2559647,0.374784,0.009272,0.948184,0.980000,-2.940000,0.070000,21.64
2559658,0.377712,0.012200,0.944768,1.050000,-2.940000,0.070000,21.63
2559669,0.385032,0.011712,0.943304,1.260000,-2.870000,0.000000,21.63
2559680,0.382592,0.010736,0.948672,1.540000,-2.730000,0.000000,21.66
2559691,0.382592,0.012200,0.951600,1.190000,-2.800000,-0.070000,21.66
2559702,0.374296,0.010736,0.948672,0.840000,-2.590000,0.070000,21.69
2559712,0.372832,0.009272,0.945256,0.840000,-2.800000,0.070000,21.69
2559723,0.374784,0.010248,0.945744,0.910000,-2.660000,0.140000,21.70
2559734,0.379176,0.007808,0.946232,0.980000,-2.730000,0.140000,21.63
2559745,0.382104,0.003416,0.945744,1.540000,-2.590000,0.070000,21.63
2559756,0.382592,0.007808,0.946232,1.890000,-2.450000,0.070000,21.68
2559767,0.379176,0.016104,0.950136,1.470000,-2.310000,0.070000,21.68
2559777,0.379176,0.010736,0.943792,1.260000,-2.240000,0.000000,21.68
2559788,0.376248,0.012200,0.944280,0.840000,-2.310000,0.070000,21.61
2559799,0.376736,0.010736,0.947696,0.630000,-2.450000,0.000000,21.61
2559810,0.380640,0.009760,0.952576,0.420000,-2.450000,0.070000,21.61
2559821,0.378688,0.005368,0.955992,0.700000,-2.520000,0.000000,21.61
2559832,0.375760,0.006832,0.958920,0.910000,-2.450000,-0.140000,21.66
2559843,0.376248,0.005856,0.955504,1.610000,-2.450000,-0.350000,21.66
2559853,0.375760,0.006832,0.953552,2.310000,-2.520000,-0.350000,21.66
2559864,0.374296,0.019032,0.953064,2.030000,-2.590000,-0.350000,21.66
2559875,0.376248,0.021472,0.952576,1.400000,-2.800000,-0.490000,21.66
2559886,0.376736,0.019032,0.951600,0.910000,-2.800000,-0.420000,21.65
2559897,0.378200,0.017080,0.953552,0.630000,-2.940000,-0.490000,21.65
2559908,0.374784,0.011224,0.954040,0.700000,-3.010000,-0.560000,21.69
2559919,0.375760,0.007808,0.955016,1.330000,-3.010000,-0.350000,21.65
2559930,0.375272,0.010248,0.952576,1.750000,-3.150000,-0.350000,21.65
2559941,0.379664,0.017568,0.952576,1.890000,-3.080000,-0.140000,21.63
2559952,0.380640,0.014152,0.944280,1.890000,-3.080000,-0.280000,21.63
2559963,0.381128,0.018544,0.945256,2.170000,-2.870000,-0.140000,21.67
2559973,0.378688,0.022936,0.945256,1.540000,-3.080000,0.000000,21.67
2559984,0.379664,0.020984,0.950136,0.560000,-3.010000,0.000000,21.66
2559995,0.379664,0.015128,0.951600,0.070000,-3.010000,0.210000,21.62
2560006,0.375272,0.015128,0.949160,0.070000,-3.150000,0.490000,21.62
2560017,0.380152,0.010736,0.950136,0.280000,-3.010000,0.420000,21.64
2560028,0.381128,0.008296,0.950136,0.910000,-3.220000,0.420000,21.64
2560039,0.381616,0.012200,0.951112,1.400000,-3.080000,0.420000,21.64
2560050,0.380640,0.012688,0.946232,1.750000,-3.080000,0.420000,21.61
2560061,0.381616,0.010248,0.942816,1.610000,-2.870000,0.420000,21.61
2560072,0.376736,0.011712,0.940864,1.750000,-2.870000,0.630000,21.66
2560083,0.377224,0.014640,0.948672,1.470000,-3.010000,0.560000,21.66
2560094,0.382104,0.015128,0.947696,1.260000,-2.940000,0.560000,21.67
2560105,0.382104,0.011712,0.947696,1.050000,-3.080000,0.420000,21.67
2560116,0.381128,0.011224,0.945256,0.910000,-2.800000,0.350000,21.61
2560127,0.374784,0.009272,0.941840,0.910000,-2.590000,0.140000,21.61
2560142,0.381616,0.009272,0.941352,0.490000,-2.520000,0.140000,21.61
2560153,0.382104,0.003904,0.936472,0.420000,-2.100000,0.210000,21.66
2560165,0.382592,0.001952,0.939888,0.840000,-1.960000,0.210000,21.64
2560175,0.382592,0.005856,0.943304,1.330000,-1.820000,0.210000,21.64
2560186,0.382104,0.010736,0.943792,1.610000,-1.680000,0.210000,21.64
2560197,0.382104,0.016104,0.945744,1.400000,-1.820000,0.140000,21.64
2560208,0.381616,0.014152,0.948184,1.050000,-1.680000,-0.140000,21.70
2560219,0.379176,0.012688,0.951112,0.700000,-1.750000,-0.280000,21.64
2560230,0.376736,0.014152,0.954040,0.560000,-1.820000,-0.350000,21.64
2560241,0.378200,0.010248,0.956968,0.560000,-1.680000,-0.420000,21.63
2560253,0.378688,0.003416,0.955992,0.980000,-1.890000,-0.560000,21.63
2560264,0.379176,0.012200,0.947696,0.980000,-1.680000,-0.280000,21.64
2560274,0.377224,0.008784,0.953064,1.120000,-1.890000,-0.560000,21.66
2560285,0.378200,0.012200,0.953552,1.190000,-2.100000,-0.490000,21.66
2560296,0.378200,0.013176,0.959408,0.910000,-2.240000,-0.350000,21.68
2560307,0.378688,0.010248,0.957456,1.190000,-2.380000,-0.490000,21.68
2560318,0.378688,0.013664,0.955504,0.770000,-2.590000,-0.490000,21.68
2560329,0.377224,0.007808,0.957456,0.980000,-2.730000,-0.630000,21.68
2560340,0.375760,0.006832,0.950136,1.470000,-2.590000,-0.630000,21.64
2560350,0.375760,0.005856,0.950136,1.750000,-2.520000,-0.560000,21.67
2560361,0.378688,0.007808,0.951112,1.890000,-2.660000,-0.420000,21.67
2560372,0.381128,0.014152,0.948184,1.750000,-2.590000,-0.420000,21.63
2560383,0.382592,0.008296,0.944768,2.310000,-2.520000,-0.630000,21.63
2560394,0.384056,0.010736,0.940376,2.940000,-2.240000,-0.770000,21.66
2560405,0.385032,0.017080,0.941840,2.590000,-2.240000,-0.840000,21.63
2560417,0.380152,0.016592,0.946232,1.750000,-1.960000,-0.560000,21.63
2560427,0.373320,0.017080,0.950624,1.400000,-2.100000,-0.700000,21.68
2560438,0.376248,0.004392,0.937448,4.060000,-0.490000,-1.120000,21.68
2560449,0.375760,-0.038064,0.850096,19.600000,4.270000,-2.380000,21.63
2560460,0.366000,-0.036600,0.683200,50.330002,15.540000,-1.400000,21.63
2560471,0.329400,0.122488,0.496784,70.559998,30.940001,6.930000,21.63
2560482,0.302560,0.520208,0.208376,45.639999,40.320000,20.370001,21.63
2560493,0.200568,1.036024,-0.107360,-64.820000,38.430000,33.250000,21.63
2560504,0.230824,1.219024,-0.176168,-241.570007,8.400000,30.590000,21.63
2560515,0.522648,0.105896,0.228384,-363.160004,-37.730000,-8.960000,21.63
2560526,0.801296,-0.786168,1.154120,-405.440002,-77.000000,-28.070000,21.66
2560537,0.882792,-1.447408,1.732400,-328.859985,-67.830002,-22.260000,21.63
2560548,0.638792,-1.333704,1.983232,-215.529999,-45.360001,9.940000,21.63
2560559,0.349896,-0.835944,2.000312,-144.130005,-49.770000,-4.900000,21.66
2560570,0.250832,-0.424560,1.804624,-101.919998,-42.700001,-2.450000,21.66
2560582,0.145912,-0.293776,1.478640,-76.440002,-38.500000,-0.070000,21.68
2560593,0.162992,-0.189344,1.177056,-50.049999,-34.439999,9.170000,21.64
2560604,0.361608,-0.122000,0.807152,-21.559999,-26.809999,9.520000,21.64
2560614,0.357704,-0.117608,0.581696,15.820000,-15.680000,10.780000,21.67
2560625,0.369416,-0.217160,0.494344,54.250000,-5.180000,7.560000,21.67
2560637,0.403576,-0.333792,0.557784,81.550003,8.610000,5.180000,21.66
2560648,0.388936,-0.414312,0.671488,102.410004,8.960000,5.180000,21.67
2560658,0.392840,-0.389424,0.789096,98.209999,15.540000,4.900000,21.67
2560669,0.377224,-0.351360,0.837408,80.290001,14.840000,3.920000,21.65
2560680,0.408456,-0.309880,0.877424,49.700001,14.000000,1.960000,21.65
2560691,0.447496,-0.252784,0.868640,15.400000,12.460000,0.140000,21.65
2560702,0.441640,-0.259616,0.846680,-2.940000,13.860000,-0.140000,21.65
2560713,0.448472,-0.231800,0.837896,-17.639999,12.180000,-0.770000,21.64
2560724,0.433832,-0.271328,0.823744,-22.959999,10.850000,-1.750000,21.70
2560736,0.427488,-0.290848,0.865224,-20.230000,9.450000,-2.380000,21.70
2560747,0.416264,-0.311832,0.909144,-12.670000,9.380000,-2.240000,21.67
2560757,0.404552,-0.305000,0.969656,-4.200000,8.540000,-2.730000,21.67
2560768,0.403576,-0.278648,1.040904,1.050000,8.400000,-2.450000,21.63
2560779,0.391864,-0.279136,1.087264,3.780000,6.580000,-3.080000,21.66
2560790,0.394792,-0.311344,1.137040,6.160000,5.110000,-3.080000,21.66
2560802,0.397720,-0.326472,1.158512,11.060000,4.200000,-3.150000,21.64
2560812,0.403576,-0.353800,1.090680,27.650000,6.720000,-2.730000,21.64
2560823,0.398696,-0.352824,1.013576,52.009998,9.660000,-2.380000,21.69
2560834,0.405040,-0.370880,0.908656,67.620003,12.740000,-1.820000,21.65
2560845,0.362096,-0.303536,0.877424,77.209999,11.970000,-1.960000,21.65
2560856,0.340136,-0.222040,0.881328,76.300003,9.100000,-2.240000,21.69
2560867,0.324520,-0.085400,0.945744,63.630001,4.900000,-1.330000,21.69
2560878,0.315736,-0.002440,1.016016,38.290001,-0.490000,-0.560000,21.66
2560889,0.317688,0.031232,1.075552,7.000000,-7.210000,-0.560000,21.66
2560900,0.329888,0.004392,1.109224,-9.590000,-12.040000,1.400000,21.66
2560911,0.335744,-0.026352,1.078480,-14.630000,-11.830000,3.990000,21.64
2560922,0.323544,-0.023912,1.003328,-11.130000,-13.790000,6.090000,21.64
2560934,0.386008,-0.174216,0.846680,-6.230000,-12.880000,6.440000,21.66
2560945,0.386496,-0.218624,0.788608,-4.340000,-14.980000,5.880000,21.66
2560956,0.409432,-0.199592,0.815448,-4.060000,-15.470000,4.130000,21.60
2560968,0.423584,-0.170312,0.886696,-1.680000,-14.420000,5.320000,21.66
2560981,0.411384,-0.114192,0.968192,-3.710000,-16.450001,6.300000,21.66
2560993,0.408944,-0.143472,1.020896,-4.200000,-17.639999,6.510000,21.65
2561004,0.395280,-0.169824,1.048224,-0.770000,-19.250000,5.880000,21.61
2561014,0.397232,-0.214720,1.021384,8.820000,-18.129999,4.550000,21.61
2561025,0.395280,-0.235216,0.975512,24.780001,-16.100000,3.850000,21.62
2561036,0.391864,-0.264984,0.851072,44.869999,-11.130000,2.660000,21.62
2561047,0.386496,-0.250344,0.800320,54.669998,-8.400000,3.640000,21.68
2561058,0.400160,-0.169824,0.794952,53.270000,-7.560000,3.430000,21.62
2561069,0.419680,-0.125416,0.815936,44.450001,-7.210000,3.640000,21.62
2561080,0.428464,-0.102480,0.833504,31.639999,-7.280000,3.990000,21.66
2561091,0.422608,-0.101016,0.844240,21.490000,-8.120000,4.200000,21.66
2561102,0.413336,-0.113216,0.851560,13.860000,-8.400000,4.550000,21.67
2561113,0.413336,-0.142984,0.862296,12.530000,-7.980000,4.830000,21.66
2561124,0.416752,-0.155184,0.870104,14.210000,-6.860000,4.760000,21.66
2561135,0.421144,-0.166896,0.878888,18.200001,-4.970000,3.710000,21.68
2561146,0.427488,-0.182024,0.875960,21.420000,-3.430000,3.500000,21.68
2561162,0.425048,-0.183488,0.873032,24.150000,-1.750000,2.590000,21.64
2561173,0.420656,-0.170312,0.881328,25.129999,-0.420000,2.100000,21.69
2561184,0.421144,-0.152744,0.876936,24.990000,0.420000,1.050000,21.69
2561195,0.421144,-0.158600,0.862296,23.730000,2.030000,0.700000,21.67
2561206,0.410896,-0.155184,0.857904,24.639999,3.360000,-0.070000,21.67
2561217,0.409920,-0.146400,0.867176,26.530001,4.760000,-0.140000,21.62
2561228,0.408944,-0.115656,0.877424,25.549999,5.740000,-0.140000,21.69
2561239,0.413824,-0.073200,0.887672,20.230000,5.530000,0.000000,21.69
2561249,0.418704,-0.063928,0.902312,14.280000,5.040000,-0.210000,21.69
2561260,0.421632,-0.072712,0.911584,7.280000,4.760000,-0.210000,21.69
2561271,0.413824,-0.081496,0.918904,0.770000,3.710000,-0.350000,21.65
2561282,0.411872,-0.095648,0.919880,-4.060000,3.640000,-0.350000,21.65
2561293,0.400160,-0.127368,0.922320,-3.220000,3.570000,-0.910000,21.65
2561304,0.399672,-0.134688,0.919392,-1.050000,4.550000,-1.120000,21.68
2561315,0.393328,-0.128832,0.920368,1.260000,4.760000,-1.960000,21.68
2561326,0.392352,-0.122488,0.932080,1.820000,4.900000,-2.310000,21.64
2561337,0.390400,-0.126880,0.945256,3.710000,4.900000,-2.870000,21.61
2561348,0.389912,-0.112240,0.962336,4.340000,4.690000,-3.290000,21.61
2561359,0.381616,-0.097112,0.964776,2.660000,4.200000,-3.220000,21.66
2561370,0.375272,-0.093696,0.964288,0.280000,3.360000,-3.150000,21.66
2561381,0.376736,-0.102968,0.964776,-0.490000,2.590000,-3.220000,21.70
2561392,0.377712,-0.106872,0.970632,-0.280000,2.030000,-3.360000,21.70
2561403,0.376248,-0.104432,0.976976,0.700000,1.330000,-3.570000,21.65
2561414,0.374784,-0.098576,0.984296,1.890000,0.840000,-3.570000,21.62
2561425,0.376248,-0.090768,0.985760,2.590000,0.000000,-3.360000,21.62
2561436,0.375760,-0.084912,0.982832,3.220000,-0.490000,-3.080000,21.70
2561447,0.377712,-0.083448,0.974536,3.570000,-0.910000,-2.520000,21.70
2561458,0.377224,-0.086376,0.975024,4.410000,-1.610000,-2.310000,21.66
2561469,0.380640,-0.082472,0.974536,3.990000,-1.890000,-2.100000,21.59
2561480,0.381616,-0.087840,0.969656,4.130000,-2.450000,-2.170000,21.59
2561491,0.382104,-0.092720,0.965264,5.110000,-2.870000,-2.030000,21.60
2561502,0.386984,-0.094184,0.958920,6.720000,-3.080000,-2.170000,21.60
2561513,0.388448,-0.095648,0.958432,9.170000,-2.940000,-2.030000,21.64
2561524,0.392352,-0.100040,0.960872,11.060000,-3.080000,-2.380000,21.67
2561535,0.386008,-0.111752,0.928176,13.930000,-1.540000,-2.450000,21.67
2561546,0.378688,-0.151768,0.841312,20.719999,1.680000,-1.680000,21.66
2561556,0.369416,-0.222528,0.672464,45.919998,11.270000,-0.420000,21.66
2561567,0.339648,-0.123952,0.422608,66.779999,27.230000,8.330000,21.63
2561578,0.322080,0.401624,-0.207400,27.650000,40.950001,20.860001,21.63
2561589,0.162504,0.908168,-0.571936,-97.650002,38.360001,37.099998,21.66
2561600,0.222040,1.157048,-0.549488,-246.889999,-4.130000,31.780001,21.65
2561611,0.741760,-0.257664,0.503128,-375.549988,-44.730000,1.260000,21.65
2561622,1.191696,-1.781688,2.060824,-240.520004,-54.040001,-16.940001,21.64
2561633,0.919880,-1.514264,2.714256,-76.650002,-41.090000,25.690001,21.64
2561644,0.206912,0.081496,3.081720,-38.779999,-52.709999,3.500000,21.68
2561655,-0.003904,-0.221552,2.653256,-52.500000,-49.419998,-5.390000,21.66
2561666,-0.029280,-0.781776,1.624552,13.020000,-32.900002,-3.570000,21.66
2561677,0.257176,-0.404064,0.727120,69.019997,-29.049999,1.260000,21.66
2561688,0.502640,-0.062464,0.098088,79.239998,-23.870001,5.950000,21.66
2561700,0.493368,-0.098088,0.118096,78.260002,-15.960000,5.110000,21.64
2561711,0.344040,-0.128344,0.523624,62.860001,-11.970000,0.560000,21.64
2561721,0.262056,-0.320616,0.778848,37.799999,-6.160000,-2.520000,21.64
2561733,0.185440,-0.456280,0.874496,22.889999,-11.760000,-5.600000,21.67
2561744,0.299632,-0.423584,0.834968,6.510000,0.420000,-4.270000,21.67
2561755,0.335744,-0.376248,0.782264,0.140000,5.880000,-1.750000,21.65
2561766,0.389424,-0.341600,0.773480,3.220000,10.780000,0.420000,21.65
2561776,0.429928,-0.337696,0.718336,16.170000,14.980000,-3.640000,21.62
2561787,0.448960,-0.295240,0.696376,25.200001,16.870001,-4.830000,21.64
2561798,0.450912,-0.261080,0.744200,26.809999,16.730000,-8.190000,21.64
2561809,0.438712,-0.251808,0.862296,24.010000,15.540000,-10.850000,21.64
2561820,0.426512,-0.246440,0.988688,20.230000,12.600000,-12.740000,21.64
2561831,0.431880,-0.263520,1.051152,16.799999,12.320000,-13.160000,21.65
2561842,0.421632,-0.235704,1.089704,13.930000,9.520000,-13.790000,21.62
2561853,0.421632,-0.195200,1.101416,6.930000,7.490000,-13.440000,21.62
2561864,0.413336,-0.160552,1.120448,0.700000,4.830000,-13.090000,21.69
2561875,0.418216,-0.169336,1.068720,1.260000,4.410000,-12.110000,21.69
2561886,0.418216,-0.150304,0.994056,6.930000,3.920000,-11.480000,21.67
2561897,0.411872,-0.142984,0.922320,12.950000,3.850000,-10.640000,21.62
2561908,0.375272,-0.086864,0.924272,12.880000,1.120000,-10.150000,21.62
2561919,0.354776,-0.051240,0.973072,9.240000,-1.330000,-9.520000,21.66
2561930,0.343552,-0.042456,1.036024,1.960000,-3.990000,-8.400000,21.66
2561942,0.356728,-0.073200,1.061888,-3.710000,-6.860000,-7.630000,21.71
2561953,0.385032,-0.131272,1.019920,-2.380000,-5.670000,-6.160000,21.66
2561964,0.371856,-0.103456,0.996008,-1.610000,-7.000000,-3.920000,21.66
2561975,0.391376,-0.133224,0.967704,-0.980000,-7.350000,-2.520000,21.67
2561986,0.400648,-0.206424,0.906704,2.520000,-7.350000,-1.470000,21.67
2561998,0.407480,-0.174704,0.885232,7.280000,-6.650000,0.140000,21.64
2562009,0.381128,-0.068320,0.885232,0.350000,-8.050000,1.960000,21.69
2562020,0.373320,-0.051728,0.900360,-8.610000,-11.270000,2.590000,21.69
2562031,0.384544,-0.086864,0.937936,-16.940001,-12.880000,3.500000,21.62
2562042,0.384056,-0.119560,0.968192,-22.330000,-14.700000,3.150000,21.62
2562053,0.395768,-0.164456,0.994544,-22.750000,-15.750000,2.450000,21.64
2562064,0.424072,-0.228384,0.962824,-17.850000,-13.020000,1.890000,21.64
2562075,0.417728,-0.277672,0.879376,-4.270000,-9.940000,1.400000,21.66
2562086,0.423096,-0.278160,0.787144,15.330000,-5.600000,1.120000,21.68
2562097,0.417728,-0.211304,0.763720,22.750000,-3.080000,1.680000,21.68
2562108,0.436760,-0.168360,0.760792,20.580000,-2.590000,1.260000,21.68
2562119,0.447496,-0.146888,0.809104,13.650000,-2.590000,2.380000,21.68
2562130,0.426024,-0.092720,0.885720,2.240000,-3.430000,2.240000,21.70
2562141,0.418216,-0.064904,0.946232,-10.220000,-5.950000,3.010000,21.68
2562153,0.419192,-0.116632,0.982344,-15.960000,-7.700000,4.130000,21.68
2562164,0.417728,-0.162504,0.972584,-14.700000,-7.350000,4.550000,21.66
2562176,0.405040,-0.188856,0.936472,-7.910000,-6.370000,4.690000,21.66
2562187,0.413824,-0.194224,0.888160,2.590000,-4.480000,4.760000,21.62
2562198,0.416264,-0.184464,0.863272,11.270000,-2.520000,4.480000,21.67
2562209,0.435784,-0.203496,0.820328,14.560000,-0.630000,3.920000,21.67
2562220,0.427000,-0.199104,0.826184,12.880000,-0.210000,4.340000,21.66
2562231,0.423584,-0.182512,0.865224,8.190000,-0.140000,4.620000,21.66
2562242,0.410896,-0.173728,0.891576,4.900000,-0.210000,5.390000,21.64
2562253,0.403088,-0.158600,0.922808,3.150000,-0.770000,5.880000,21.65
2562264,0.398696,-0.124440,0.960384,0.910000,-1.400000,6.720000,21.65
2562275,0.398696,-0.136152,0.973560,-1.260000,-2.100000,6.370000,21.69
2562286,0.394792,-0.154696,0.963800,-0.840000,-2.310000,5.950000,21.69
2562297,0.389912,-0.172752,0.936960,1.750000,-1.820000,5.460000,21.67
2562308,0.398696,-0.189832,0.909144,8.890000,-0.770000,4.690000,21.62
2562319,0.411872,-0.173240,0.898896,11.200000,-0.420000,4.060000,21.62
2562330,0.437736,-0.194224,0.839848,9.800000,1.540000,2.800000,21.66
2562341,0.432368,-0.228384,0.818864,5.880000,2.590000,3.430000,21.66
2562352,0.418216,-0.226920,0.843264,1.120000,1.890000,3.080000,21.66
2562363,0.420168,-0.220088,0.885232,-3.010000,1.890000,3.640000,21.66
2562374,0.421144,-0.208376,0.925736,-4.130000,1.610000,3.640000,21.67
2562385,0.421144,-0.204960,0.927688,-0.980000,2.660000,3.850000,21.62
2562396,0.410896,-0.179096,0.909632,2.030000,3.360000,4.340000,21.62
2562406,0.398696,-0.154696,0.881328,1.890000,3.080000,3.990000,21.66
2562417,0.401136,-0.162504,0.880840,0.700000,3.150000,3.640000,21.66
2562428,0.409432,-0.182024,0.898408,0.350000,2.940000,2.660000,21.67
2562440,0.407480,-0.182512,0.936960,-1.260000,2.660000,2.100000,21.62
2562451,0.399184,-0.187880,0.964776,-4.130000,1.470000,1.330000,21.62
2562462,0.394792,-0.200568,0.974536,-5.810000,0.910000,0.770000,21.68
2562473,0.390400,-0.222528,0.954528,-5.740000,1.120000,0.910000,21.68
2562484,0.372832,-0.228384,0.946720,-5.180000,-0.070000,0.560000,21.67
2562495,0.378200,-0.224480,0.948672,-3.010000,0.000000,0.350000,21.66
2562506,0.373320,-0.214720,0.942328,1.050000,0.630000,0.210000,21.66
2562517,0.372344,-0.199592,0.928664,7.280000,2.520000,-0.350000,21.65
2562528,0.374296,-0.178120,0.910608,9.590000,3.010000,-0.140000,21.65
2562539,0.385520,-0.175192,0.908656,10.920000,3.290000,-0.840000,21.66
2562549,0.392840,-0.159088,0.923784,9.170000,2.660000,-1.190000,21.66
2562560,0.397232,-0.153232,0.949648,5.600000,1.610000,-1.400000,21.62
2562571,0.400648,-0.152744,0.975024,1.610000,-0.070000,-1.190000,21.66
2562582,0.403576,-0.163968,0.989664,-0.910000,-1.750000,-1.190000,21.66
2562594,0.404064,-0.179096,0.992104,-1.470000,-3.080000,-1.260000,21.69
2562605,0.399184,-0.199104,0.977464,-2.100000,-3.150000,-0.980000,21.69
2562616,0.386984,-0.222528,0.942328,2.100000,-3.290000,-1.680000,21.67
2562627,0.376248,-0.251808,0.896456,12.600000,0.140000,-2.030000,21.61
2562638,0.361608,-0.254248,0.831552,26.459999,4.690000,-2.940000,21.61
2562649,0.377712,-0.283528,0.695888,59.709999,12.110000,-4.130000,21.67
2562660,0.394792,-0.274256,0.478728,100.239998,27.719999,-1.820000,21.67
2562671,0.359656,0.085888,-0.037088,91.769997,46.830002,6.510000,21.66
2562681,0.264008,0.858392,-0.739320,-5.530000,49.630001,23.730000,21.64
2562692,0.214232,1.268800,-0.757376,-217.979996,10.290000,30.309999,21.64
2562703,0.635376,0.499224,0.616832,-393.959991,-61.320000,-12.390000,21.67
2562714,1.120448,-1.893440,2.200392,-318.920013,-70.349998,-16.240000,21.67
2562725,1.059448,-2.354600,2.770864,-94.779999,-48.299999,18.340000,21.68
2562736,0.126880,-0.284016,2.950448,-10.010000,-47.669998,-14.210000,21.68
2562748,-0.138592,0.002440,2.481968,-26.530001,-48.230000,-7.770000,21.62
2562759,0.088328,-0.720288,1.498648,22.610001,-30.660000,1.750000,21.65
2562770,0.252784,-0.314272,0.644160,77.980003,-30.730000,4.200000,21.65
2562781,0.540216,-0.115656,0.225944,90.019997,-24.080000,7.350000,21.66
2562792,0.517768,-0.138592,0.183000,93.660004,-15.750000,8.820000,21.66
2562802,0.356240,-0.159088,0.512888,81.269997,-12.040000,1.470000,21.66
2562813,0.253272,-0.336232,0.735904,52.919998,-9.380000,0.070000,21.66
2562824,0.233264,-0.472872,0.808616,28.490000,-7.350000,-2.380000,21.66
2562835,0.265960,-0.454328,0.800808,6.020000,-5.180000,-0.840000,21.67
2562846,0.363560,-0.298656,0.632448,-15.330000,3.780000,0.840000,21.67
2562857,0.402112,-0.339648,0.715896,-20.440001,6.300000,2.170000,21.61
2562869,0.450912,-0.421632,0.654408,-6.650000,8.610000,-2.310000,21.65
2562880,0.490928,-0.394304,0.671488,8.680000,11.270000,-4.620000,21.65
2562891,0.454816,-0.352824,0.793976,19.950001,11.550000,-7.910000,21.64
2562902,0.458232,-0.330864,0.891576,28.209999,13.230000,-8.470000,21.64
2562913,0.434808,-0.291336,0.938912,29.190001,11.690000,-10.150000,21.69
2562924,0.453352,-0.293288,0.973560,24.150000,13.230000,-10.500000,21.65
2562935,0.445544,-0.276208,0.992104,16.450001,11.900000,-10.780000,21.65
2562946,0.430416,-0.232288,1.000888,6.440000,8.890000,-10.920000,21.68
2562957,0.417728,-0.191296,1.005768,-1.750000,7.000000,-10.780000,21.68
2562968,0.407968,-0.215696,0.996984,-5.110000,4.130000,-11.130000,21.73
2562979,0.407968,-0.238144,0.973560,-2.030000,4.620000,-10.220000,21.73
2562990,0.386984,-0.188856,0.964776,-0.700000,4.410000,-9.170000,21.66
2563001,0.380640,-0.181536,0.944768,2.450000,4.130000,-7.910000,21.68
2563012,0.368928,-0.138592,0.958432,5.110000,3.430000,-6.580000,21.68
2563023,0.366000,-0.111264,0.983808,4.340000,1.750000,-5.670000,21.68
2563034,0.367464,-0.143960,1.029680,3.500000,-0.210000,-4.830000,21.68
2563045,0.377224,-0.165432,1.051152,1.470000,-1.680000,-3.710000,21.64
2563056,0.377712,-0.160552,1.058960,-4.270000,-3.990000,-3.010000,21.67
2563068,0.394792,-0.239608,1.037488,-1.050000,-4.760000,-2.520000,21.67
2563079,0.414800,-0.322080,0.979416,3.570000,-4.970000,-1.050000,21.66
2563090,0.394304,-0.281576,0.976488,2.520000,-7.350000,-1.050000,21.66
2563101,0.395768,-0.302560,0.914512,5.950000,-7.840000,-1.400000,21.67
2563112,0.395768,-0.227896,0.852536,12.180000,-5.390000,1.260000,21.66
2563123,0.366488,-0.036600,0.820328,7.770000,-5.460000,2.100000,21.66
2563133,0.366488,0.021472,0.822280,-8.750000,-8.260000,3.430000,21.64
2563144,0.384056,-0.054656,0.864248,-21.629999,-10.850000,3.850000,21.64
2563155,0.392840,-0.146888,0.935008,-34.160000,-14.070000,3.150000,21.70
2563167,0.412848,-0.357704,0.986248,-38.570000,-15.820000,1.260000,21.68
2563177,0.432368,-0.321104,0.986248,-32.340000,-15.540000,0.910000,21.68
2563193,0.441152,-0.406992,0.950136,-15.050000,-13.930000,-1.190000,21.67
2563204,0.459696,-0.477752,0.862784,8.960000,-7.560000,-1.960000,21.66
2563215,0.449936,-0.451888,0.803248,38.290001,-0.140000,-1.680000,21.66
2563226,0.433832,-0.316712,0.686128,61.529999,10.010000,-0.280000,21.70
2563237,0.403576,-0.028304,0.658312,71.400002,12.040000,3.220000,21.70
2563247,0.386008,0.071248,0.710528,48.369999,8.260000,3.290000,21.67
2563258,0.394304,0.075152,0.822768,16.730000,0.840000,0.630000,21.67
2563269,0.427976,-0.045384,0.918904,-14.980000,-2.100000,0.070000,21.67
2563280,0.421632,-0.213256,0.985272,-25.410000,-5.600000,-0.350000,21.65
2563291,0.422120,-0.270352,1.029192,-24.080000,-7.070000,0.770000,21.65
2563302,0.421632,-0.285480,1.019432,-18.549999,-7.070000,1.540000,21.65
2563313,0.415776,-0.298656,0.981856,-8.820000,-5.040000,2.380000,21.65
2563324,0.406016,-0.299144,0.906704,3.850000,-1.330000,3.430000,21.66
2563335,0.389424,-0.217160,0.849608,17.010000,1.330000,4.480000,21.66
2563345,0.377224,-0.150304,0.843264,18.969999,2.030000,4.690000,21.66
2563356,0.379664,-0.121024,0.866688,12.950000,0.980000,4.620000,21.68
2563367,0.394792,-0.141032,0.914512,2.800000,-0.840000,4.200000,21.68
2563378,0.403576,-0.179096,0.950136,-3.640000,-2.730000,3.780000,21.63
2563389,0.408944,-0.238144,0.974536,-5.670000,-4.690000,3.220000,21.63
2563400,0.428952,-0.303048,0.940376,-1.400000,-3.850000,2.660000,21.66
2563411,0.429440,-0.345504,0.877912,7.210000,-1.330000,3.500000,21.64
2563422,0.420656,-0.300120,0.841312,17.430000,1.330000,3.500000,21.64
2563433,0.412360,-0.222528,0.811056,24.990000,4.970000,5.110000,21.68
2563443,0.395768,-0.157624,0.810568,27.650000,6.650000,5.530000,21.68
2563455,0.406504,-0.108824,0.837408,20.230000,6.020000,5.880000,21.68
2563465,0.405528,-0.103456,0.888648,9.800000,4.410000,5.110000,21.70
2563476,0.406992,-0.130784,0.950136,-3.010000,1.400000,4.340000,21.70
2563487,0.408944,-0.195200,0.984784,-9.030000,-1.190000,3.640000,21.67
2563498,0.401624,-0.222040,1.021384,-12.040000,-3.850000,3.920000,21.67
2563509,0.391864,-0.246928,1.032608,-13.160000,-5.390000,3.430000,21.65
2563520,0.397232,-0.288408,1.020408,-9.870000,-5.810000,2.660000,21.68
2563531,0.390888,-0.338184,0.961848,0.770000,-3.430000,1.610000,21.68
2563542,0.393328,-0.350872,0.875472,16.940001,-0.070000,0.910000,21.65
2563553,0.366976,-0.324032,0.827160,28.980000,1.960000,-0.630000,21.65
2563564,0.383080,-0.245464,0.807640,33.740002,5.530000,1.120000,21.64
2563575,0.388448,-0.185440,0.835944,32.619999,6.720000,2.380000,21.64
2563585,0.392352,-0.120536,0.869128,22.750000,5.530000,2.310000,21.70
2563596,0.386984,-0.099552,0.928176,13.440000,3.500000,1.680000,21.64
2563607,0.404552,-0.123952,0.964776,4.550000,1.610000,1.820000,21.64
2563618,0.402112,-0.164456,0.991128,0.140000,-1.190000,0.630000,21.65
2563629,0.398208,-0.171776,1.013088,-2.170000,-3.220000,0.280000,21.65
2563640,0.394304,-0.206424,1.003816,-2.380000,-4.480000,-0.070000,21.62
2563651,0.388936,-0.239608,0.980392,2.030000,-4.690000,-0.420000,21.70
2563662,0.386496,-0.267424,0.918416,12.740000,-0.700000,-0.770000,21.70
2563673,0.366000,-0.268400,0.868152,21.840000,1.680000,-0.280000,21.70
2563684,0.376736,-0.274256,0.851072,33.320000,3.290000,-0.910000,21.70
2563695,0.392352,-0.263520,0.829600,54.950001,8.890000,-2.240000,21.68
2563706,0.387472,-0.236680,0.658800,78.610001,20.020000,-3.080000,21.68
2563717,0.367464,-0.034160,0.405528,94.500000,29.750000,4.900000,21.70
2563728,0.319152,0.344528,0.058072,34.439999,37.939999,13.720000,21.64
2563739,0.213256,0.846192,-0.228384,-64.889999,22.610001,22.540001,21.64
2563750,0.218624,0.934520,-0.112240,-230.929993,1.400000,18.059999,21.66
2563761,0.625128,-0.009272,0.713456,-337.049988,-35.980000,4.340000,21.66
2563772,0.872056,-1.563552,1.880752,-270.760010,-45.779999,-14.630000,21.67
2563783,0.698328,-1.468880,2.479528,-111.510002,-27.160000,4.060000,21.67
2563794,0.286456,-0.406016,2.522472,-21.840000,-33.250000,3.500000,21.67
2563805,0.248392,-0.324032,2.014464,11.970000,-29.330000,4.970000,21.69
2563816,0.306464,-0.544608,1.098976,56.840000,-24.639999,6.860000,21.69
2563827,0.366976,-0.210816,0.545096,83.300003,-21.070000,6.720000,21.67
2563838,0.406016,-0.166896,0.319152,91.559998,-11.620000,4.620000,21.67
2563849,0.383080,-0.256688,0.407968,95.339996,-5.110000,4.690000,21.67
2563860,0.313784,-0.147376,0.720776,72.379997,-3.220000,4.690000,21.67
2563871,0.253760,-0.269376,0.830576,31.570000,-2.660000,4.340000,21.67
2563881,0.232776,-0.427000,0.792512,7.140000,-5.740000,3.570000,21.65
2563892,0.318664,-0.378688,0.761768,-15.820000,0.910000,3.780000,21.65
2563903,0.357704,-0.335256,0.747128,-29.469999,2.940000,5.600000,21.64
2563914,0.381616,-0.324032,0.778848,-31.360001,5.040000,6.020000,21.63
2563925,0.411384,-0.383080,0.768600,-18.969999,7.630000,1.470000,21.63
2563936,0.464576,-0.434808,0.679784,2.240000,14.840000,1.260000,21.69
2563947,0.414312,-0.341112,0.735904,9.800000,11.900000,-2.660000,21.69
2563958,0.444080,-0.378200,0.878400,11.270000,14.980000,-3.220000,21.66
2563969,0.410896,-0.342088,0.998936,8.400000,11.480000,-5.040000,21.64
2563980,0.404064,-0.330376,1.054568,2.940000,8.750000,-6.300000,21.64
2563991,0.402600,-0.303536,1.082384,-2.800000,5.880000,-7.140000,21.65
2564002,0.392352,-0.282552,1.085312,-9.450000,3.430000,-7.840000,21.65
2564013,0.381616,-0.268888,1.083848,-13.020000,0.910000,-7.910000,21.69
2564024,0.384544,-0.245952,1.034072,-10.920000,1.260000,-7.210000,21.69
2564035,0.369904,-0.220088,0.971608,-5.390000,0.350000,-7.280000,21.66
2564046,0.359168,-0.210328,0.937448,-0.560000,-0.070000,-7.490000,21.67
2564057,0.347456,-0.217648,0.952576,3.570000,-0.490000,-7.770000,21.67
2564068,0.339648,-0.238632,0.985760,7.980000,-1.750000,-7.420000,21.67
2564079,0.341600,-0.238632,1.034072,12.180000,-2.660000,-7.140000,21.67
2564090,0.346480,-0.236680,1.077992,11.690000,-4.620000,-6.020000,21.70
2564101,0.349896,-0.255712,1.124352,8.120000,-6.720000,-5.390000,21.63
2564113,0.356728,-0.302072,1.141432,4.480000,-8.680000,-4.690000,21.63
2564124,0.382104,-0.361120,1.082384,9.450000,-8.540000,-4.410000,21.70
2564135,0.387960,-0.276208,0.963312,23.730000,-6.720000,-3.360000,21.70
2564146,0.369416,-0.144936,0.823256,25.340000,-5.950000,-1.610000,21.68
2564157,0.358192,-0.101504,0.751520,16.870001,-8.330000,-1.400000,21.67
2564168,0.376248,-0.187392,0.752496,10.640000,-9.590000,-2.240000,21.67
2564179,0.384544,-0.241072,0.833016,6.090000,-10.640000,-3.430000,21.69
2564191,0.391376,-0.270840,0.938912,2.800000,-12.460000,-4.340000,21.69
2564203,0.409432,-0.298168,1.015040,0.280000,-14.000000,-4.200000,21.69
2564214,0.408456,-0.314760,1.048224,-1.190000,-14.840000,-4.200000,21.70
2564225,0.409920,-0.342088,0.999424,4.410000,-12.880000,-3.780000,21.70
2564236,0.406016,-0.325984,0.913536,16.309999,-7.560000,-1.960000,21.69
2564247,0.391376,-0.237656,0.793000,34.230000,-2.380000,-0.490000,21.69
2564258,0.356728,-0.147864,0.755912,38.639999,-0.840000,1.120000,21.68
2564269,0.371856,-0.090768,0.772992,27.440001,-3.010000,-0.140000,21.68
2564280,0.407480,-0.132736,0.816912,13.440000,-4.830000,-1.400000,21.68
2564291,0.424560,-0.159088,0.882792,-3.220000,-7.210000,-2.800000,21.65
2564302,0.427488,-0.191296,0.945256,-16.309999,-9.520000,-2.940000,21.65
2564313,0.421632,-0.255712,0.984784,-19.809999,-11.270000,-3.220000,21.70
2564325,0.442616,-0.354288,0.928664,-2.800000,-9.100000,-3.360000,21.64
2564336,0.417240,-0.281576,0.907680,7.560000,-4.900000,-1.470000,21.64
2564347,0.400648,-0.207888,0.841312,18.410000,-2.100000,-0.770000,21.67
2564358,0.389424,-0.192760,0.794952,25.480000,1.470000,0.280000,21.67
2564369,0.381616,-0.173728,0.785680,29.260000,3.290000,-0.350000,21.70
2564380,0.391376,-0.139080,0.806664,26.950001,3.360000,-1.610000,21.68
2564391,0.397720,-0.135176,0.875960,20.790001,2.240000,-1.680000,21.68
2564402,0.418704,-0.142008,0.937448,13.300000,0.700000,-1.680000,21.65
2564413,0.412360,-0.158600,0.985760,6.090000,-1.610000,-1.890000,21.65
2564424,0.413336,-0.193248,1.000888,3.430000,-3.080000,-1.610000,21.72
2564435,0.410408,-0.244000,0.968680,4.900000,-4.200000,-1.260000,21.64
2564446,0.407480,-0.252784,0.925248,11.480000,-2.590000,-0.560000,21.64
2564458,0.394792,-0.221552,0.878888,34.790001,0.280000,0.980000,21.66
2564470,0.381128,-0.174216,0.857904,23.170000,2.170000,2.240000,21.66
2564481,0.384544,-0.136640,0.855464,25.270000,3.430000,2.940000,21.66
2564491,0.396256,-0.131760,0.857416,27.510000,4.550000,2.940000,21.67
2564502,0.404064,-0.128344,0.866200,27.440001,5.180000,3.010000,21.67
2564513,0.412360,-0.131272,0.869616,24.430000,5.250000,2.870000,21.68
2564524,0.408456,-0.142008,0.883768,19.320000,4.340000,3.010000,21.68
2564535,0.411872,-0.135664,0.898408,13.160000,3.640000,3.640000,21.64
2564546,0.408944,-0.121512,0.924272,8.400000,2.240000,4.270000,21.64
2564556,0.404064,-0.123952,0.943304,2.450000,1.330000,4.830000,21.67
2564567,0.396744,-0.150304,0.948672,-0.210000,0.350000,4.900000,21.65
2564578,0.392840,-0.180560,0.957456,1.260000,0.350000,4.690000,21.65
2564589,0.380640,-0.190808,0.953552,4.900000,0.700000,4.760000,21.66
2564600,0.370392,-0.187880,0.954528,8.190000,0.770000,4.130000,21.66
2564611,0.366488,-0.184952,0.933056,9.450000,1.400000,3.850000,21.68
2564622,0.365024,-0.182024,0.927200,9.450000,1.050000,3.710000,21.70
2564633,0.373320,-0.174704,0.931592,7.700000,0.630000,3.220000,21.70
2564643,0.381128,-0.176168,0.943304,6.230000,0.350000,2.940000,21.67
2564654,0.382104,-0.169336,0.949648,4.200000,-0.140000,2.170000,21.67
2564665,0.378200,-0.163968,0.967704,2.450000,-1.050000,1.750000,21.69
2564676,0.383080,-0.183488,0.978440,1.820000,-1.750000,1.190000,21.69
2564687,0.377224,-0.192760,0.986248,3.290000,-2.170000,0.630000,21.66
2564701,0.375760,-0.191296,0.972096,5.180000,-2.450000,-0.140000,21.66
2564712,0.375272,-0.191296,0.954528,7.280000,-2.590000,-0.560000,21.66
2564723,0.379176,-0.187880,0.943792,9.170000,-2.240000,-0.840000,21.65
2564734,0.389912,-0.192272,0.890600,11.200000,-0.840000,-1.330000,21.68
2564745,0.378200,-0.211304,0.759816,21.490000,4.060000,-0.770000,21.68
2564756,0.354288,-0.153720,0.575352,30.240000,13.930000,5.600000,21.70
2564768,0.309880,0.186416,0.307440,11.620000,18.270000,14.630000,21.70
2564779,0.278648,0.626104,0.061488,-74.970001,9.520000,19.530001,21.70
2564790,0.312808,0.471408,0.309392,-187.250000,-9.940000,13.300000,21.69
2564801,0.620248,-0.428464,0.798856,-221.059998,-28.700001,-0.910000,21.69
2564812,0.788120,-1.310768,1.376648,-164.220001,-20.299999,-3.640000,21.64
2564823,0.597312,-0.919880,1.921744,-38.080002,-15.470000,7.210000,21.64
2564834,0.266448,-0.080520,2.109136,9.660000,-20.510000,12.670000,21.68
2564845,0.207400,0.167384,1.877824,4.200000,-25.760000,12.250000,21.68
2564856,0.257664,-0.290360,1.211216,14.560000,-26.459999,9.870000,21.62
2564867,0.325984,-0.277672,0.639280,25.480000,-23.870001,10.780000,21.68
2564878,0.351848,-0.127368,0.539240,22.820000,-23.590000,10.010000,21.68
2564889,0.349896,-0.085400,0.697352,18.549999,-18.129999,11.550000,21.66
2564900,0.331352,-0.137616,0.830576,12.180000,-14.000000,11.830000,21.66
2564911,0.343064,-0.317200,0.819352,9.730000,-12.670000,12.460000,21.66
2564921,0.387472,-0.434320,0.795440,11.200000,-10.710000,11.270000,21.67
2564932,0.409920,-0.397232,0.804224,13.020000,-7.490000,9.730000,21.67
2564943,0.412360,-0.319152,0.828624,11.620000,-2.940000,9.660000,21.67
2564954,0.423584,-0.316224,0.855464,9.450000,-0.210000,8.260000,21.67
2564965,0.419680,-0.362096,0.873032,9.940000,0.490000,4.900000,21.68
2564976,0.442128,-0.389912,0.841312,11.830000,1.400000,3.640000,21.62
2564987,0.443104,-0.394304,0.825208,13.370000,2.170000,1.680000,21.62
2564998,0.433832,-0.362096,0.854000,12.250000,1.540000,-0.420000,21.69
2565009,0.424072,-0.327448,0.895480,8.890000,1.400000,-1.330000,21.69
2565019,0.406016,-0.288896,0.940864,5.600000,0.700000,-2.800000,21.63
2565030,0.396744,-0.268400,0.958920,1.260000,0.420000,-3.640000,21.63
2565041,0.395768,-0.269864,0.944768,-0.350000,0.490000,-4.480000,21.70
2565053,0.395768,-0.265960,0.915000,-0.070000,1.260000,-4.900000,21.66
2565064,0.395280,-0.268888,0.883280,0.980000,1.680000,-5.390000,21.66
2565075,0.393816,-0.267424,0.888160,2.100000,1.750000,-6.300000,21.66
2565086,0.379664,-0.233752,0.905240,0.070000,1.120000,-6.720000,21.66
2565097,0.379176,-0.241072,0.947208,-1.470000,0.280000,-7.140000,21.64
2565108,0.387472,-0.249856,0.976000,-0.980000,-0.560000,-7.210000,21.67
2565120,0.387960,-0.250832,0.997960,0.210000,-1.330000,-7.210000,21.67
2565131,0.396744,-0.255224,1.001376,4.060000,-1.540000,-6.720000,21.66
2565142,0.389424,-0.239608,0.998448,7.700000,-2.030000,-6.510000,21.66
2565153,0.392840,-0.231800,0.976976,11.130000,-1.680000,-6.090000,21.67
2565164,0.384056,-0.204960,0.959408,14.700000,-2.100000,-5.670000,21.67
2565175,0.383568,-0.185440,0.943304,13.650000,-2.660000,-4.970000,21.67
2565186,0.386984,-0.202032,0.938424,11.760000,-3.990000,-4.830000,21.68
2565198,0.394304,-0.237656,0.934520,11.060000,-5.040000,-4.200000,21.68
2565209,0.396744,-0.230824,0.943792,7.490000,-6.650000,-3.780000,21.68
2565227,0.399672,-0.258640,0.963312,4.830000,-8.260000,-3.430000,21.68
2565238,0.403576,-0.248880,0.948184,4.270000,-7.980000,-3.150000,21.69
2565249,0.407480,-0.224968,0.880352,9.590000,-4.620000,-2.520000,21.69
2565260,0.379176,-0.148352,0.816424,11.830000,-2.310000,-0.840000,21.65
2565271,0.375760,-0.104920,0.783728,4.200000,-3.710000,0.000000,21.65
2565282,0.403576,-0.136152,0.784704,-5.320000,-4.830000,-0.070000,21.68
2565293,0.424072,-0.208376,0.829112,-9.380000,-4.900000,-0.140000,21.68
2565304,0.427488,-0.235704,0.899384,-10.570000,-5.600000,-0.420000,21.71
2565315,0.427000,-0.235216,0.958920,-11.060000,-6.510000,-0.560000,21.68
2565326,0.426512,-0.261080,0.990640,-9.100000,-6.930000,-0.490000,21.68
2565337,0.411872,-0.273280,1.010648,-6.090000,-6.930000,-0.630000,21.70
2565348,0.402112,-0.273280,1.000400,-2.310000,-6.930000,-0.560000,21.70
2565359,0.389424,-0.256200,0.977952,0.630000,-6.930000,-0.490000,21.69
2565370,0.398696,-0.247904,0.893528,11.270000,-1.680000,0.000000,21.66
2565381,0.383080,-0.227408,0.772016,20.510000,3.360000,0.490000,21.66
2565392,0.375760,-0.203984,0.712968,26.879999,3.850000,0.700000,21.68
2565403,0.400648,-0.150304,0.861808,20.930000,2.800000,0.490000,21.68
2565414,0.422608,-0.127368,0.822280,9.310000,1.260000,-0.350000,21.66
2565425,0.430416,-0.162504,0.911096,-4.200000,-0.560000,-0.560000,21.67
2565436,0.430416,-0.213256,0.979904,-10.430000,-2.590000,-0.280000,21.67
2565447,0.420168,-0.255224,1.015040,-9.730000,-3.990000,-0.280000,21.66
2565458,0.405528,-0.266936,1.036024,-8.050000,-5.250000,-0.840000,21.66
2565469,0.402600,-0.266936,1.040904,-5.670000,-5.600000,-0.910000,21.67
2565481,0.394792,-0.264984,1.033584,-2.660000,-6.230000,-1.190000,21.64
2565492,0.391376,-0.278648,0.990640,5.180000,-5.740000,-1.680000,21.64
2565504,0.402600,-0.292312,0.906216,18.270000,-2.800000,-2.100000,21.71
2565515,0.415288,-0.312808,0.787632,29.820000,3.570000,-2.240000,21.71
2565526,0.376248,-0.238144,0.727120,32.340000,5.460000,-1.820000,21.66
2565537,0.379664,-0.172752,0.738344,27.510000,4.760000,-1.610000,21.64
2565548,0.406504,-0.135664,0.776408,17.639999,4.130000,-0.980000,21.64
2565559,0.425048,-0.130784,0.848632,10.080000,3.850000,-0.910000,21.69
2565570,0.438224,-0.148840,0.917928,4.270000,2.800000,-0.350000,21.69
2565581,0.446032,-0.177632,0.969656,2.520000,1.890000,-0.490000,21.64
2565591,0.439200,-0.201544,1.000888,4.620000,0.840000,-0.910000,21.64
2565603,0.422120,-0.214232,0.997960,9.730000,0.560000,-1.050000,21.65
2565614,0.403576,-0.193248,0.994056,17.080000,0.700000,-1.190000,21.68
2565625,0.384544,-0.187392,0.992104,23.940001,0.210000,-2.240000,21.68
2565636,0.394304,-0.212768,0.935008,32.340000,2.030000,-3.080000,21.66
2565647,0.386008,-0.229360,0.890112,34.790001,3.990000,-2.800000,21.66
2565658,0.360632,-0.190320,0.846680,34.020000,3.990000,-2.310000,21.68
2565670,0.353800,-0.152256,0.831064,31.010000,5.460000,-1.120000,21.65
2565681,0.351848,-0.122000,0.838872,24.920000,5.600000,-0.140000,21.65
2565691,0.373320,-0.093208,0.867664,19.879999,4.970000,1.050000,21.69
2565702,0.398208,-0.108336,0.903776,14.140000,4.480000,0.700000,21.69
2565713,0.410896,-0.136640,0.955504,12.670000,3.290000,-0.070000,21.66
2565726,0.417240,-0.146400,0.988688,10.850000,2.100000,-1.120000,21.69
2565737,0.411384,-0.179096,1.010648,13.790000,0.770000,-1.680000,21.69
2565748,0.407968,-0.215208,1.013088,19.040001,0.140000,-2.590000,21.65
2565759,0.401624,-0.234240,0.940864,25.129999,2.030000,-2.800000,21.65
2565770,0.366976,-0.197640,0.832040,38.919998,5.390000,-2.800000,21.65
2565782,0.330864,-0.155184,0.630984,65.940002,14.350000,-0.210000,21.66
2565793,0.305488,0.086376,0.395280,61.250000,25.270000,6.230000,21.66
2565803,0.277184,0.460672,0.238144,13.370000,21.070000,11.550000,21.68
2565815,0.362096,0.507032,0.178608,-85.820000,11.060000,13.650000,21.68
2565826,0.485560,0.267424,0.350384,-167.649994,1.260000,10.010000,21.64
2565836,0.648552,-0.303536,0.793976,-185.710007,-20.580000,-0.910000,21.66
2565848,0.687104,-0.821304,1.459608,-147.839996,-24.780001,-7.910000,21.66
2565859,0.501664,-0.752984,2.017392,-78.750000,-22.750000,0.280000,21.68
2565870,0.366976,-0.592920,2.143296,-6.860000,-27.719999,0.770000,21.68
2565881,0.220088,-0.256688,1.925648,22.680000,-25.620001,1.260000,21.64
2565892,0.152256,-0.220576,1.359568,27.510000,-26.459999,3.080000,21.67
2565903,0.274744,-0.297192,0.835456,37.520000,-24.570000,4.410000,21.67
2565914,0.346480,-0.118584,0.643184,37.799999,-19.879999,5.740000,21.63
2565925,0.315248,-0.066856,0.610488,32.970001,-19.180000,4.060000,21.63
2565936,0.372832,-0.205448,0.688568,27.860001,-16.170000,3.290000,21.67
2565947,0.319640,-0.267912,0.789584,22.190001,-14.980000,1.750000,21.70
2565958,0.332816,-0.306464,0.841800,12.040000,-11.340000,0.210000,21.70
2565969,0.365512,-0.303536,0.872056,5.670000,-8.680000,-1.260000,21.66
2565980,0.393328,-0.276208,0.874984,-0.630000,-3.710000,-1.820000,21.66
2565991,0.424560,-0.267912,0.870104,-3.500000,-0.490000,-2.660000,21.68
2566002,0.441640,-0.264008,0.847168,-2.100000,2.800000,-4.060000,21.70
2566014,0.472384,-0.308416,0.782264,8.260000,5.740000,-5.390000,21.70
2566025,0.467016,-0.268888,0.768600,13.930000,5.460000,-6.860000,21.71
2566036,0.448960,-0.227408,0.842776,12.180000,5.600000,-7.490000,21.71
2566047,0.427976,-0.221064,0.909632,7.350000,4.410000,-8.050000,21.65
2566058,0.411872,-0.205936,0.985272,3.220000,2.660000,-8.470000,21.65
2566069,0.409432,-0.199592,1.017480,-2.730000,1.260000,-7.700000,21.71
2566080,0.408944,-0.211304,1.017968,-5.670000,1.050000,-7.280000,21.66
2566091,0.410896,-0.226432,0.975024,-3.920000,2.520000,-5.950000,21.66
2566102,0.393328,-0.171288,0.930128,-1.890000,2.520000,-4.690000,21.62
2566113,0.390888,-0.121024,0.890600,-0.210000,2.800000,-3.570000,21.62
2566124,0.386008,-0.063928,0.893528,-2.940000,2.100000,-2.800000,21.64
2566135,0.372832,-0.069296,0.916952,-9.170000,0.000000,-2.660000,21.64
2566146,0.383080,-0.124928,0.968192,-11.690000,-1.470000,-2.170000,21.64
2566157,0.379176,-0.154208,1.028216,-10.920000,-2.590000,-1.680000,21.65
2566168,0.389424,-0.178608,1.045784,-7.280000,-2.870000,-1.330000,21.65
2566180,0.401624,-0.215208,1.011136,-3.150000,-2.170000,-0.070000,21.67
2566191,0.387472,-0.225456,0.984296,0.420000,-2.940000,0.770000,21.68
2566202,0.389912,-0.233752,0.972096,3.500000,-3.150000,1.820000,21.68
2566213,0.391864,-0.222040,0.955504,6.580000,-3.150000,2.590000,21.70
2566224,0.389912,-0.183488,0.926712,9.170000,-2.660000,2.940000,21.70
2566236,0.380640,-0.078080,0.908656,2.240000,-2.590000,4.270000,21.67
2566247,0.380152,-0.082472,0.887184,-6.650000,-3.850000,4.900000,21.64
2566259,0.389912,-0.158112,0.869128,-11.900000,-4.480000,4.690000,21.64
2566270,0.403576,-0.222040,0.863760,-12.460000,-5.460000,3.500000,21.66
2566281,0.433344,-0.282552,0.823256,-3.570000,-4.060000,2.590000,21.66
2566292,0.428952,-0.249856,0.826184,2.660000,-2.030000,2.450000,21.68
2566303,0.419680,-0.224480,0.848632,2.800000,-1.960000,1.750000,21.66
2566314,0.419192,-0.234240,0.892552,1.190000,-2.100000,1.540000,21.66
2566325,0.407480,-0.244488,0.947696,-0.070000,-2.450000,0.840000,21.64
2566335,0.400160,-0.247416,0.972096,0.630000,-2.940000,1.120000,21.64
2566346,0.389912,-0.228384,0.995520,-1.470000,-3.360000,0.630000,21.68
2566357,0.378688,-0.229360,1.016504,-4.410000,-4.620000,0.490000,21.64
2566369,0.378688,-0.239608,1.034560,-6.580000,-5.810000,0.280000,21.64
2566380,0.398208,-0.287920,0.994544,4.830000,-3.500000,-1.120000,21.64
2566391,0.419680,-0.314272,0.872056,18.760000,3.290000,0.070000,21.64
2566402,0.386984,-0.215696,0.801296,28.209999,4.830000,0.490000,21.67
2566413,0.381616,-0.147376,0.779824,24.430000,3.920000,0.490000,21.67
2566423,0.390400,-0.134688,0.806664,16.030001,2.660000,0.490000,21.68
2566434,0.405040,-0.133712,0.868152,4.270000,0.560000,0.280000,21.68
2566446,0.408456,-0.132736,0.933056,-6.650000,-1.610000,0.560000,21.68
2566457,0.406504,-0.163480,0.980392,-13.790000,-4.130000,0.560000,21.68
2566468,0.405528,-0.210328,1.026264,-15.190000,-5.740000,0.420000,21.68
2566479,0.399672,-0.231312,1.043832,-11.340000,-6.650000,0.490000,21.67
2566490,0.391376,-0.236192,1.030168,-1.960000,-6.720000,0.560000,21.64
2566501,0.389912,-0.209352,0.994056,11.340000,-3.710000,1.050000,21.64
2566512,0.370392,-0.151768,0.944280,18.410000,-1.890000,1.400000,21.63
2566523,0.371856,-0.153720,0.873520,23.660000,-0.840000,-0.140000,21.63
2566534,0.384544,-0.195200,0.832528,22.469999,0.350000,-0.700000,21.70
2566545,0.386984,-0.178120,0.833016,0.700000,0.350000,-1.610000,21.73
2566556,0.398696,-0.171776,0.865224,12.390000,-0.770000,-2.800000,21.73
2566567,0.418704,-0.186904,0.895480,7.280000,-0.980000,-2.870000,21.67
2566578,0.432368,-0.211792,0.874496,3.010000,-0.280000,-2.240000,21.67
2566589,0.425048,-0.228384,0.865712,1.470000,-0.420000,-0.910000,21.71
2566600,0.408456,-0.222528,0.863272,4.550000,0.630000,-0.560000,21.67
2566611,0.399672,-0.200568,0.874496,9.870000,2.450000,-0.700000,21.67
2566622,0.389912,-0.161528,0.895480,13.440000,3.850000,-1.120000,21.67
2566634,0.394792,-0.141520,0.918416,14.700000,3.780000,-1.260000,21.67
2566645,0.395280,-0.166408,0.945256,16.309999,3.500000,-2.380000,21.66
2566656,0.397720,-0.168360,0.954040,16.940001,2.870000,-2.590000,21.65
2566666,0.388448,-0.166408,0.961360,15.680000,2.100000,-2.870000,21.65
2566677,0.379664,-0.151768,0.952088,12.880000,1.050000,-2.520000,21.68
2566688,0.370392,-0.151280,0.937936,10.640000,1.260000,-1.750000,21.68
2566699,0.365512,-0.153232,0.912072,8.750000,1.120000,-1.190000,21.67
2566710,0.368928,-0.150304,0.898896,8.820000,1.330000,-0.630000,21.67
2566721,0.378688,-0.155672,0.915000,9.800000,1.750000,-0.770000,21.69
2566733,0.385032,-0.152256,0.932080,9.590000,1.540000,-0.840000,21.69
2566744,0.390400,-0.150792,0.948672,9.450000,1.120000,-0.700000,21.69
2566755,0.388448,-0.159576,0.961360,9.730000,0.560000,-0.980000,21.67
2566766,0.390888,-0.166408,0.970632,11.620000,0.210000,-1.540000,21.67
2566777,0.391864,-0.159576,0.973072,13.300000,-0.210000,-1.610000,21.66
2566788,0.380152,-0.163968,0.971608,13.720000,-0.910000,-2.170000,21.70
2566799,0.377224,-0.173240,0.952088,14.280000,-0.630000,-1.750000,21.70
2566810,0.366488,-0.177632,0.941352,17.709999,-0.490000,-1.540000,21.64
2566821,0.375272,-0.178608,0.939888,22.680000,-0.280000,-1.260000,21.64
2566832,0.383080,-0.149816,0.931592,26.110001,0.700000,-1.190000,21.66
2566843,0.385032,-0.160552,0.881816,41.299999,3.570000,-2.520000,21.63
2566855,0.368928,-0.002928,0.784704,59.080002,9.800000,-1.680000,21.63
2566866,0.351360,-0.044408,0.518256,71.680000,18.549999,0.210000,21.68
2566877,0.329888,0.173728,0.415776,40.599998,26.459999,6.090000,21.68
2566888,0.317200,0.467992,0.209352,-16.379999,26.110001,14.420000,21.68
2566898,0.310368,0.591944,0.264008,-132.160004,6.510000,13.230000,21.67
2566909,0.429440,0.252296,0.601216,-229.809998,-19.879999,4.760000,21.67
2566920,0.628056,-0.589016,1.280024,-241.850006,-36.820000,-6.440000,21.66
2566932,0.674904,-1.342000,1.864648,-140.350006,-26.670000,-8.610000,21.66
2566943,0.475800,-1.082384,1.972984,-8.050000,-13.300000,17.080000,21.65
2566954,0.297192,-0.218136,1.612840,45.639999,-10.010000,6.230000,21.66
2566966,0.309880,-0.172264,1.115568,65.660004,-3.920000,7.980000,21.66
2566976,0.277672,-0.110776,0.683688,73.500000,-6.860000,8.960000,21.70
2566987,0.240096,0.082960,0.593408,48.790001,-8.960000,7.910000,21.70
2566998,0.293776,0.056120,0.743712,11.410000,-9.100000,6.580000,21.64
2567009,0.284504,-0.082472,0.911096,-8.610000,-17.639999,6.370000,21.64
2567020,0.311832,-0.197640,1.062864,-29.400000,-17.290001,6.160000,21.65
2567031,0.303048,-0.278160,1.094096,-32.060001,-17.360001,6.020000,21.64
2567042,0.398696,-0.380152,0.992104,-3.220000,-10.360000,7.280000,21.64
2567053,0.397232,-0.248880,0.880840,-8.610000,-7.210000,6.510000,21.64
2567064,0.402112,-0.181048,0.865712,-3.710000,-5.180000,2.730000,21.64
2567075,0.472384,-0.399672,0.757376,18.340000,1.120000,-0.140000,21.66
2567087,0.488488,-0.471408,0.620248,44.939999,7.350000,-2.660000,21.69
2567098,0.414312,-0.238144,0.718824,44.380001,7.980000,-3.780000,21.69
2567109,0.381128,-0.160552,0.874496,22.680000,4.970000,-4.620000,21.68
2567120,0.388936,-0.172752,0.967216,-3.290000,1.890000,-5.670000,21.68
2567131,0.384056,-0.231800,1.019432,-16.730000,-0.700000,-5.320000,21.66
2567142,0.381616,-0.220576,1.021872,-27.370001,-2.660000,-4.550000,21.61
2567153,0.394304,-0.236680,0.999424,-25.620001,-2.450000,-4.130000,21.61
2567164,0.395768,-0.240584,0.958432,-14.350000,0.140000,-3.500000,21.65
2567175,0.397720,-0.237656,0.878888,2.590000,3.500000,-3.080000,21.65
2567186,0.395768,-0.190320,0.791048,13.580000,6.090000,-2.030000,21.64
2567197,0.363072,-0.092232,0.819352,14.000000,5.180000,-3.150000,21.68
2567208,0.376248,-0.108824,0.899872,6.370000,3.360000,-3.220000,21.68
2567219,0.379664,-0.163968,0.996496,1.610000,1.330000,-3.430000,21.67
2567230,0.376736,-0.191784,1.042368,-0.420000,0.140000,-2.660000,21.67
2567242,0.379176,-0.185440,1.048712,-2.170000,-1.190000,-1.470000,21.65
2567255,0.371856,-0.182024,1.034072,-3.780000,-2.380000,-0.210000,21.70
2567266,0.358192,-0.179584,1.016016,-5.670000,-3.990000,0.770000,21.70
2567277,0.361120,-0.202520,0.995032,-4.760000,-4.620000,1.190000,21.67
2567288,0.359168,-0.203008,0.957456,-0.070000,-4.270000,1.680000,21.67
2567299,0.355752,-0.168360,0.933544,2.800000,-4.970000,2.030000,21.67
2567310,0.370880,-0.164944,0.917440,2.730000,-5.320000,2.240000,21.66
2567321,0.375272,-0.186416,0.934032,0.490000,-6.020000,1.750000,21.66
2567332,0.381128,-0.219112,0.969168,-0.210000,-7.070000,1.330000,21.67
2567343,0.381128,-0.241560,0.995032,0.000000,-8.190000,0.700000,21.67
2567354,0.377712,-0.248880,1.027728,-0.420000,-9.310000,0.070000,21.67
2567365,0.374784,-0.265472,1.046760,-0.910000,-10.500000,-0.630000,21.69
2567377,0.376736,-0.268400,1.035536,-2.870000,-11.340000,-0.770000,21.69
2567388,0.380640,-0.274744,1.013088,-2.240000,-11.900000,-1.680000,21.68
2567399,0.396256,-0.268400,0.937936,0.910000,-8.890000,-1.540000,21.68
2567410,0.393328,-0.237168,0.851072,4.270000,-7.210000,-0.910000,21.64
2567421,0.376248,-0.193736,0.802272,9.660000,-6.370000,-0.770000,21.63
2567432,0.382592,-0.159576,0.792512,12.180000,-4.340000,-0.280000,21.63
2567443,0.387960,-0.167872,0.819352,11.760000,-4.270000,-1.680000,21.65
2567454,0.403576,-0.188368,0.874496,8.680000,-4.830000,-2.310000,21.65
2567465,0.417240,-0.197640,0.918904,3.850000,-4.970000,-2.310000,21.66
2567476,0.420656,-0.214232,0.957456,2.800000,-5.040000,-1.750000,21.66
2567487,0.421632,-0.184952,0.958920,6.020000,-3.290000,-0.490000,21.63
2567498,0.413336,-0.144936,0.912560,8.120000,-0.980000,0.910000,21.62
2567509,0.383568,-0.120536,0.869616,3.920000,-1.470000,1.470000,21.62
2567520,0.376736,-0.124440,0.845216,-1.400000,-2.590000,1.190000,21.70
2567531,0.384056,-0.179096,0.833016,-8.680000,-2.170000,0.840000,21.70
2567542,0.381128,-0.214232,0.861808,-9.450000,-2.450000,0.420000,21.66
2567553,0.407480,-0.273768,0.871080,-5.040000,-1.190000,0.000000,21.62
2567564,0.412848,-0.288408,0.906704,-0.420000,-0.280000,0.070000,21.62
2567576,0.419192,-0.271328,0.934032,5.390000,0.630000,1.050000,21.70
2567587,0.414800,-0.234240,0.940864,15.330000,1.820000,2.310000,21.70
2567597,0.390400,-0.125904,0.964776,17.780001,3.080000,3.430000,21.70
2567608,0.380640,-0.110776,0.984784,14.840000,1.120000,2.380000,21.64
2567619,0.382592,-0.148352,0.995032,13.090000,-0.700000,1.470000,21.64
2567630,0.406504,-0.235216,0.913048,17.709999,1.890000,0.560000,21.68
2567641,0.385032,-0.221552,0.863272,19.600000,2.100000,2.030000,21.68
2567652,0.369416,-0.178120,0.855952,16.799999,1.540000,1.820000,21.70
2567663,0.382592,-0.164456,0.863272,11.200000,1.750000,2.030000,21.68
2567674,0.379176,-0.150304,0.913048,10.080000,2.520000,2.100000,21.68
2567685,0.401136,-0.155672,0.954040,9.310000,1.680000,2.590000,21.66
2567696,0.403576,-0.198128,0.989664,10.850000,0.490000,2.310000,21.66
2567707,0.397720,-0.198616,1.010160,13.160000,-0.980000,1.890000,21.65
2567719,0.386496,-0.184952,1.021872,14.490000,-2.520000,1.400000,21.62
2567730,0.377712,-0.179096,1.028704,14.630000,-4.900000,0.980000,21.62
2567742,0.386984,-0.173240,1.012112,14.490000,-5.390000,0.980000,21.67
2567753,0.382592,-0.169336,0.930616,14.840000,-4.200000,1.330000,21.67
2567764,0.380640,-0.196176,0.864736,12.950000,-1.750000,2.520000,21.66
2567775,0.347944,-0.181536,0.833504,16.100000,-1.820000,3.990000,21.67
2567786,0.379176,-0.171776,0.802272,18.969999,2.730000,3.710000,21.67
2567797,0.369416,-0.169336,0.828624,25.969999,4.410000,1.680000,21.67
2567808,0.366976,-0.103456,0.851072,31.570000,5.880000,2.170000,21.67
2567819,0.361120,-0.108824,0.872056,41.020000,8.120000,-3.430000,21.68
2567831,0.345504,-0.191296,0.724680,67.339996,16.799999,-9.030000,21.68
2567845,0.320616,-0.114680,0.450912,84.279999,32.689999,-5.390000,21.68
2567856,0.281088,0.012688,-0.046360,57.400002,41.230000,1.120000,21.66
2567867,0.251808,0.329400,-0.313784,-16.520000,45.639999,12.110000,21.66
2567878,0.421144,0.447008,-0.108336,-112.699997,24.080000,14.210000,21.66
2567889,0.813008,0.123952,0.664168,-171.149994,-6.160000,8.330000,21.66
2567900,0.946232,-0.269864,1.302472,-187.179993,-21.559999,-6.440000,21.66
2567911,0.733464,-0.751520,1.767048,-143.009995,-33.250000,-10.850000,21.69
2567922,0.559736,-0.791536,1.923208,-72.449997,-40.740002,-8.470000,21.69
2567933,0.350872,-0.776408,1.980304,-28.000000,-42.000000,-20.790001,21.68
2567945,0.077104,-0.428952,1.954928,-1.050000,-35.560001,-17.639999,21.66
2567957,-0.045872,-0.335256,1.667008,6.510000,-27.020000,-12.810000,21.66
2567968,0.032208,-0.081008,1.259040,7.770000,-18.340000,-2.590000,21.66
2567980,0.218624,0.014152,0.800808,8.190000,-14.560000,-1.330000,21.66
2567991,0.377712,-0.093208,0.483608,19.040001,-8.540000,-0.280000,21.66
2568002,0.390888,-0.082472,0.437736,21.280001,-0.630000,2.380000,21.64
2568013,0.284504,-0.172752,0.729072,21.350000,-6.300000,-1.400000,21.64
2568024,0.298656,-0.287920,0.826184,19.040001,-3.430000,-1.050000,21.71
2568036,0.298656,-0.297192,0.950624,14.840000,0.280000,-1.260000,21.71
2568046,0.338672,-0.270352,0.965752,4.620000,4.130000,-1.470000,21.70
2568057,0.417728,-0.254248,0.935496,-6.930000,9.590000,-0.140000,21.65
2568068,0.430416,-0.253760,0.898408,-11.760000,8.610000,-1.890000,21.65
2568080,0.482632,-0.293776,0.873520,-6.440000,10.290000,-2.800000,21.70
2568091,0.488976,-0.277184,0.816912,5.110000,10.500000,-4.060000,21.70
2568102,0.466040,-0.227896,0.838872,11.690000,9.030000,-5.320000,21.73
2568113,0.450424,-0.237656,0.919392,35.139999,8.610000,-6.230000,21.68
2568124,0.430416,-0.207400,0.962824,22.469999,8.190000,-6.300000,21.68
2568135,0.389424,-0.171288,1.003816,17.080000,5.530000,-6.440000,21.71
2568146,0.376248,-0.184952,1.035048,10.080000,3.780000,-5.950000,21.71
2568157,0.363072,-0.198616,1.034072,6.090000,2.940000,-5.880000,21.66
2568168,0.362584,-0.175192,0.999912,1.120000,1.890000,-4.340000,21.71
2568179,0.347944,-0.153720,0.997960,-5.670000,-0.560000,-3.290000,21.71
2568191,0.358192,-0.197152,0.983320,-4.200000,-0.420000,-2.730000,21.66
2568202,0.354776,-0.197640,0.960872,-1.890000,-0.630000,-1.400000,21.66
2568213,0.335744,-0.159576,0.970632,-2.800000,-2.310000,-0.840000,21.65
2568224,0.337208,-0.148840,0.988688,-4.200000,-3.010000,-0.070000,21.66
2568235,0.331352,-0.142984,1.025776,-6.930000,-3.990000,-0.140000,21.66
2568246,0.337208,-0.167872,1.041880,-8.680000,-4.760000,0.000000,21.65
2568258,0.328912,-0.158600,1.080432,-13.440000,-6.300000,0.000000,21.65
2568273,0.338672,-0.196664,1.095560,-17.920000,-7.280000,-0.350000,21.67
2568284,0.360632,-0.223992,1.043832,-17.430000,-7.000000,-0.630000,21.67
2568296,0.411872,-0.322080,0.935496,-0.700000,-4.270000,-0.350000,21.67
2568307,0.410896,-0.333304,0.876448,11.270000,-2.030000,1.260000,21.67
2568318,0.383080,-0.273768,0.887184,14.630000,-3.780000,-0.770000,21.66
2568329,0.365512,-0.234728,0.944768,11.620000,-6.160000,-1.680000,21.66
2568340,0.351360,-0.193736,0.987712,4.830000,-7.560000,-3.010000,21.67
2568351,0.349896,-0.174216,1.008208,-0.770000,-8.680000,-3.780000,21.67
2568362,0.347456,-0.186416,1.018456,-5.810000,-9.450000,-3.920000,21.68
2568373,0.363560,-0.186416,1.003328,-5.670000,-9.030000,-4.060000,21.67
2568384,0.396744,-0.244488,0.919392,10.290000,-4.970000,-6.370000,21.67
2568395,0.435784,-0.368928,0.764208,22.610001,0.700000,-7.070000,21.68
2568406,0.420656,-0.368928,0.697840,34.860001,1.750000,-7.280000,21.68
2568417,0.406504,-0.292800,0.711016,32.970001,1.330000,-7.770000,21.68
2568428,0.397720,-0.188368,0.752008,24.080000,-0.700000,-6.930000,21.68
2568439,0.390400,-0.052704,0.835456,7.910000,-1.260000,-5.040000,21.63
2568450,0.366000,0.014640,0.926224,-9.870000,-3.920000,-3.850000,21.69
2568461,0.364536,-0.024888,0.986736,-22.750000,-7.490000,-4.270000,21.69
2568472,0.371368,-0.103456,1.049688,-26.389999,-10.780000,-5.250000,21.68
2568484,0.392840,-0.205936,1.080920,-20.230000,-12.530000,-7.700000,21.68
2568495,0.403088,-0.264008,1.078480,-6.930000,-12.390000,-8.750000,21.62
2568506,0.427000,-0.343064,0.959408,14.630000,-9.450000,-11.480000,21.63
2568517,0.427976,-0.383080,0.817400,27.580000,-0.980000,-9.730000,21.63
2568528,0.366488,-0.350872,0.738832,41.020000,1.050000,-10.290000,21.66
2568540,0.361608,-0.267912,0.717360,49.000000,4.550000,-8.610000,21.66
2568551,0.363072,-0.095648,0.779336,50.889999,6.020000,-4.690000,21.64
2568562,0.368928,0.021472,0.868152,38.500000,5.320000,-3.990000,21.70
2568573,0.386984,0.060512,0.937448,21.070000,1.120000,-3.010000,21.70
2568583,0.401136,0.005368,0.997472,10.850000,-2.520000,-3.640000,21.66
2568595,0.408944,-0.044408,1.052616,3.220000,-6.090000,-3.920000,21.66
2568606,0.424560,-0.112728,1.052616,3.290000,-8.680000,-4.410000,21.65
2568617,0.414312,-0.174704,1.032120,5.180000,-9.660000,-4.900000,21.67
2568628,0.415288,-0.221552,0.944280,13.720000,-7.910000,-6.440000,21.67
2568639,0.400160,-0.235216,0.856928,19.950001,-2.590000,-5.460000,21.66
2568650,0.357704,-0.196176,0.802760,28.840000,0.490000,-4.760000,21.66
2568661,0.359168,-0.172264,0.771528,34.160000,3.710000,-3.920000,21.68
2568672,0.375272,-0.142496,0.773480,40.180000,6.020000,-2.870000,21.69
2568683,0.389912,-0.068808,0.814472,39.410000,7.350000,-2.590000,21.69
2568694,0.402112,-0.036600,0.870592,34.160000,6.790000,-2.800000,21.73
2568705,0.410896,-0.044408,0.926712,29.680000,5.880000,-2.870000,21.73
2568715,0.422120,-0.056608,0.932568,23.799999,5.880000,-2.310000,21.67
2568726,0.405528,-0.045384,0.942816,17.430000,3.850000,-0.840000,21.67
2568737,0.393328,-0.040992,0.948672,8.820000,1.960000,-0.140000,21.68
2568748,0.379176,-0.050264,0.962824,3.500000,0.840000,0.280000,21.71
2568761,0.375272,-0.094184,0.976000,1.750000,-0.560000,-0.350000,21.71
2568772,0.370392,-0.115656,0.985272,7.070000,-0.700000,-1.190000,21.67
2568783,0.360632,-0.126880,0.984784,12.600000,-0.070000,-1.750000,21.67
2568794,0.359656,-0.142008,0.916952,16.660000,2.520000,-2.170000,21.67
2568805,0.345016,-0.207400,0.815936,32.060001,7.560000,-0.420000,21.66
2568816,0.331840,-0.192760,0.665144,48.439999,16.100000,3.080000,21.66
2568827,0.338184,-0.136640,0.480680,61.389999,26.879999,7.350000,21.68
2568838,0.339160,0.043920,0.211792,60.130001,35.840000,11.620000,21.68
2568848,0.368928,0.267912,0.089792,26.530001,40.950001,13.790000,21.66
2568860,0.482144,0.451888,0.108824,-38.150002,38.500000,15.960000,21.64
2568871,0.578768,0.295728,0.310856,-86.940002,21.700001,13.300000,21.64
2568881,0.662704,-0.043920,0.792512,-107.730003,-1.540000,-17.430000,21.68
2568893,0.628544,-0.252296,1.292712,-111.440002,-21.910000,-7.560000,21.68
2568904,0.574376,-0.346480,1.679696,-96.599998,-40.950001,-6.230000,21.68
2568915,0.494832,-0.481656,1.790472,-84.139999,-50.049999,0.700000,21.65
2568926,0.212768,-0.260104,1.947608,-53.130001,-45.990002,12.180000,21.65
2568937,0.072224,-0.304024,1.960784,-47.950001,-39.200001,15.190000,21.70
2568949,0.028304,-0.188368,1.683112,-52.290001,-31.570000,21.000000,21.70
2568960,0.135664,-0.078080,1.182912,-44.590000,-24.990000,24.080000,21.68
2568971,0.263032,0.017080,0.806176,-30.170000,-15.960000,23.309999,21.66
2568982,0.338184,-0.098576,0.525576,-2.660000,-13.650000,18.270000,21.66
2568993,0.345504,-0.173240,0.584624,26.250000,-9.520000,13.720000,21.68
2569005,0.284016,-0.282552,0.791048,52.009998,-6.370000,7.910000,21.68
2569016,0.313784,-0.298168,0.840336,62.509998,-0.980000,6.300000,21.71
2569027,0.318664,-0.256688,0.896456,42.630001,2.520000,4.900000,21.67
2569038,0.367952,-0.256688,0.884256,13.160000,4.690000,3.990000,21.67
2569048,0.408456,-0.236680,0.865712,-15.330000,6.440000,2.660000,21.70
2569059,0.405528,-0.237168,0.873032,-32.270000,5.460000,1.050000,21.70
2569070,0.458720,-0.306464,0.833504,-35.770000,7.560000,0.560000,21.67
2569081,0.448472,-0.312320,0.813008,-25.830000,7.910000,-0.140000,21.68
2569093,0.430416,-0.219112,0.866688,-22.260000,7.140000,-1.050000,21.68
2569104,0.402112,-0.210816,0.932568,-19.740000,6.370000,-1.820000,21.68
2569115,0.384056,-0.211304,0.985272,-16.100000,5.530000,-2.520000,21.68
2569126,0.380152,-0.199592,1.014552,-14.280000,5.600000,-2.590000,21.67
2569138,0.375760,-0.208376,1.013576,-10.710000,5.250000,-2.450000,21.64
2569148,0.388936,-0.209840,0.990152,-6.090000,6.160000,-2.730000,21.64
2569160,0.387472,-0.225944,0.965264,-0.350000,6.440000,-2.870000,21.65
2569170,0.389912,-0.247416,0.951600,6.160000,6.720000,-3.010000,21.65
2569181,0.351848,-0.216184,0.975512,7.490000,5.040000,-3.570000,21.70
2569192,0.325496,-0.185928,1.018944,3.850000,3.010000,-3.640000,21.70
2569204,0.300608,-0.184952,1.059936,-3.290000,0.770000,-3.430000,21.67
2569214,0.285968,-0.157624,1.104344,-13.930000,-1.470000,-3.430000,21.66
2569226,0.281576,-0.144448,1.114104,-24.430000,-2.940000,-3.780000,21.66
2569237,0.288896,-0.102968,1.098976,-34.509998,-4.970000,-3.500000,21.66
2569248,0.315248,-0.137128,1.068720,-38.709999,-6.230000,-3.640000,21.66
2569259,0.377224,-0.265960,0.997960,-24.990000,-3.850000,-3.990000,21.68
2569270,0.397232,-0.317200,0.977952,-8.960000,-3.780000,-4.410000,21.70
2569285,0.397720,-0.379664,0.990640,10.850000,-3.570000,-6.090000,21.70
2569296,0.372832,-0.350384,1.023336,20.650000,-5.670000,-7.070000,21.67
2569307,0.353800,-0.325008,1.051152,24.430000,-6.790000,-7.630000,21.68
2569318,0.358680,-0.307440,1.045784,27.160000,-6.580000,-6.720000,21.68
2569329,0.345504,-0.258152,1.002840,28.070000,-5.180000,-5.390000,21.70
2569340,0.328424,-0.158112,0.981856,24.290001,-4.760000,-3.080000,21.70
2569351,0.337696,-0.101016,0.916952,23.240000,-2.170000,-1.260000,21.73
2569362,0.361120,-0.168360,0.817888,27.090000,-0.420000,-0.560000,21.65
2569373,0.384056,-0.210328,0.724192,37.380001,-0.420000,-1.890000,21.65
2569385,0.414312,-0.258152,0.685152,42.630001,3.430000,-2.100000,21.67
2569395,0.394792,-0.215696,0.734928,43.820000,1.400000,-1.470000,21.67
2569406,0.394304,-0.142008,0.844728,41.930000,-1.260000,-0.490000,21.68
2569417,0.386496,-0.032696,0.960384,29.540001,-2.800000,0.630000,21.64
2569428,0.381616,-0.030744,1.038952,22.959999,-5.530000,0.630000,21.64
2569439,0.366000,-0.031720,1.124840,18.760000,-6.790000,1.190000,21.64
2569450,0.343552,-0.008784,1.155584,18.410000,-9.100000,1.820000,21.64
2569461,0.348920,-0.086376,1.143872,24.010000,-11.970000,-1.400000,21.68
2569472,0.372832,-0.170800,1.024312,44.520000,-10.220000,-4.550000,21.68
2569483,0.405528,-0.284992,0.833016,52.779999,-2.310000,-3.710000,21.71
2569494,0.327448,-0.185440,0.735904,49.209999,-3.500000,-1.680000,21.68
2569505,0.310856,-0.140056,0.715896,41.439999,-5.950000,-4.340000,21.68
2569516,0.342088,-0.130296,0.769088,33.950001,-5.040000,-1.890000,21.67
2569527,0.380152,-0.080032,0.836920,33.950001,-2.800000,-0.070000,21.67
2569538,0.387960,-0.012688,0.925248,33.180000,-2.100000,-0.140000,21.70
2569549,0.390400,0.002440,0.992592,28.629999,-4.480000,-0.630000,21.66
2569561,0.407968,-0.027328,1.045296,24.850000,-7.420000,-2.590000,21.66
2569573,0.396744,-0.046360,1.071648,21.629999,-10.570000,-4.130000,21.66
2569584,0.393328,-0.095648,1.049688,21.209999,-12.530000,-5.460000,21.66
2569595,0.383568,-0.103456,0.972584,19.740000,-12.880000,-5.950000,21.70
2569606,0.383080,-0.148352,0.834480,18.900000,-7.560000,-6.440000,21.68
2569617,0.356728,-0.154208,0.757376,20.440001,-3.780000,-2.660000,21.68
2569628,0.332816,-0.113704,0.741760,19.040001,-3.010000,-1.050000,21.67
2569639,0.380152,-0.078568,0.768112,18.270000,-1.820000,-1.120000,21.67
2569650,0.414800,-0.031232,0.825208,14.980000,0.420000,-0.350000,21.71
2569661,0.410408,-0.008296,0.884744,12.880000,0.280000,-1.050000,21.64
2569672,0.419192,-0.025376,0.936960,9.030000,-0.910000,-1.960000,21.64
2569683,0.425048,-0.034160,0.962824,4.690000,-1.680000,-3.570000,21.71
2569694,0.416752,-0.051728,0.961360,3.010000,-1.890000,-4.130000,21.71
2569705,0.396256,-0.071248,0.953064,2.310000,-2.240000,-4.690000,21.69
2569716,0.372832,-0.088328,0.892064,8.330000,0.420000,-5.530000,21.68
2569728,0.345992,-0.129808,0.845216,17.920000,5.250000,-3.080000,21.68
2569739,0.326960,-0.150304,0.739320,33.040001,11.200000,0.070000,21.67
2569749,0.337208,-0.150304,0.593896,58.450001,19.879999,5.250000,21.67
2569760,0.353312,-0.042944,0.416752,65.800003,32.060001,9.730000,21.64
2569771,0.374784,0.249856,0.099064,42.770000,45.990002,15.890000,21.64
2569782,0.374296,0.484584,-0.072712,-15.120000,46.759998,19.110001,21.65
2569793,0.449936,0.638304,0.054656,-107.169998,28.350000,25.270000,21.64
2569804,0.618296,0.293776,0.472384,-163.380005,-0.700000,6.790000,21.64
2569815,0.745176,-0.264984,1.231224,-178.429993,-22.540001,-11.760000,21.70
2569826,0.661240,-0.601704,1.671400,-158.479996,-35.980000,-11.200000,21.70
2569837,0.525576,-0.583648,1.890512,-117.320000,-48.720001,-2.940000,21.70
2569848,0.331840,-0.519720,1.900272,-75.389999,-52.639999,0.000000,21.70
2569859,0.150304,-0.315248,1.941752,-39.689999,-43.049999,11.340000,21.70
2569870,0.011712,-0.235704,1.837320,-36.820000,-36.750000,16.100000,21.66
2569881,-0.022448,0.016104,1.564040,-57.750000,-32.549999,21.280001,21.66
2569892,0.104432,0.038552,1.099952,-62.790001,-27.160000,21.420000,21.68
2569903,0.278160,-0.024400,0.686616,-45.500000,-23.170000,17.709999,21.70
2569914,0.369904,-0.117120,0.532408,-17.850000,-14.280000,16.309999,21.70
2569925,0.349408,-0.274256,0.523624,9.450000,-11.410000,12.460000,21.69
2569937,0.326960,-0.330376,0.673440,29.049999,-9.030000,9.870000,21.69
2569948,0.329888,-0.344040,0.857904,31.219999,-4.900000,7.560000,21.64
2569958,0.349408,-0.339160,0.920368,20.510000,-1.890000,5.740000,21.64
2569970,0.388448,-0.292312,0.925736,3.640000,0.630000,3.850000,21.66
2569980,0.429440,-0.290848,0.906704,-19.459999,1.330000,2.520000,21.68
2569991,0.452376,-0.321592,0.909632,-29.680000,1.890000,0.350000,21.68
2570003,0.531432,-0.467504,0.808128,-15.610000,6.720000,-0.980000,21.66
2570014,0.480192,-0.303536,0.792024,-2.660000,5.460000,-3.500000,21.66
2570025,0.446032,-0.256688,0.865224,-0.070000,4.970000,-4.340000,21.65
2570036,0.407968,-0.233752,0.937936,2.450000,3.430000,-5.810000,21.64
2570047,0.387472,-0.218136,0.978928,2.030000,2.870000,-6.650000,21.64
2570058,0.375272,-0.220576,0.998448,0.140000,1.260000,-6.930000,21.67
2570069,0.375760,-0.209840,1.018456,-2.380000,0.630000,-6.930000,21.67
2570080,0.382592,-0.229360,1.017480,-1.890000,1.050000,-7.350000,21.70
2570091,0.404064,-0.256688,0.974048,3.010000,2.380000,-7.210000,21.62
2570103,0.387472,-0.216672,0.955504,3.010000,1.540000,-7.210000,21.62
2570114,0.372344,-0.220576,0.961848,2.030000,1.120000,-7.210000,21.67
2570125,0.364048,-0.244488,0.955992,5.040000,0.630000,-7.280000,21.67
2570136,0.361608,-0.185440,0.947208,6.790000,0.140000,-6.720000,21.71
2570147,0.348920,-0.114680,0.938424,0.770000,-1.190000,-6.230000,21.68
2570159,0.346480,-0.122488,0.969168,-4.900000,-3.360000,-5.600000,21.68
2570170,0.345992,-0.147864,1.024800,-10.920000,-5.250000,-5.180000,21.66
2570181,0.345016,-0.178120,1.081896,-16.170000,-7.280000,-5.180000,21.66
2570192,0.362584,-0.247416,1.111664,-12.250000,-8.400000,-6.230000,21.68
2570204,0.411384,-0.365512,1.042368,4.760000,-3.780000,-5.320000,21.68
2570215,0.401136,-0.312808,0.979904,19.459999,-1.470000,-3.500000,21.68
2570226,0.385032,-0.205448,0.949160,21.420000,-2.520000,-3.150000,21.67
2570238,0.369904,-0.152256,0.955992,15.120000,-4.830000,-3.010000,21.67
2570249,0.361120,-0.136640,0.999424,4.970000,-6.930000,-3.990000,21.71
2570260,0.358680,-0.162504,1.031632,-2.450000,-9.030000,-4.340000,21.68
2570271,0.366976,-0.210816,1.057496,-4.410000,-10.080000,-4.970000,21.68
2570282,0.376248,-0.263032,1.060424,2.100000,-10.500000,-5.740000,21.68
2570293,0.418216,-0.337696,0.990640,21.629999,-7.490000,-5.600000,21.68
2570306,0.426024,-0.338672,0.915000,43.820000,-1.330000,-4.060000,21.66
2570317,0.420168,-0.268400,0.850584,58.590000,1.260000,-4.340000,21.69
2570328,0.430904,-0.219600,0.738344,63.490002,4.340000,-2.450000,21.69
2570340,0.399184,-0.043920,0.672952,59.220001,8.120000,1.820000,21.65
2570351,0.333304,0.048312,0.672464,41.720001,5.250000,-0.140000,21.70
2570362,0.369904,-0.009272,0.686616,26.530001,-0.210000,-6.230000,21.70
2570374,0.430416,-0.128344,0.720776,14.700000,1.820000,-5.950000,21.63
2570384,0.422120,-0.115656,0.805200,5.810000,-0.490000,-6.020000,21.63
2570396,0.442616,-0.246440,0.847168,-8.680000,-1.610000,-4.690000,21.65
2570407,0.442616,-0.173728,0.878400,-14.840000,-2.730000,-2.940000,21.71
2570418,0.440664,-0.168848,0.920856,-11.830000,-1.820000,-1.260000,21.71
2570429,0.434320,-0.205936,0.931592,-1.820000,0.980000,-2.240000,21.67
2570440,0.406504,-0.196664,0.955504,12.180000,3.220000,-3.570000,21.67
2570451,0.406992,-0.202032,0.933056,28.490000,5.880000,-6.160000,21.68
2570463,0.393328,-0.183976,0.902312,39.480000,9.590000,-7.280000,21.69
2570473,0.373808,-0.129320,0.819840,43.119999,14.000000,-6.020000,21.69
2570484,0.344528,-0.070272,0.815448,40.459999,15.400000,-3.010000,21.69
2570495,0.336720,-0.010248,0.829600,31.080000,13.370000,-2.450000,21.69
2570506,0.364536,-0.004392,0.869616,24.990000,13.020000,-2.310000,21.69
2570517,0.369904,-0.025376,0.926224,20.299999,12.880000,-3.290000,21.69
2570528,0.377224,-0.035136,0.969168,16.870001,11.060000,-4.060000,21.66
2570539,0.388448,-0.045384,1.016504,13.510000,8.120000,-4.410000,21.63
2570550,0.394304,-0.058560,1.033584,8.120000,6.580000,-4.410000,21.63
2570561,0.389424,-0.077104,1.011136,2.940000,4.760000,-3.360000,21.68
2570572,0.360632,-0.086376,0.976000,-1.330000,3.360000,-1.050000,21.68
2570583,0.342088,-0.104920,0.972096,-3.780000,2.590000,1.050000,21.70
2570594,0.326960,-0.122488,0.977464,-2.450000,0.560000,0.980000,21.67
2570605,0.337696,-0.141032,0.991616,2.240000,0.000000,0.000000,21.67
2570615,0.334768,-0.155184,1.002840,10.010000,-0.280000,-2.520000,21.68
2570626,0.332816,-0.155184,0.991128,22.610001,0.210000,-4.480000,21.68
2570638,0.326960,-0.179096,0.922808,41.860001,3.570000,-5.320000,21.71
2570649,0.308416,-0.169824,0.824720,65.519997,10.640000,-2.240000,21.71
2570660,0.301584,-0.015616,0.667096,67.059998,17.219999,6.230000,21.66
2570671,0.296216,0.103944,0.475800,46.480000,18.340000,10.500000,21.67
2570681,0.337696,0.240584,0.374784,7.980000,19.040001,13.510000,21.67
2570692,0.383568,0.360632,0.310368,-40.110001,16.590000,18.129999,21.67
2570703,0.484096,0.194224,0.402600,-92.889999,12.250000,12.530000,21.67
2570714,0.608536,-0.043920,0.551440,-121.940002,7.700000,12.110000,21.66
2570725,0.650504,-0.200080,0.917928,-125.790001,-8.400000,2.380000,21.66
2570736,0.612440,-0.324520,1.316624,-97.860001,-15.050000,-1.820000,21.66
2570748,0.518256,-0.412360,1.447408,-56.209999,-29.190001,4.130000,21.71
2570759,0.393328,-0.215208,1.628456,-50.680000,-46.619999,6.090000,21.71
2570770,0.271816,-0.265960,1.679696,-44.310001,-54.250000,-1.610000,21.66
2570781,0.152256,-0.342576,1.697264,-25.340000,-48.230000,5.180000,21.67
2570792,0.049776,-0.268888,1.630896,-18.270000,-39.900002,7.490000,21.67
2570803,0.019520,-0.122000,1.356152,-19.040001,-34.650002,11.970000,21.69
2570814,0.171288,-0.090768,1.048712,-16.870001,-27.160000,15.470000,21.69
2570826,0.320616,-0.107360,0.690032,-13.510000,-18.200001,14.000000,21.71
2570837,0.375760,-0.213744,0.484584,-3.500000,-14.420000,12.320000,21.65
2570848,0.374784,-0.195200,0.523624,1.260000,-12.180000,10.500000,21.65
2570860,0.360632,-0.245952,0.703696,1.610000,-11.550000,6.790000,21.66
2570871,0.362096,-0.308904,0.858880,3.780000,-8.260000,4.340000,21.66
2570881,0.372832,-0.323544,0.953552,2.730000,-3.360000,2.800000,21.73
2570893,0.403088,-0.338184,0.921832,-1.120000,1.330000,0.980000,21.66
2570904,0.446032,-0.305976,0.851072,-6.020000,4.760000,0.630000,21.66
2570915,0.473360,-0.273280,0.804224,-10.150000,6.090000,-1.330000,21.70
2570927,0.458720,-0.222528,0.813496,-10.290000,5.040000,-3.780000,21.70
2570938,0.464088,-0.275720,0.837896,-4.200000,4.340000,-4.410000,21.70
2570949,0.453352,-0.266936,0.902800,6.440000,5.320000,-5.110000,21.68
2570960,0.413824,-0.240584,0.983808,9.870000,4.900000,-5.950000,21.68
2570971,0.395768,-0.251808,1.007232,9.870000,5.950000,-5.670000,21.67
2570982,0.380640,-0.211792,0.997472,6.440000,5.180000,-5.390000,21.67
2570993,0.376736,-0.172264,0.969656,-1.190000,4.620000,-5.180000,21.65
2571004,0.362584,-0.126880,0.946720,-9.800000,3.220000,-5.040000,21.70
2571015,0.384544,-0.187392,0.933544,-8.540000,2.800000,-4.900000,21.70
2571026,0.365024,-0.182024,0.953064,-6.090000,1.960000,-5.110000,21.66
2571037,0.350872,-0.179584,0.986248,-4.620000,1.960000,-4.900000,21.66
2571049,0.341112,-0.179096,1.016504,-3.640000,1.750000,-4.760000,21.67
2571060,0.328424,-0.173728,1.046760,-4.480000,1.050000,-4.270000,21.67
2571071,0.329400,-0.201544,1.092632,-5.320000,0.210000,-4.410000,21.67
2571082,0.349408,-0.236680,1.037488,-2.100000,1.540000,-3.990000,21.64
2571093,0.353312,-0.123952,0.966240,-7.280000,1.820000,-2.870000,21.64
2571104,0.342088,-0.026352,0.933544,-23.379999,-0.840000,-2.940000,21.68
2571115,0.370392,-0.132248,0.925736,-29.750000,-2.030000,-2.800000,21.68
2571126,0.395768,-0.299144,0.911584,-16.030001,-1.610000,-4.550000,21.68
2571137,0.408456,-0.354776,0.938912,0.770000,-1.190000,-4.690000,21.68
2571148,0.369904,-0.294752,1.005768,7.700000,-3.570000,-5.880000,21.68
2571160,0.358192,-0.284016,1.072624,6.860000,-5.740000,-6.020000,21.69
2571171,0.361120,-0.304512,1.125328,5.880000,-6.440000,-5.810000,21.69
2571182,0.362584,-0.301096,1.025776,11.620000,-3.150000,-4.830000,21.72
2571193,0.370392,-0.168848,0.855952,13.440000,2.240000,-0.980000,21.68
2571204,0.322080,0.080520,0.781288,-6.860000,0.770000,1.750000,21.68
2571215,0.322080,0.059048,0.778360,-25.270000,-6.230000,1.610000,21.68
2571226,0.398696,-0.130784,0.837896,-30.240000,-6.510000,0.280000,21.68
2571237,0.445056,-0.312808,0.894016,-16.170000,-6.720000,-2.310000,21.63
2571248,0.448960,-0.396744,0.973072,-0.560000,-6.090000,-5.180000,21.68
2571260,0.423096,-0.389424,1.067744,14.350000,-6.160000,-5.950000,21.68
2571271,0.411384,-0.386984,1.125328,27.020000,-5.740000,-6.020000,21.67
2571282,0.393328,-0.386984,1.126792,38.290001,-4.130000,-5.320000,21.67
2571293,0.371856,-0.309880,1.102392,47.950001,-2.380000,-3.360000,21.69
2571304,0.374784,-0.193736,1.001864,54.250000,2.100000,0.000000,21.67
2571319,0.301096,0.049288,0.864736,43.540001,2.730000,5.040000,21.67
2571330,0.300608,0.014640,0.717848,28.840000,-2.800000,0.490000,21.69
2571341,0.326472,-0.126880,0.632936,19.389999,-3.640000,0.210000,21.64
2571352,0.352336,-0.199104,0.624640,15.400000,-3.710000,-0.770000,21.64
2571363,0.411872,-0.193736,0.676856,12.390000,-2.380000,-3.570000,21.67
2571374,0.442616,-0.160064,0.782752,9.100000,-0.140000,-2.240000,21.67
2571385,0.450912,-0.147864,0.899384,6.370000,-0.490000,-2.450000,21.66
2571396,0.452376,-0.161040,0.983320,9.240000,0.350000,-1.330000,21.70
2571407,0.439688,-0.185440,1.024312,20.650000,1.820000,-1.680000,21.70
2571418,0.432368,-0.163968,1.030168,26.879999,2.450000,-1.470000,21.68
2571429,0.409920,-0.178608,0.976000,27.370001,2.520000,-1.470000,21.68
2571440,0.373320,-0.169336,0.903288,28.139999,2.660000,-1.820000,21.69
2571451,0.362584,-0.190320,0.810080,29.889999,6.160000,0.000000,21.69
2571462,0.313296,-0.180560,0.784216,34.860001,7.350000,0.910000,21.66
2571473,0.353312,-0.063440,0.803736,30.660000,7.840000,6.230000,21.66
2571483,0.361608,-0.014152,0.826184,22.680000,9.030000,3.500000,21.66
2571494,0.373808,-0.035624,0.892552,15.400000,8.540000,2.870000,21.67
2571505,0.409432,-0.061488,0.947696,14.980000,7.350000,3.780000,21.67
2571516,0.401136,-0.117120,1.018944,18.059999,5.600000,1.330000,21.66
2571527,0.407480,-0.131760,1.073112,22.469999,4.270000,0.210000,21.64
2571538,0.395280,-0.115656,1.070184,17.500000,3.570000,0.770000,21.64
2571549,0.334768,-0.130296,1.030656,22.049999,1.960000,-1.680000,21.64
2571560,0.324032,-0.136640,0.960872,24.500000,3.710000,-1.610000,21.64
2571571,0.263032,-0.151280,0.813984,33.250000,10.500000,-1.680000,21.68
2571582,0.183488,-0.211792,0.561688,56.630001,18.969999,1.610000,21.68
2571592,0.206424,-0.209352,0.141032,80.570000,31.920000,4.690000,21.70
2571603,0.232288,0.098088,-0.273280,47.669998,46.689999,7.560000,21.68
2571614,0.366488,0.297192,-0.514352,-0.350000,47.459999,18.690001,21.68
2571625,0.549488,0.270352,0.066368,-79.309998,27.930000,20.440001,21.67
2571636,0.848632,0.414800,0.955504,-171.429993,-9.590000,17.780001,21.67
2571647,0.936472,-0.171776,1.929064,-216.369995,-54.880001,-5.180000,21.68
2571658,0.746640,-0.790560,2.279448,-185.289993,-63.910000,-3.570000,21.64
2571669,0.360144,-1.022360,2.384856,-110.599998,-61.459999,-20.230000,21.64
2571680,0.207888,-0.818376,2.234552,-41.790001,-64.400002,-28.770000,21.68
2571692,-0.088328,-0.441152,2.096448,-31.430000,-54.740002,-23.170000,21.68
2571703,-0.059536,-0.262056,1.677256,-34.790001,-45.290001,-14.210000,21.66
2571715,0.089304,0.067832,1.072136,-42.000000,-42.419998,-10.920000,21.70
2571726,0.306464,-0.005368,0.546072,-36.610001,-38.500000,-12.110000,21.70
2571737,0.389424,-0.151280,0.382104,0.070000,-32.970001,-15.750000,21.71
2571748,0.350872,-0.271328,0.431880,46.060001,-25.410000,-14.280000,21.71
2571759,0.300120,-0.195200,0.649528,64.540001,-20.160000,-14.980000,21.71
2571770,0.282064,-0.163480,0.822768,55.160000,-14.910000,-13.370000,21.73
2571781,0.300120,-0.180072,0.843264,29.540001,-11.620000,-11.830000,21.73
2571792,0.390888,-0.190808,0.798856,1.610000,-4.550000,-10.080000,21.69
2571803,0.412360,-0.164456,0.757864,-17.780001,-3.150000,-9.660000,21.69
2571814,0.483120,-0.232776,0.719800,-24.780001,17.290001,-8.260000,21.69
2571826,0.505080,-0.221064,0.703208,-18.760000,1.890000,-7.210000,21.67
2571836,0.488000,-0.146888,0.754936,-14.910000,1.540000,-6.650000,21.67
2571847,0.477752,-0.147864,0.850096,-11.550000,2.660000,-5.320000,21.69
2571859,0.478728,-0.198128,0.889136,-1.890000,3.990000,-4.620000,21.69
2571870,0.476776,-0.162504,0.911096,4.130000,5.040000,-3.780000,21.70
2571881,0.471896,-0.149328,0.932568,5.810000,4.550000,-2.730000,21.70
2571892,0.485560,-0.206424,0.952088,10.710000,5.180000,-2.800000,21.66
2571903,0.500688,-0.215696,0.905240,21.559999,6.580000,-1.050000,21.64
2571914,0.452864,-0.158600,0.902312,20.090000,4.060000,-0.980000,21.64
2571924,0.440176,-0.170800,0.935496,15.820000,3.500000,-0.070000,21.66
2571935,0.426024,-0.159088,0.933056,11.690000,2.730000,1.330000,21.66
2571946,0.392840,-0.130784,0.947696,1.890000,0.280000,1.400000,21.70
2571957,0.385032,-0.152744,0.970144,-4.200000,-1.050000,2.100000,21.69
2571968,0.367464,-0.144448,0.992104,-10.780000,-2.100000,2.590000,21.69
2571979,0.363560,-0.150792,0.989664,-14.700000,-2.380000,2.940000,21.67
2571990,0.373320,-0.183976,0.954528,-12.530000,-1.540000,3.220000,21.67
2572001,0.377224,-0.194224,0.916952,-7.980000,-1.120000,3.080000,21.66
2572012,0.395768,-0.225944,0.881816,1.050000,0.980000,3.990000,21.66
2572023,0.362584,-0.165432,0.897920,2.800000,0.280000,3.640000,21.66
2572034,0.360144,-0.163968,0.946232,-0.490000,-0.840000,3.500000,21.70
2572045,0.358192,-0.182512,0.990640,-5.880000,-2.030000,3.570000,21.70
2572056,0.366976,-0.191296,1.034072,-13.020000,-3.780000,3.570000,21.67
2572067,0.366488,-0.195688,1.084824,-22.260000,-5.950000,3.430000,21.67
2572078,0.367952,-0.205936,1.105320,-29.610001,-7.700000,3.570000,21.68
2572089,0.370880,-0.241072,1.103368,-34.930000,-9.170000,2.380000,21.69
2572100,0.443592,-0.367464,0.995032,-19.670000,-6.370000,2.310000,21.69
2572112,0.449448,-0.327936,0.903776,-7.070000,-4.060000,4.620000,21.68
2572123,0.425536,-0.246928,0.857904,-5.390000,-5.880000,4.830000,21.68
2572134,0.421144,-0.217648,0.885232,-8.540000,-7.490000,6.090000,21.66
2572145,0.402600,-0.197152,0.946232,-14.770000,-9.310000,6.440000,21.68
2572156,0.392840,-0.184952,1.006256,-23.030001,-12.180000,6.650000,21.68
2572167,0.392840,-0.197152,1.063352,-28.420000,-14.000000,6.160000,21.71
2572178,0.400648,-0.240096,1.058472,-29.959999,-12.740000,5.810000,21.71
2572189,0.398696,-0.254248,1.050664,-27.510000,-13.090000,6.020000,21.66
2572200,0.442616,-0.325008,0.951112,-12.950000,-7.910000,7.000000,21.69
2572211,0.416264,-0.301584,0.832528,-3.220000,-4.340000,9.450000,21.69
2572223,0.398696,-0.209352,0.717360,1.540000,-4.830000,9.590000,21.70
2572233,0.422608,-0.215696,0.680272,0.280000,-6.020000,9.240000,21.70
2572244,0.434808,-0.245952,0.716872,4.760000,-5.810000,9.310000,21.71
2572255,0.457256,-0.260104,0.776896,11.690000,-5.320000,7.210000,21.66
2572266,0.453352,-0.253272,0.839360,19.250000,-4.130000,5.110000,21.66
2572277,0.452864,-0.264984,0.854488,22.540001,-2.590000,3.640000,21.66
2572289,0.453352,-0.280112,0.840336,19.950001,-0.280000,4.340000,21.66
2572300,0.422120,-0.278648,0.853024,19.389999,0.420000,6.790000,21.70
2572310,0.431392,-0.312808,0.846192,21.980000,-1.330000,4.690000,21.71
2572321,0.440176,-0.302560,0.780312,39.759998,5.530000,3.640000,21.71
2572337,0.486536,-0.320128,0.814472,48.299999,6.020000,9.310000,21.69
2572347,0.437248,-0.272792,0.783240,59.290001,12.460000,4.690000,21.67
2572359,0.418216,-0.264008,0.775432,71.610001,14.560000,0.350000,21.67
2572369,0.419192,-0.224480,0.792512,79.660004,16.799999,-3.920000,21.69
2572380,0.427000,-0.188368,0.720776,82.529999,23.379999,-6.510000,21.69
2572392,0.398696,-0.103944,0.720288,68.110001,28.490000,-2.520000,21.66
2572402,0.326472,-0.032208,0.720288,51.380001,25.969999,1.190000,21.66
2572413,0.328424,-0.027816,0.770064,27.719999,21.980000,1.400000,21.64
2572424,0.363072,-0.066368,0.822768,14.280000,21.350000,-0.280000,21.68
2572435,0.387472,-0.103944,0.908656,8.120000,19.600000,-1.260000,21.68
2572446,0.386496,-0.249856,0.986248,7.210000,16.100000,-3.220000,21.71
2572457,0.416752,-0.173728,1.065792,4.480000,11.270000,-3.920000,21.71
2572468,0.383568,-0.191784,0.981856,6.510000,13.230000,-5.390000,21.69
2572479,0.272304,-0.266448,0.940376,43.119999,16.170000,-7.840000,21.66
2572491,0.250344,-0.195200,0.718824,52.919998,17.219999,-4.410000,21.66
2572502,0.290360,-0.187880,0.406504,58.590000,22.469999,-3.430000,21.70
2572513,0.385032,-0.027816,0.158600,36.119999,29.959999,5.670000,21.70
2572524,0.405040,0.308904,0.127856,-4.130000,25.969999,14.070000,21.67
2572534,0.511912,0.297192,0.534360,-86.800003,3.850000,9.030000,21.62
2572545,0.845704,0.317200,1.085312,-187.529999,-25.200001,5.950000,21.62
2572556,0.907192,-0.290848,1.540128,-263.549988,-39.060001,-17.709999,21.65
2572567,0.604144,-0.904264,1.873432,-232.539993,-68.320000,-38.009998,21.65
2572578,0.515328,-1.256600,1.922720,-121.029999,-70.699997,-27.440001,21.70
2572590,0.291336,-1.121424,1.974936,-6.860000,-59.009998,-33.529999,21.67
2572601,-0.045872,-0.450424,1.851472,36.470001,-51.869999,-28.070000,21.67
2572612,-0.173240,0.039528,1.681160,21.490000,-52.500000,-22.959999,21.69
2572623,-0.005368,0.056608,1.264408,-1.680000,-50.259998,-20.090000,21.69
2572634,0.201544,-0.040016,0.856928,10.430000,-36.820000,-12.530000,21.68
2572645,0.312808,0.043432,0.461648,21.420000,-27.790001,-10.080000,21.68
2572656,0.362096,-0.032208,0.300608,25.690001,-21.000000,-7.280000,21.68
2572667,0.386984,-0.211792,0.297680,47.250000,-16.240000,-7.070000,21.71
2572678,0.366976,-0.149816,0.428464,49.279999,-8.750000,-3.500000,21.71
2572689,0.316224,-0.178608,0.634888,33.880001,-9.590000,-2.730000,21.68
2572700,0.354776,-0.199592,0.805688,9.380000,-4.270000,-1.400000,21.68
2572711,0.392352,-0.257176,0.840336,-2.870000,0.840000,-0.840000,21.68
2572722,0.467504,-0.177632,0.790072,-13.370000,6.090000,1.890000,21.69
2572733,0.506056,-0.149328,0.760304,-32.060001,7.000000,3.500000,21.69
2572744,0.512400,-0.198616,0.792024,-43.330002,5.040000,3.080000,21.70
2572755,0.530944,-0.270352,0.864736,-43.049999,4.550000,3.150000,21.70
2572766,0.533384,-0.295240,0.904264,-35.560001,4.550000,2.450000,21.66
2572777,0.555832,-0.336232,0.903776,-20.790001,6.510000,1.750000,21.68
2572788,0.565592,-0.311344,0.846192,-7.210000,9.660000,2.800000,21.68
2572798,0.545096,-0.250832,0.815936,2.660000,9.030000,2.100000,21.66
2572809,0.527528,-0.242536,0.824720,8.540000,9.100000,1.400000,21.66
2572820,0.493856,-0.236680,0.865712,8.330000,7.420000,0.140000,21.65
2572831,0.460184,-0.271328,0.924760,8.470000,5.740000,-0.280000,21.65
2572842,0.438224,-0.297680,0.969168,11.830000,5.040000,-1.050000,21.65
2572852,0.427000,-0.246440,0.980392,10.570000,4.900000,-0.770000,21.66
2572863,0.393816,-0.223016,0.978440,2.870000,3.710000,-0.700000,21.66
2572874,0.385520,-0.238632,0.976488,-3.150000,2.450000,-0.490000,21.71
2572885,0.378200,-0.264008,0.968192,-2.800000,2.310000,-0.700000,21.71
2572897,0.369904,-0.258640,0.951112,0.560000,2.100000,-0.280000,21.67
2572908,0.356240,-0.223504,0.960384,1.190000,1.610000,0.280000,21.66
2572919,0.355264,-0.240584,0.949648,1.470000,2.240000,0.490000,21.66
2572930,0.363560,-0.255224,0.911584,2.730000,1.260000,0.630000,21.61
2572940,0.362584,-0.214232,0.914024,1.330000,0.420000,1.330000,21.61
2572951,0.378200,-0.200568,0.932080,-2.100000,-0.700000,1.540000,21.73
2572962,0.385032,-0.202032,0.964288,-6.160000,-1.470000,1.820000,21.73
2572973,0.390888,-0.216672,1.002840,-12.180000,-3.290000,1.890000,21.70
2572984,0.400648,-0.245952,1.040904,-16.940001,-4.830000,2.310000,21.66
2572995,0.403576,-0.259128,1.080920,-19.670000,-6.230000,2.310000,21.66
2573006,0.409432,-0.285968,1.100440,-19.040001,-6.790000,1.820000,21.67
2573017,0.462624,-0.380640,0.882304,3.430000,-0.490000,0.630000,21.67
2573028,0.470432,-0.351848,0.808128,22.049999,5.810000,5.110000,21.67
2573039,0.439200,-0.160552,0.649040,26.670000,5.670000,6.090000,21.69
2573050,0.431880,-0.139568,0.599752,15.540000,2.940000,6.230000,21.69
2573061,0.431392,-0.168360,0.653432,6.160000,1.330000,5.600000,21.69
2573072,0.428464,-0.218136,0.785680,0.210000,0.490000,4.060000,21.69
2573083,0.416264,-0.247904,0.923296,-3.640000,-0.630000,3.850000,21.71
2573094,0.410408,-0.274256,1.015040,-7.910000,-3.080000,3.360000,21.71
2573105,0.412848,-0.314272,1.101416,-11.480000,-4.410000,3.220000,21.68
2573116,0.402112,-0.337696,1.156560,-13.160000,-6.020000,3.010000,21.70
2573127,0.402112,-0.361120,1.136064,-11.830000,-5.460000,4.060000,21.70
2573138,0.406504,-0.384544,1.016992,-3.780000,-2.030000,5.180000,21.64
2573150,0.403576,-0.384056,0.894016,14.770000,2.660000,6.510000,21.64
2573161,0.375760,-0.270840,0.782264,26.600000,4.340000,7.140000,21.68
2573172,0.365024,-0.140544,0.773480,29.260000,4.060000,8.120000,21.64
2573182,0.363560,-0.086864,0.822280,15.190000,1.050000,6.860000,21.64
2573193,0.374784,-0.080032,0.880352,-2.310000,-3.990000,4.900000,21.68
2573204,0.402600,-0.186904,0.913536,-19.740000,-5.880000,2.940000,21.68
2573215,0.435784,-0.312320,0.874496,-22.120001,-7.070000,1.400000,21.69
2573226,0.475800,-0.503128,0.773968,-9.310000,0.280000,0.840000,21.66
2573237,0.437248,-0.477752,0.697352,2.310000,4.340000,5.320000,21.66
2573248,0.415776,-0.403576,0.633912,16.100000,7.490000,5.390000,21.66
2573259,0.422608,-0.284504,0.629032,25.620001,13.650000,8.680000,21.66
2573270,0.415776,-0.185928,0.670512,31.990000,17.850000,8.890000,21.66
2573281,0.421632,-0.130296,0.809104,41.790001,19.530001,7.770000,21.70
2573292,0.448960,-0.106384,0.921832,31.850000,16.379999,10.780000,21.70
2573303,0.406992,-0.018056,1.029680,18.620001,12.950000,8.330000,21.69
2573314,0.418216,-0.057584,1.099952,1.750000,7.630000,8.050000,21.69
2573324,0.414800,-0.158112,1.131672,-6.440000,2.660000,6.860000,21.73
2573335,0.393328,-0.236192,1.133624,-7.140000,-1.680000,5.670000,21.73
2573352,0.396744,-0.296704,1.047248,-5.950000,-4.270000,4.130000,21.69
2573363,0.381616,-0.378688,0.881816,-2.170000,-1.050000,4.480000,21.69
2573374,0.318176,-0.358680,0.774456,2.450000,0.490000,6.300000,21.63
2573385,0.304024,-0.331352,0.746152,5.460000,0.420000,6.160000,21.63
2573396,0.323544,-0.280600,0.770064,5.040000,2.870000,7.140000,21.70
2573407,0.350384,-0.262544,0.829600,5.530000,5.180000,6.230000,21.70
2573418,0.365512,-0.245952,0.906216,9.800000,6.440000,5.810000,21.67
2573429,0.386496,-0.256200,0.962824,14.350000,6.160000,4.200000,21.67
2573441,0.385032,-0.264008,1.011624,20.510000,4.480000,1.400000,21.64
2573453,0.388936,-0.233752,1.051640,21.209999,2.240000,0.140000,21.64
2573465,0.380640,-0.198128,1.060424,16.590000,-0.980000,-0.910000,21.64
2573476,0.364536,-0.208864,1.061888,11.970000,-3.640000,-1.750000,21.69
2573488,0.355752,-0.215696,1.040904,8.400000,-5.180000,-2.450000,21.69
2573499,0.350872,-0.222528,0.944768,4.130000,-4.480000,-2.730000,21.69
2573510,0.347456,-0.251808,0.836432,-6.160000,-2.030000,1.890000,21.70
2573521,0.297192,-0.259128,0.771040,-14.490000,-4.340000,4.550000,21.70
2573532,0.338672,-0.282552,0.770552,-16.799999,-5.530000,4.410000,21.68
2573543,0.382592,-0.287432,0.817400,-14.630000,-3.500000,2.170000,21.64
2573554,0.400648,-0.300120,0.882304,-5.880000,-3.430000,-0.420000,21.64
2573565,0.421632,-0.327936,0.865224,12.530000,-0.210000,-3.500000,21.67
2573576,0.373320,-0.332816,0.800808,41.369999,7.630000,-10.010000,21.67
2573587,0.349896,-0.209840,0.696376,61.180000,12.740000,-9.450000,21.69
2573598,0.339648,-0.074664,0.489464,65.309998,17.920000,-9.870000,21.66
2573609,0.376248,-0.005368,0.388448,50.049999,18.410000,-7.420000,21.66
2573620,0.437736,0.066856,0.392352,7.980000,15.470000,-1.260000,21.65
2573630,0.561200,0.020008,0.446520,-24.780001,10.500000,-1.330000,21.65
2573641,0.682712,-0.191784,0.519232,-30.240000,7.280000,1.610000,21.72
2573652,0.688080,-0.295240,0.853512,-9.730000,-7.070000,6.370000,21.72
2573663,0.617808,-0.239120,1.186328,21.209999,-31.219999,5.390000,21.70
2573674,0.509960,-0.051240,1.634312,21.910000,-45.360001,-6.510000,21.64
2573685,0.347944,-0.246928,2.013488,4.690000,-44.029999,-16.799999,21.64
2573697,0.068320,-0.582672,1.971520,9.450000,-45.779999,-19.389999,21.69
2573708,-0.035624,-0.619760,1.815360,31.570000,-37.730000,-14.840000,21.69
2573719,0.025376,-0.355752,1.452288,31.080000,-23.100000,-4.130000,21.68
2573730,0.182024,-0.043920,1.064816,2.590000,-16.940001,0.210000,21.68
2573743,0.357216,0.050264,0.536312,0.770000,-12.880000,0.140000,21.68
2573753,0.373320,-0.002928,0.436272,-4.690000,-14.000000,-0.490000,21.66
2573765,0.342088,-0.111752,0.548512,2.730000,-14.560000,-1.750000,21.66
2573775,0.330376,-0.164456,0.733464,10.150000,-12.320000,-1.050000,21.66
2573786,0.346480,-0.210328,0.823256,9.170000,-6.580000,-0.700000,21.68
2573798,0.383080,-0.217648,0.854976,2.170000,0.350000,0.420000,21.68
2573808,0.414800,-0.221064,0.857904,-10.220000,3.430000,1.260000,21.67
2573819,0.442128,-0.220088,0.874984,-20.090000,4.200000,0.770000,21.67
2573830,0.505568,-0.301584,0.839848,-13.440000,7.420000,0.490000,21.65
2573841,0.507520,-0.231800,0.798856,-6.650000,7.770000,-0.210000,21.64
2573852,0.504104,-0.187880,0.826672,-6.790000,5.950000,-1.120000,21.64
2573863,0.481168,-0.196664,0.881328,-7.560000,5.810000,-1.190000,21.67
2573875,0.435784,-0.207888,0.959896,-6.650000,3.570000,-2.520000,21.67
2573886,0.414312,-0.223504,1.010648,-5.180000,3.500000,-3.010000,21.71
2573897,0.401624,-0.242536,0.993080,1.050000,4.480000,-3.920000,21.67
2573908,0.403576,-0.234240,0.951112,7.980000,6.090000,-4.410000,21.67
2573919,0.401624,-0.212280,0.909632,12.040000,6.860000,-3.710000,21.68
2573930,0.402600,-0.197640,0.890112,12.110000,6.370000,-2.660000,21.68
2573941,0.383568,-0.159576,0.916952,7.000000,4.620000,-2.450000,21.70
2573952,0.350384,-0.137616,0.963800,-1.680000,1.960000,-2.380000,21.68
2573963,0.330864,-0.153232,1.030656,-7.420000,-0.070000,-2.100000,21.68
2573974,0.317200,-0.154696,1.097024,-15.750000,-1.680000,-2.030000,21.67
2573986,0.318176,-0.167384,1.125328,-23.170000,-3.360000,-2.590000,21.67
2573997,0.349408,-0.216672,1.122888,-23.170000,-4.270000,-3.920000,21.69
2574008,0.424560,-0.342088,1.000400,-9.310000,-0.210000,-4.550000,21.69
2574019,0.427488,-0.257664,0.842776,-0.070000,1.400000,-1.890000,21.66
2574030,0.400648,-0.224480,0.786656,1.610000,-0.700000,-0.280000,21.69
2574041,0.383568,-0.150304,0.840336,-0.910000,-1.540000,1.610000,21.69
2574052,0.361608,-0.062952,0.911584,-11.900000,-3.850000,1.470000,21.64
2574063,0.351360,-0.085888,1.000888,-22.049999,-6.510000,1.960000,21.64
2574075,0.349408,-0.147376,1.077992,-30.660000,-8.330000,2.240000,21.70
2574086,0.350872,-0.191784,1.145824,-33.950001,-9.940000,1.610000,21.66
2574097,0.369416,-0.238144,1.147776,-32.480000,-10.360000,1.610000,21.66
2574108,0.422608,-0.369904,1.082872,-21.980000,-9.030000,0.630000,21.70
2574119,0.482632,-0.539240,0.904752,13.230000,-3.220000,1.330000,21.70
2574130,0.477264,-0.491416,0.754936,39.900002,5.880000,4.200000,21.66
2574141,0.425536,-0.322568,0.589504,54.110001,10.080000,5.180000,21.64
2574152,0.351360,0.030744,0.534360,39.480000,8.540000,8.890000,21.64
2574163,0.299632,0.206912,0.642208,-2.590000,2.800000,11.200000,21.68
2574173,0.327936,0.179584,0.774944,-40.459999,-3.710000,11.830000,21.68
2574184,0.372832,0.008296,0.930128,-61.459999,-5.670000,12.110000,21.70
2574195,0.403088,-0.133712,1.032608,-68.459999,-7.840000,9.310000,21.67
2574206,0.422120,-0.288408,1.084336,-60.549999,-8.680000,6.930000,21.67
2574217,0.426512,-0.387472,1.133136,-46.689999,-9.100000,5.180000,21.71
2574228,0.439200,-0.430416,1.117032,-27.580000,-7.980000,4.480000,21.71
2574239,0.435784,-0.487512,1.068720,-4.900000,-6.650000,3.010000,21.68
2574250,0.421632,-0.496784,1.048224,18.760000,-3.290000,2.380000,21.68
2574262,0.387472,-0.433832,1.014552,33.529999,-2.380000,1.470000,21.66
2574272,0.393328,-0.426024,0.875960,53.970001,0.210000,0.490000,21.70
2574283,0.391864,-0.357704,0.778848,53.130001,5.390000,4.480000,21.70
2574294,0.351360,-0.249368,0.599752,55.790001,4.200000,5.460000,21.66
2574306,0.328424,-0.132736,0.607072,39.480000,1.470000,9.940000,21.66
2574317,0.301584,0.021472,0.629032,14.560000,4.900000,12.110000,21.66
2574328,0.320616,-0.006344,0.688568,-1.820000,4.060000,9.590000,21.69
2574338,0.361120,-0.158600,0.793488,-0.910000,5.880000,4.620000,21.69
2574349,0.407480,-0.311344,0.908168,19.320000,10.640000,-16.450001,21.67
2574363,0.442128,-0.339648,1.049200,43.750000,12.320000,-9.660000,21.66
2574374,0.475312,-0.351848,1.116544,58.660000,11.270000,-13.580000,21.66
2574385,0.483608,-0.394304,1.138016,69.230003,9.380000,-18.129999,21.68
2574396,0.448960,-0.338672,1.069208,78.610001,9.870000,-19.110001,21.68
2574407,0.389912,-0.242048,0.875472,75.040001,7.980000,-17.920000,21.70
2574418,0.342576,-0.147864,0.888160,65.449997,6.020000,-15.190000,21.70
2574429,0.332816,-0.101504,0.815936,44.029999,6.090000,-9.730000,21.73
2574440,0.287920,-0.061000,0.795928,22.680000,5.250000,-6.300000,21.68
2574451,0.284016,-0.074176,0.813496,9.030000,3.360000,-5.810000,21.68
2574462,0.309392,-0.093208,0.858880,2.800000,2.800000,-6.160000,21.69
2574473,0.342576,-0.127368,0.903776,3.920000,3.780000,-9.100000,21.69
2574484,0.362584,-0.199592,0.931592,14.280000,4.830000,-13.930000,21.68
2574495,0.370392,-0.205448,0.953064,22.820000,6.020000,-15.330000,21.67
2574507,0.372344,-0.139080,0.969656,28.490000,4.760000,-16.100000,21.67
2574519,0.387472,-0.059048,0.972584,23.030001,3.220000,-14.350000,21.68
2574531,0.376248,-0.028304,0.973560,14.630000,1.610000,-10.640000,21.68
2574542,0.348920,-0.012688,0.971120,13.230000,0.000000,-9.240000,21.68
2574553,0.333792,-0.012688,0.983808,15.120000,-0.910000,-9.100000,21.68
2574564,0.332816,-0.015616,0.955504,18.200001,-1.190000,-10.010000,21.68
2574576,0.331840,-0.083936,0.844240,33.880001,2.730000,-10.570000,21.70
2574587,0.331352,-0.075152,0.710528,43.259998,10.710000,-7.630000,21.71
2574598,0.325984,-0.055144,0.569496,45.709999,14.280000,-5.250000,21.71
2574608,0.369904,0.013664,0.425536,34.369999,18.760000,0.140000,21.66
2574619,0.396744,0.141520,0.369416,2.870000,22.680000,5.670000,21.66
2574630,0.484096,0.213744,0.408944,-25.059999,19.879999,8.750000,21.70
2574642,0.602680,0.149816,0.464576,-73.849998,11.130000,13.090000,21.70
2574653,0.615368,0.058072,0.718824,-84.839996,-11.410000,7.490000,21.65
2574664,0.614880,-0.229848,0.986248,-53.200001,-29.049999,-0.700000,21.73
2574676,0.663680,-0.424560,1.544520,-14.560000,-43.470001,9.590000,21.73
2574687,0.489952,-0.625616,1.976400,53.689999,-45.779999,1.330000,21.71
2574698,0.131760,-0.287432,2.135976,79.519997,-42.630001,4.760000,21.71
2574709,-0.199104,0.042456,2.188192,57.189999,-37.939999,13.790000,21.66
2574720,-0.196176,0.100040,1.797304,10.780000,-28.350000,13.020000,21.72
2574731,0.077592,0.040504,1.323944,17.150000,-24.010000,11.200000,21.72
2574742,0.398696,-0.036112,0.721264,12.390000,-19.950001,12.390000,21.70
2574753,0.406992,0.001464,0.499712,31.709999,-22.190001,8.120000,21.70
2574764,0.328912,0.008296,0.588528,39.970001,-20.160000,6.020000,21.71
2574775,0.278648,-0.071736,0.770064,36.470001,-21.000000,2.800000,21.66
2574787,0.340624,-0.120536,0.874008,25.200001,-14.140000,2.590000,21.66
2574798,0.352336,-0.123952,0.885720,4.480000,-11.900000,0.910000,21.70
2574809,0.386008,-0.109800,0.880840,-15.610000,-7.980000,1.050000,21.70
2574820,0.406504,-0.099064,0.875472,-29.190001,-6.230000,-0.980000,21.71
2574831,0.481168,-0.150304,0.778848,-28.350000,-3.430000,-0.840000,21.68
2574843,0.471408,-0.111264,0.767624,-28.000000,-5.180000,-3.150000,21.68
2574854,0.477752,-0.117120,0.835944,-25.690001,-3.990000,-3.290000,21.64
2574865,0.453352,-0.119560,0.906216,-23.660000,-3.570000,-3.640000,21.64
2574876,0.447008,-0.114680,0.928664,-22.190001,-2.170000,-3.080000,21.71
2574887,0.435784,-0.098088,0.936472,-20.719999,-1.820000,-2.800000,21.68
2574899,0.416752,-0.083936,0.954528,-21.840000,-2.240000,-2.870000,21.68
2574910,0.416264,-0.152256,0.954528,-18.270000,-1.120000,-3.710000,21.69
2574921,0.432856,-0.203496,0.898896,-5.390000,0.560000,-3.360000,21.69
2574932,0.423096,-0.142496,0.877912,-0.910000,1.120000,-2.940000,21.71
2574943,0.397232,-0.106872,0.893528,-3.780000,0.140000,-2.520000,21.69
2574954,0.365512,-0.080032,0.947208,-8.610000,-0.560000,-2.310000,21.69
2574965,0.344528,-0.076616,0.999912,-16.170000,-1.820000,-2.240000,21.72
2574977,0.331840,-0.064904,1.036512,-25.549999,-2.870000,-1.890000,21.72
2574988,0.320616,-0.044896,1.067744,-35.000000,-3.850000,-2.730000,21.68
2574999,0.393816,-0.211304,0.984296,-23.940001,0.490000,-3.500000,21.66
2575010,0.410896,-0.177144,0.900848,-11.760000,3.220000,-2.380000,21.66
2575021,0.397720,-0.124928,0.857416,-9.380000,2.520000,-1.960000,21.69
2575032,0.388936,-0.070272,0.858880,-17.010000,0.560000,-0.560000,21.69
2575043,0.370880,-0.063928,0.909144,-24.570000,-2.730000,0.140000,21.68
2575054,0.375272,-0.087352,0.977464,-32.410000,-4.340000,0.980000,21.64
2575065,0.364536,-0.092232,1.056520,-40.880001,-7.000000,1.400000,21.64
2575076,0.357704,-0.096624,1.118496,-49.630001,-9.590000,1.890000,21.71
2575087,0.354288,-0.136152,1.182424,-60.130001,-11.550000,1.330000,21.71
2575098,0.403576,-0.276208,1.083360,-44.240002,-9.240000,-1.820000,21.70
2575109,0.498248,-0.414312,0.870104,-12.320000,1.750000,1.680000,21.70
2575120,0.465552,-0.188856,0.657824,-4.340000,2.450000,5.040000,21.64
2575131,0.416264,-0.038064,0.610000,-16.309999,-2.170000,5.180000,21.71
2575142,0.381128,0.002440,0.694912,-38.360001,-4.760000,4.900000,21.71
2575153,0.355264,-0.072224,0.846192,-53.830002,-9.520000,1.400000,21.71
2575164,0.368440,-0.197640,0.973072,-58.590000,-11.970000,0.700000,21.71
2575175,0.380640,-0.264984,1.060912,-57.680000,-12.950000,0.490000,21.71
2575186,0.386984,-0.274744,1.110200,-56.490002,-13.160000,0.070000,21.71
2575197,0.392352,-0.246440,1.112640,-59.639999,-11.970000,-0.210000,21.71
2575209,0.411384,-0.295728,1.011624,-53.619999,-7.980000,-0.490000,21.71
2575220,0.411872,-0.287432,0.906216,-47.740002,-6.860000,0.560000,21.71
2575231,0.391864,-0.252784,0.847656,-45.779999,-6.930000,0.000000,21.71
2575242,0.415288,-0.287432,0.812520,-41.790001,-6.020000,-1.820000,21.64
2575254,0.416264,-0.338672,0.772992,-36.680000,-5.670000,-2.940000,21.64
2575265,0.411384,-0.342576,0.797392,-33.389999,-5.320000,-3.780000,21.70
2575276,0.416264,-0.334280,0.797880,-31.010000,-3.640000,-3.500000,21.70
2575287,0.412360,-0.330864,0.786656,-28.139999,-1.960000,-3.500000,21.69
2575298,0.410408,-0.300608,0.791048,-25.620001,-1.190000,-3.220000,21.64
2575309,0.409920,-0.201056,0.829112,-30.590000,-0.630000,-2.590000,21.64
2575321,0.410896,-0.236680,0.850096,-38.849998,-0.770000,-4.130000,21.68
2575332,0.470432,-0.380640,0.710040,-30.379999,4.970000,-4.620000,21.68
2575343,0.440664,-0.440664,0.667584,-17.639999,7.140000,-4.620000,21.70
2575354,0.437248,-0.384544,0.693448,-7.700000,6.020000,-5.670000,21.68
2575365,0.430904,-0.253760,0.796904,-11.340000,7.630000,-6.020000,21.68
2575383,0.409432,-0.265472,0.953064,-28.910000,4.690000,-5.950000,21.71
2575394,0.403088,-0.368928,0.994056,-29.680000,3.850000,-5.740000,21.69
2575405,0.391864,-0.415288,1.024800,-22.680000,3.710000,-5.390000,21.69
2575416,0.386008,-0.400160,1.028216,-12.950000,3.640000,-4.690000,21.71
2575427,0.374296,-0.345016,1.048224,-5.950000,3.290000,-4.060000,21.71
2575438,0.386008,-0.335256,1.029680,0.210000,4.900000,-2.800000,21.71
2575449,0.386984,-0.352824,0.980392,6.510000,5.180000,-3.150000,21.72
2575460,0.392840,-0.359168,0.955504,14.140000,5.320000,-3.640000,21.72
2575471,0.385520,-0.368440,0.952576,18.129999,4.270000,-4.830000,21.71
2575482,0.385032,-0.383080,0.969656,20.020000,2.660000,-6.300000,21.71
2575493,0.382104,-0.381128,0.989664,20.160000,2.170000,-7.910000,21.70
2575504,0.407480,-0.452864,0.950136,37.240002,3.080000,-10.150000,21.70
2575515,0.447984,-0.586576,0.812520,69.160004,10.780000,-10.080000,21.70
2575526,0.418704,-0.527528,0.754936,72.730003,14.350000,-9.100000,21.68
2575537,0.378200,-0.389424,0.763232,87.150002,17.360001,-8.540000,21.68
2575547,0.363560,-0.241560,0.796904,90.089996,20.090000,-8.050000,21.69
2575558,0.369904,-0.195200,0.809592,92.540001,22.330000,-9.030000,21.66
2575569,0.346480,-0.157624,0.833992,88.480003,20.790001,-8.960000,21.66
2575580,0.345992,-0.090280,0.871080,75.320000,16.170000,-9.100000,21.72
2575591,0.381616,-0.060512,0.880840,60.340000,13.720000,-6.860000,21.72
2575602,0.395280,-0.074664,0.900360,37.869999,9.730000,-5.600000,21.66
2575613,0.411384,-0.087352,0.897920,14.700000,5.740000,-3.710000,21.66
2575624,0.407968,-0.125416,0.897920,-2.520000,3.710000,-0.630000,21.67
2575635,0.388936,-0.175680,0.894992,-12.810000,0.770000,0.700000,21.71
2575646,0.384056,-0.209840,0.906704,-8.890000,0.770000,2.870000,21.71
2575657,0.373320,-0.179584,0.929640,-3.220000,1.750000,3.430000,21.66
2575669,0.359656,-0.148840,0.953552,-0.210000,0.980000,3.780000,21.66
2575680,0.354288,-0.169824,0.979416,1.260000,0.700000,3.710000,21.70
2575691,0.352336,-0.205936,0.995520,5.530000,0.350000,3.360000,21.70
2575702,0.348920,-0.222040,0.993568,9.100000,-0.210000,3.920000,21.70
2575713,0.347944,-0.213256,0.990152,11.060000,-1.470000,3.780000,21.70
2575724,0.346968,-0.211304,0.987224,11.410000,-2.030000,4.550000,21.70
2575735,0.343552,-0.208864,0.982832,11.970000,-3.080000,4.620000,21.70
2575746,0.341112,-0.203984,0.966240,12.950000,-3.220000,4.480000,21.70
2575757,0.331840,-0.209352,0.949160,13.580000,-3.920000,4.830000,21.70
2575768,0.339648,-0.208864,0.940864,14.560000,-4.200000,4.830000,21.69
2575779,0.353800,-0.210816,0.927200,16.100000,-3.290000,4.690000,21.69
2575790,0.363072,-0.219112,0.906704,14.490000,-2.660000,4.830000,21.70
2575801,0.362096,-0.198616,0.909632,12.180000,-3.010000,5.110000,21.62
2575812,0.370880,-0.179584,0.935984,6.930000,-4.480000,4.830000,21.62
2575823,0.377712,-0.159088,0.952088,1.190000,-5.600000,4.620000,21.70
