timestamp_ms,ax,ay,az,gx,gy,gz,tempC
87829,0.328912,0.375760,0.946720,-38.849998,-71.540001,24.780001,18.95
87841,0.327448,0.384056,0.936472,-51.730000,-73.639999,30.309999,18.92
87852,0.354288,0.311832,0.938424,-62.930000,-72.379997,29.120001,18.96
87863,0.352336,0.209840,0.928176,-72.309998,-74.970001,28.910000,18.96
87874,0.364048,0.107848,0.917440,-68.389999,-76.230003,26.320000,18.94
87885,0.405040,0.160552,0.934520,-64.540001,-77.489998,27.020000,18.94
87896,0.415776,0.192272,0.952088,-69.160004,-77.070000,27.020000,18.95
87907,0.421632,0.123464,0.928176,-68.739998,-75.529999,24.990000,18.91
87918,0.437248,0.070760,0.894992,-64.750000,-76.580002,23.660000,18.91
87929,0.466528,0.018544,0.874496,-56.560001,-76.580002,20.370001,18.94
87940,0.477752,0.005856,0.836432,-50.610001,-76.790001,19.600000,18.94
87951,0.500200,0.071736,0.847656,-49.630001,-75.739998,19.879999,18.97
87962,0.537288,0.074664,0.850584,-49.000000,-75.529999,22.049999,18.97
87973,0.581696,0.066856,0.772016,-49.770000,-74.760002,24.500000,18.95
87984,0.597800,0.057584,0.740296,-61.389999,-71.050003,20.020000,18.94
87995,0.638304,0.046848,0.737368,-62.160000,-72.239998,29.959999,18.94
88006,0.603168,-0.002440,0.689056,-62.369999,-74.690002,22.680000,18.96
88018,0.665632,0.030744,0.674416,-63.349998,-69.440002,37.939999,18.96
88029,0.639768,-0.008784,0.670024,-66.989998,-71.190002,36.889999,18.96
88040,0.729072,0.061000,0.663680,-60.970001,-73.500000,41.090000,18.92
88050,0.665632,0.101992,0.607560,-63.630001,-70.139999,48.790001,18.92
88062,0.644160,-0.020984,0.587064,-70.000000,-67.129997,49.490002,18.98
88073,0.697352,-0.116632,0.590480,-56.279999,-65.940002,49.630001,18.98
88084,0.711016,-0.200080,0.578768,-41.930000,-64.889999,48.650002,18.96
88095,0.717360,-0.162992,0.573400,-33.110001,-61.320000,48.090000,18.91
88106,0.719800,-0.102968,0.589992,-29.120001,-58.520000,51.939999,18.91
88117,0.720776,-0.100040,0.624152,-33.740002,-57.470001,52.360001,18.96
88129,0.691008,-0.126392,0.630496,-36.119999,-56.630001,56.490002,18.96
88140,0.678320,-0.140056,0.641232,-35.560001,-56.770000,59.570000,18.97
88151,0.699304,-0.111264,0.624152,-38.990002,-55.580002,59.500000,18.94
88162,0.692960,-0.136152,0.606096,-50.750000,-54.459999,61.880001,18.94
88173,0.702232,-0.214232,0.585600,-59.779999,-52.430000,61.599998,18.96
88184,0.682712,-0.261568,0.585600,-58.939999,-50.820000,60.130001,18.96
88195,0.698816,-0.220088,0.585112,-64.120003,-48.580002,61.250000,18.95
88206,0.675880,-0.281088,0.591456,-74.480003,-46.200001,57.330002,18.95
88218,0.667584,-0.313784,0.580720,-66.989998,-46.130001,55.720001,18.95
88229,0.681736,-0.289384,0.556320,-58.310001,-44.939999,49.490002,18.94
88240,0.691008,-0.331840,0.514352,-53.340000,-45.639999,38.500000,18.94
88251,0.650992,-0.315248,0.540216,-51.099998,-34.860001,39.340000,18.93
88262,0.610976,-0.332816,0.537776,-36.189999,-32.900002,39.689999,18.94
88273,0.682712,-0.368928,0.538752,-35.139999,-27.160000,36.959999,18.94
88284,0.655384,-0.366488,0.597800,-28.840000,-24.080000,31.850000,18.95
88295,0.650504,-0.333304,0.630008,-24.709999,-21.139999,28.280001,18.95
88306,0.658312,-0.343552,0.644648,-25.410000,-19.250000,26.809999,18.96
88318,0.660264,-0.364536,0.644648,-21.490000,-16.590000,24.150000,18.96
88329,0.650504,-0.381616,0.632936,-15.820000,-13.440000,19.600000,18.96
88339,0.662704,-0.374296,0.637328,-12.040000,-11.620000,16.590000,18.94
88350,0.670024,-0.383568,0.603656,-10.290000,-5.040000,11.410000,18.94
88361,0.634888,-0.369416,0.593408,-7.910000,-3.010000,9.240000,18.95
88373,0.648552,-0.371856,0.604144,-6.090000,-2.030000,7.350000,18.95
88384,0.654408,-0.348920,0.621712,1.540000,1.260000,3.710000,18.97
88395,0.637816,-0.293776,0.638792,5.950000,4.970000,1.890000,18.95
88405,0.629032,-0.307440,0.652944,8.960000,7.700000,0.070000,18.95
88416,0.632448,-0.309392,0.659776,15.330000,10.220000,-1.750000,18.97
88427,0.640256,-0.278648,0.661240,16.450001,13.720000,-3.360000,18.97
88438,0.602192,-0.298168,0.666120,16.799999,17.080000,-8.190000,18.94
88455,0.670512,-0.267424,0.732000,14.000000,18.340000,-8.260000,18.95
88466,0.693448,-0.270840,0.756888,4.410000,18.410000,-7.210000,18.95
88476,0.704184,-0.305488,0.774456,0.210000,16.030001,-6.020000,19.00
88487,0.709064,-0.315248,0.772992,0.070000,12.180000,-5.740000,18.97
88498,0.709552,-0.285480,0.784704,-4.410000,9.030000,-4.970000,18.97
88510,0.702720,-0.305488,0.771528,-7.770000,6.020000,-4.970000,18.98
88521,0.699792,-0.314760,0.747128,-6.930000,2.520000,-4.410000,18.98
88532,0.707600,-0.329400,0.728096,-4.340000,0.000000,-4.410000,18.96
88543,0.710528,-0.345504,0.709552,-1.540000,-2.030000,-4.900000,18.93
88554,0.706136,-0.354776,0.692472,2.170000,-3.290000,-5.670000,18.93
88565,0.700280,-0.335744,0.691008,5.950000,-4.830000,-5.460000,18.95
88576,0.704184,-0.358680,0.667584,5.950000,-4.760000,-5.950000,18.95
88587,0.700768,-0.371368,0.665144,9.870000,-5.460000,-6.160000,18.96
88599,0.699304,-0.323544,0.660264,11.620000,-7.350000,-6.300000,18.99
88610,0.706136,-0.291824,0.639768,-1.750000,-6.160000,-5.110000,18.99
88621,0.700768,-0.336720,0.642696,-12.460000,-5.600000,-3.360000,18.98
88632,0.698816,-0.364536,0.639280,-13.860000,-6.580000,-2.380000,18.98
88643,0.711992,-0.335744,0.627080,-21.070000,-5.740000,-1.190000,18.97
88654,0.698816,-0.384544,0.609512,-34.930000,-5.040000,-1.960000,18.96
88665,0.699792,-0.416264,0.593896,-37.380001,-4.830000,-1.680000,18.96
88677,0.705648,-0.409920,0.588528,-43.610001,-3.010000,-1.960000,18.96
88688,0.685640,-0.450912,0.610976,-49.070000,-2.240000,-4.620000,18.96
88699,0.699304,-0.480192,0.615368,-45.500000,-2.170000,-6.720000,18.99
88711,0.711992,-0.480192,0.605608,-50.750000,-1.190000,-7.770000,18.97
88722,0.699792,-0.550464,0.611952,-54.389999,-1.190000,-13.580000,18.97
88733,0.702232,-0.550952,0.600240,-51.240002,-2.170000,-15.260000,18.96
88744,0.709064,-0.519720,0.607560,-52.500000,-1.260000,-17.780001,18.96
88756,0.688080,-0.545584,0.608048,-54.110001,-1.400000,-23.240000,19.00
88767,0.700768,-0.580720,0.633424,-52.779999,-1.260000,-27.440001,18.94
88778,0.691008,-0.584624,0.653432,-50.750000,-1.890000,-31.780001,18.94
88789,0.686616,-0.503128,0.673928,-52.360001,-2.520000,-35.630001,18.98
88801,0.678320,-0.509472,0.654408,-57.119999,-3.290000,-39.900002,18.98
88812,0.692472,-0.574864,0.633912,-55.369999,-3.430000,-44.660000,18.96
88823,0.694424,-0.611952,0.602192,-43.259998,-4.200000,-50.959999,18.97
88834,0.712968,-0.579256,0.588040,-37.450001,-1.890000,-54.389999,18.97
88846,0.703696,-0.666120,0.515816,-22.190001,0.070000,-62.160000,18.95
88856,0.695888,-0.641720,0.499712,15.470000,1.190000,-69.019997,18.95
88867,0.691984,-0.395768,0.486048,36.189999,5.600000,-74.410004,18.96
88878,0.694424,-0.548024,0.358680,52.150002,13.020000,-84.769997,18.96
88889,0.727608,-0.576328,0.394792,127.959999,14.000000,-97.370003,18.96
88900,0.751032,-0.413336,0.373808,203.279999,20.790001,-106.330002,19.00
88911,0.787632,-0.429928,0.343064,273.140015,26.040001,-117.669998,19.00
88922,0.733464,-0.082472,0.440176,381.079987,28.840000,-124.879997,18.97
88933,0.682224,0.113704,0.439200,461.440002,30.170000,-126.910004,18.96
88945,0.733464,0.222040,0.512888,534.520020,26.600000,-125.860001,18.96
88955,0.720776,0.551928,0.629032,580.229980,35.279999,-122.360001,18.94
88966,0.685640,0.669536,0.579744,592.690002,39.480000,-109.760002,18.94
88978,0.738832,0.544120,0.652944,564.549988,38.919998,-100.449997,18.99
88989,0.698816,0.502152,0.584624,534.380005,44.939999,-87.639999,18.99
88999,0.649040,0.235216,0.390888,524.299988,47.950001,-79.940002,18.95
89010,0.689056,0.171288,0.338672,510.929993,50.820000,-72.239998,18.98
89021,0.641720,0.566568,0.283528,473.619995,45.220001,-56.560001,18.98
89032,0.604632,0.936960,0.244000,347.690002,36.959999,-38.360001,19.00
89043,0.653432,1.029680,0.266936,195.440002,25.620001,-20.580000,19.00
89053,0.627080,0.944280,0.272304,78.190002,16.520000,-3.220000,18.97
89064,0.641232,1.044320,0.285480,-67.900002,9.870000,11.620000,18.96
89075,0.649040,1.061400,0.345016,-218.399994,3.920000,26.950001,18.96
89086,0.669048,1.038464,0.420168,-335.299988,-3.360000,45.290001,18.97
89097,0.683688,1.042856,0.424560,-481.459991,-0.280000,67.410004,18.97
89108,0.578768,0.940864,0.559248,-609.489990,-7.630000,75.110001,18.98
89119,0.512400,0.755912,0.560712,-691.039978,-32.759998,75.529999,18.98
89130,0.648064,0.467016,0.548024,-737.309998,-45.990002,82.250000,18.93
89141,0.728096,0.034160,0.619760,-752.289978,-56.419998,66.290001,18.95
89153,0.728584,-0.017080,0.607072,-712.669983,-103.320000,47.459999,18.95
89164,0.802760,-0.072224,0.642208,-672.000000,-119.839996,69.019997,19.00
89175,0.957944,-0.394304,0.675392,-617.049988,-53.830002,117.389999,19.00
89187,0.611952,-0.567056,0.537288,-476.350006,-71.680000,92.889999,18.89
89198,0.680272,-0.477752,0.457256,-395.010010,-56.910000,74.339996,18.95
89209,0.707600,-0.734928,0.380152,-277.690002,-48.160000,57.400002,18.95
89220,0.720288,-0.744688,0.241560,-151.199997,-21.980000,42.630001,18.97
89231,0.635376,-0.318176,0.174216,-77.699997,-6.300000,24.500000,18.97
89242,0.641720,-0.434808,0.149816,-28.139999,3.220000,8.470000,18.96
89253,0.752496,-0.757376,0.289872,48.930000,6.510000,-5.110000,18.96
89264,0.813984,-0.779336,0.387472,105.139999,10.780000,-23.100000,18.96
89275,0.824232,-0.755424,0.521672,125.930000,11.690000,-37.099998,18.97
89286,0.807640,-0.772016,0.633424,151.899994,7.770000,-52.430000,18.97
89297,0.772504,-0.644160,0.619272,169.539993,6.160000,-62.650002,19.00
89308,0.755912,-0.619272,0.558760,197.889999,8.610000,-76.089996,18.95
89319,0.754448,-0.417728,0.594384,262.920013,9.240000,-86.589996,18.95
89330,0.771040,-0.317688,0.612928,331.940002,11.620000,-91.699997,18.98
89341,0.759816,-0.290360,0.701744,403.549988,13.300000,-96.389999,18.98
89352,0.774456,-0.189344,0.773480,450.940002,12.740000,-93.239998,19.01
89363,0.781288,-0.134200,0.777384,475.230011,14.280000,-90.089996,18.99
89374,0.638304,0.099064,0.831064,432.459991,6.090000,-80.919998,18.99
89385,0.620736,0.458232,0.904264,321.790009,-7.070000,-63.630001,18.99
89396,0.520208,0.502152,0.814960,119.419998,-24.850000,-48.299999,18.99
89407,0.579744,0.299632,0.422608,-84.070000,-26.040001,-17.010000,18.98
89419,0.660264,0.130296,0.224968,-236.949997,-17.709999,-2.170000,19.02
89430,0.692472,0.497760,0.237168,-356.859985,-22.190001,18.410000,19.02
89441,0.820328,0.726144,0.305000,-458.989990,-28.070000,52.570000,19.00
89452,0.869616,0.318176,0.564128,-519.890015,-35.070000,71.680000,19.00
89463,0.964288,-0.101016,0.727608,-461.579987,-45.430000,82.040001,19.00
89479,0.932080,0.044408,0.814960,-370.720001,-46.970001,89.949997,18.97
89490,0.857416,0.189344,0.733464,-339.149994,-37.099998,93.660004,18.97
89501,0.775432,0.047336,0.475800,-300.440002,-32.410000,80.989998,19.00
89512,0.779336,-0.215208,0.298656,-215.320007,-28.840000,70.699997,18.96
89523,0.749080,-0.369416,0.143960,-123.970001,-16.100000,56.000000,18.96
89534,0.734440,-0.500200,0.057096,-40.320000,-4.690000,40.040001,18.99
89546,0.766648,-0.637328,0.054168,17.850000,4.690000,23.240000,18.99
89556,0.836432,-0.773480,0.119560,84.419998,10.220000,8.750000,19.00
89567,0.869128,-0.778360,0.269864,146.440002,16.730000,-8.680000,18.00
89578,0.782752,-0.608048,0.451888,169.190002,21.559999,-22.049999,18.96
89589,0.738344,-0.562664,0.533384,188.369995,23.520000,-36.049999,18.97
89601,0.751520,-0.590480,0.515328,240.380005,26.250000,-45.639999,18.97
89612,0.787144,-0.455304,0.500200,321.579987,35.490002,-57.750000,18.98
89623,0.730536,-0.273768,0.519720,420.839996,45.009998,-67.900002,18.98
89634,0.687592,-0.049288,0.535336,488.600006,48.509998,-75.669998,18.95
89645,0.750056,0.056608,0.581696,527.030029,59.360001,-74.480003,18.96
89656,0.799344,0.026840,0.759328,517.369995,63.139999,-71.190002,18.96
89668,0.714432,0.071736,0.937936,447.440002,60.759998,-65.379997,19.01
89679,0.541192,0.315736,1.196576,334.670013,34.720001,-54.180000,19.01
89690,0.529480,0.358680,1.023824,133.419998,15.540000,-32.340000,18.98
89701,0.592432,0.202520,0.639768,-72.379997,11.200000,-11.760000,18.98
89712,0.667096,0.139568,0.412360,-259.980011,13.510000,14.280000,18.98
89723,0.605608,0.553880,0.550464,-400.890015,-2.450000,47.110001,18.98
89734,0.664168,0.774456,0.850584,-538.020020,-33.459999,73.500000,18.98
89745,0.868152,0.411872,1.041880,-595.489990,-48.160000,96.669998,18.98
89756,0.956480,-0.076128,1.131672,-544.669983,-61.320000,105.910004,18.97
89767,0.842288,0.105896,1.136552,-491.820007,-67.760002,114.029999,18.97
89778,0.688568,0.211792,0.815448,-452.899994,-59.779999,109.059998,18.96
89789,0.678808,-0.227408,0.407968,-364.700012,-52.009998,91.910004,18.96
89800,0.693448,-0.508496,0.092720,-214.899994,-28.070000,68.180000,19.00
89811,0.511912,-0.620736,-0.222040,-83.089996,-8.050000,46.619999,19.00
89823,0.597312,-0.654408,-0.420656,53.900002,8.610000,21.000000,19.00
89834,0.771528,-0.908168,-0.339160,169.470001,25.340000,-1.540000,18.98
89845,0.921832,-0.913048,0.039528,273.630005,33.180000,-27.090000,18.98
89856,0.900848,-0.690520,0.404552,313.459991,44.660000,-49.209999,19.00
89867,0.792512,-0.553880,0.670024,376.459991,43.259998,-66.080002,18.97
89878,0.689544,-0.294752,0.750056,442.750000,45.779999,-75.250000,18.97
89889,0.677832,-0.044408,0.767136,488.880005,55.439999,-83.089996,18.97
89900,0.609024,0.121024,0.830576,520.380005,58.029999,-83.930000,18.97
89911,0.596336,0.201544,0.954528,538.719971,57.540001,-81.339996,18.97
89922,0.654408,0.215696,1.106296,524.650024,58.450001,-78.889999,18.97
89932,0.655384,0.074664,1.222928,487.269989,50.959999,-68.879997,18.99
89943,0.586088,0.008784,1.018944,428.260010,36.959999,-67.199997,19.00
89954,0.591944,-0.018056,1.068232,356.089996,22.680000,-58.029999,19.00
89965,0.478240,0.196176,0.955016,225.750000,6.020000,-46.619999,18.99
89976,0.475800,0.473360,0.622688,33.810001,-13.720000,-28.490000,18.99
89987,0.554368,0.610488,0.379176,-191.449997,-14.980000,-3.430000,19.00
89998,0.545584,0.479216,0.469944,-343.910004,-14.700000,18.410000,18.98
90009,0.572912,0.617808,0.781776,-476.839996,-25.410000,35.279999,18.98
90021,0.725168,0.619272,0.970632,-590.030029,-37.869999,51.590000,18.99
90031,0.772016,0.196664,1.067256,-617.190002,-81.690002,55.650002,18.99
90043,0.943792,0.009272,1.185352,-586.950012,-80.849998,76.230003,18.98
90053,0.919880,0.238632,1.143384,-534.309998,-73.220001,87.570000,18.98
90064,0.643184,0.378200,0.880352,-507.429993,-84.139999,77.279999,18.98
90076,0.673928,0.253272,0.729560,-477.609985,-79.660004,78.540001,19.03
90087,0.696864,-0.227408,0.379664,-413.910004,-64.959999,65.730003,19.03
90098,0.614880,-0.511424,0.064904,-273.769989,-50.750000,40.180000,19.01
90109,0.597800,-0.455792,-0.163968,-119.699997,-26.879999,29.400000,19.01
90120,0.604632,-0.585600,-0.294264,1.960000,-4.410000,7.630000,19.01
90131,0.832040,-0.969656,-0.265472,114.660004,13.860000,-14.140000,19.02
90142,0.898408,-0.690032,0.067344,229.600006,22.680000,-37.590000,19.02
90153,0.890600,-0.586088,0.312320,280.000000,33.810001,-52.500000,18.96
90164,0.788120,-0.561688,0.596824,325.359985,35.349998,-69.580002,18.96
90175,0.740784,-0.267424,0.786168,381.850006,35.560001,-79.519997,19.01
90186,0.694424,-0.156160,0.839360,427.209991,39.759998,-84.349998,18.96
90197,0.654896,-0.067344,0.877424,486.850006,43.470001,-87.150002,18.96
90208,0.618784,0.139568,0.840824,522.200012,42.419998,-83.230003,19.02
90218,0.663192,0.229848,0.838384,532.349976,43.400002,-79.449997,19.02
90229,0.719800,0.159088,0.773968,526.330017,46.900002,-69.580002,18.99
90240,0.667584,0.114680,0.814472,496.510010,43.750000,-66.150002,18.98
90251,0.640256,0.105896,0.762256,445.760010,37.939999,-59.639999,18.98
90261,0.597800,0.173240,0.830576,360.850006,33.599998,-52.009998,18.98
90272,0.500200,0.365024,0.808128,203.000000,14.700000,-41.160000,18.98
90283,0.511424,0.599264,0.619760,-10.430000,-1.820000,-19.530001,19.04
90294,0.550464,0.527040,0.414800,-174.089996,-5.320000,1.400000,19.04
90305,0.584136,0.425048,0.484584,-328.160004,-7.350000,25.059999,19.02
90317,0.682224,0.610976,0.631472,-453.459991,-16.870001,39.200001,18.98
90328,0.820328,0.589504,0.786656,-556.080017,-37.660000,59.080002,18.98
90339,0.714920,0.326960,1.028216,-583.450012,-69.300003,64.260002,19.02
90350,0.886696,0.173240,1.126792,-572.109985,-66.849998,86.800003,19.02
90361,0.824720,0.184952,1.048224,-535.710022,-73.290001,86.660004,18.96
90372,0.658800,0.249368,1.003816,-511.000000,-83.089996,84.839996,18.96
90383,0.712480,0.122976,0.810568,-481.950012,-78.260002,92.540001,18.96
90394,0.725656,-0.152744,0.570472,-409.640015,-69.720001,82.389999,19.02
90405,0.678320,-0.320616,0.345016,-297.779999,-56.279999,71.260002,19.02
90417,0.596336,-0.427000,0.145424,-178.639999,-36.330002,51.450001,19.02
90428,0.604144,-0.537288,-0.075152,-81.059998,-14.840000,37.099998,19.02
90439,0.676368,-0.698816,-0.115656,27.020000,-1.540000,15.750000,19.02
90450,0.811056,-0.805688,0.060512,108.150002,11.270000,-1.960000,19.02
90461,0.848144,-0.873520,0.334280,169.750000,14.700000,-22.820000,19.02
90472,0.764208,-0.682712,0.658312,189.070007,17.360001,-38.220001,19.00
90490,0.685640,-0.680272,0.850096,209.300003,10.430000,-60.410000,19.00
90503,0.664656,-0.512400,0.820816,243.669998,12.320000,-69.089996,19.00
90515,0.684664,-0.425536,0.755912,289.450012,16.940001,-79.730003,19.00
90527,0.711016,-0.293776,0.744688,362.459991,23.799999,-85.050003,19.00
90539,0.664168,-0.113216,0.770552,425.109985,22.469999,-88.199997,19.02
90551,0.722240,0.042944,0.815936,468.510010,21.070000,-84.139999,19.02
90562,0.753960,0.103944,0.788608,487.549988,23.170000,-79.379997,18.96
90574,0.718824,0.096136,0.767624,489.720001,24.990000,-70.489998,18.96
90587,0.619272,0.095648,0.808616,430.429993,17.570000,-60.200001,19.00
90598,0.568520,0.341112,0.852536,330.820007,3.640000,-51.240002,19.02
90610,0.467992,0.482144,0.746640,104.790001,-19.879999,-29.190001,19.02
90622,0.541680,0.422120,0.378688,-81.129997,-30.240000,-15.330000,18.96
90633,0.686128,0.346480,0.206912,-203.839996,-17.920000,6.510000,18.97
90644,0.674416,0.485560,0.194224,-324.239990,-20.299999,30.799999,18.97
90655,0.709064,0.623664,0.471408,-437.500000,-41.930000,41.230000,19.00
90666,0.872056,0.417240,0.681248,-503.299988,-43.400002,58.450001,19.00
90677,0.941352,0.052216,0.847656,-501.690002,-55.790001,63.000000,18.98
90688,0.896456,0.050752,1.016992,-460.600006,-66.919998,68.879997,19.03
90699,0.832528,0.218136,0.980880,-431.619995,-63.630001,78.610001,19.03
90710,0.712968,0.276208,0.869128,-421.959991,-65.029999,81.760002,19.05
90721,0.683688,0.140544,0.669048,-396.619995,-70.769997,76.790001,19.05
90733,0.789584,-0.107360,0.459208,-334.040009,-59.150002,72.660004,18.99
90744,0.733464,-0.307928,0.304024,-276.010010,-44.099998,63.000000,19.01
90756,0.682712,-0.390888,0.149328,-179.479996,-29.330000,49.070000,19.01
90767,0.717848,-0.509960,0.036112,-88.550003,-14.280000,37.869999,19.03
90779,0.732000,-0.570472,0.014152,-2.170000,0.070000,24.080000,19.03
90790,0.805200,-0.728096,0.064416,72.169998,9.590000,4.410000,19.04
90800,0.822280,-0.723704,0.281576,122.010002,14.420000,-11.760000,18.99
90811,0.806664,-0.687104,0.479704,152.529999,18.549999,-25.690001,18.99
90822,0.760792,-0.770552,0.575352,187.529999,19.110001,-38.009998,18.99
90833,0.699792,-0.538752,0.700768,211.050003,19.600000,-50.820000,18.99
90844,0.686128,-0.371368,0.713456,224.419998,24.219999,-61.950001,19.02
90855,0.735904,-0.426024,0.679296,271.670013,27.299999,-69.160004,19.03
90866,0.716872,-0.233752,0.711016,322.420013,32.340000,-78.120003,19.03
90877,0.719312,-0.086376,0.727120,374.010010,31.150000,-81.339996,19.03
90888,0.757864,-0.064416,0.751520,427.350006,31.430000,-82.459999,19.03
90899,0.772992,0.015128,0.775920,461.440002,32.900002,-79.800003,19.05
90909,0.753472,0.084424,0.723704,479.850006,35.840000,-75.110001,19.05
90920,0.719312,0.156648,0.771528,472.850006,36.189999,-68.320000,19.01
90931,0.636352,0.219112,0.779336,435.470001,30.240000,-63.139999,19.00
90942,0.621712,0.272792,0.725656,337.890015,23.379999,-48.230000,19.00
90953,0.607072,0.265960,0.653920,219.169998,11.690000,-44.869999,19.04
90964,0.540704,0.416264,0.547048,106.959999,-4.130000,-22.190001,19.04
90975,0.640256,0.588528,0.367464,-51.310001,-9.870000,-6.020000,19.00
90986,0.777384,0.667584,0.247904,-225.470001,1.190000,15.120000,18.98
90997,0.695400,0.413336,0.248392,-324.309998,-17.010000,33.599998,18.98
91008,0.741760,0.360144,0.504592,-409.290009,-21.700001,46.900002,19.02
91019,0.884256,0.319640,0.762256,-451.429993,-27.090000,58.869999,19.02
91030,0.859368,0.209352,0.890600,-451.500000,-43.750000,65.730003,19.01
91041,0.833504,0.204960,0.950136,-446.179993,-50.959999,74.199997,19.01
91052,0.824232,0.144448,0.933056,-431.829987,-51.799999,85.050003,19.02
91063,0.714432,0.119560,0.880840,-409.220001,-57.820000,87.430000,18.97
91074,0.740784,0.122000,0.812520,-391.369995,-61.529999,88.970001,18.97
91085,0.759816,-0.019520,0.611464,-364.700012,-58.240002,87.779999,18.99
91096,0.711992,-0.139568,0.457744,-311.010010,-46.759998,78.610001,18.99
91107,0.658312,-0.258152,0.268888,-230.580002,-34.090000,68.809998,19.03
91118,0.625616,-0.358192,0.149328,-151.130005,-17.780001,54.880001,19.02
91130,0.664168,-0.583648,0.036600,-57.189999,-2.660000,38.430000,19.02
91141,0.758840,-0.740296,0.007808,18.900000,10.710000,21.980000,19.02
91152,0.794952,-0.766648,0.128832,88.690002,19.809999,3.710000,19.02
91163,0.821304,-0.848632,0.276208,145.039993,26.600000,-10.640000,19.03
91174,0.773480,-0.659776,0.545584,177.380005,29.750000,-26.180000,19.02
91185,0.707112,-0.612928,0.675880,190.399994,29.190001,-41.860001,19.02
91196,0.691496,-0.517768,0.762256,217.630005,29.400000,-53.270000,19.01
91207,0.699304,-0.391376,0.722240,238.559998,31.780001,-63.910000,19.01
91217,0.729560,-0.363072,0.649040,283.989990,35.840000,-72.660004,19.04
91229,0.740296,-0.242536,0.611952,355.179993,41.299999,-77.279999,18.96
91241,0.729560,-0.032696,0.686616,420.000000,43.119999,-79.379997,18.96
91252,0.801296,0.081496,0.753472,449.260010,45.360001,-76.930000,18.99
91263,0.786656,0.074176,0.832040,455.769989,49.980000,-73.570000,18.99
91273,0.697352,0.048312,0.974536,448.910004,44.869999,-70.209999,19.02
91284,0.629520,0.038064,0.995520,409.640015,43.259998,-69.230003,18.95
91295,0.529968,0.102480,1.015528,353.290009,27.790001,-63.000000,18.95
91306,0.539240,0.315248,0.826184,219.029999,20.299999,-50.189999,18.99
91317,0.459696,0.630984,0.557296,40.040001,-4.200000,-26.389999,18.99
91328,0.568520,0.644160,0.259616,-102.900002,-3.990000,3.150000,19.01
91339,0.698328,0.531920,0.157624,-245.000000,-3.850000,25.340000,19.01
91350,0.688080,0.525576,0.425536,-356.859985,-14.140000,40.320000,19.03
91360,0.789584,0.485072,0.709064,-401.589996,-30.870001,56.910000,18.97
91372,0.842776,0.294752,0.864248,-435.049988,-40.599998,69.790001,18.97
91383,0.848632,0.163968,0.997472,-422.940002,-47.880001,75.250000,19.05
91394,0.793000,0.048312,0.990640,-384.019989,-52.360001,83.370003,19.05
91405,0.768600,0.120536,0.968192,-357.700012,-55.720001,86.660004,19.04
91415,0.738344,0.161528,0.884744,-334.109985,-57.400002,92.050003,19.05
91426,0.710040,0.075152,0.752984,-308.140015,-58.869999,94.919998,19.05
91437,0.714432,-0.007320,0.595360,-291.760010,-55.790001,91.629997,19.04
91448,0.699792,-0.173240,0.462136,-253.399994,-47.389999,83.089996,19.04
91459,0.617808,-0.363072,0.353312,-178.149994,-37.380001,72.099998,19.03
91470,0.591944,-0.412360,0.308904,-112.489998,-22.469999,58.380001,19.03
91481,0.595848,-0.585600,0.241560,-62.230000,-13.720000,44.799999,19.03
91492,0.705160,-0.776408,0.274256,-3.850000,-3.290000,31.219999,19.04
91509,0.761768,-0.849120,0.446032,54.250000,2.870000,5.180000,18.99
91520,0.752008,-0.913048,0.539240,73.709999,3.710000,-6.230000,18.99
91531,0.717360,-0.808616,0.668072,82.529999,3.080000,-18.410000,19.03
91542,0.668072,-0.731024,0.693936,74.760002,1.190000,-29.330000,19.03
91552,0.638792,-0.712968,0.626104,79.099998,2.030000,-39.480000,19.00
91563,0.637816,-0.579744,0.550952,91.489998,5.040000,-51.520000,19.00
91574,0.660264,-0.528504,0.438712,118.650002,12.250000,-64.260002,18.97
91585,0.701256,-0.471408,0.433344,178.570007,20.580000,-75.110001,18.99
91596,0.755912,-0.349408,0.515328,238.839996,26.530001,-87.150002,18.99
91607,0.825208,-0.258152,0.696376,313.390015,29.120001,-96.180000,19.02
91618,0.876936,-0.203984,0.829600,380.940002,32.480000,-97.510002,19.02
91629,0.829600,-0.204472,0.923296,440.230011,33.110001,-99.889999,19.00
91640,0.754448,-0.119072,1.021384,469.630005,30.450001,-96.739998,19.02
91651,0.659776,-0.129808,1.051152,467.950012,27.299999,-95.550003,19.02
91662,0.551440,-0.089792,0.958432,424.059998,16.309999,-88.900002,19.04
91673,0.458720,0.185928,0.786656,333.970001,-1.120000,-77.349998,19.04
91684,0.596824,0.357216,0.347944,194.809998,-3.570000,-61.880001,19.04
91695,0.450424,0.566080,0.040992,9.870000,-18.969999,-34.160000,19.00
91706,0.665632,0.692472,-0.021960,-157.080002,-11.970000,-4.340000,19.00
91717,0.663680,0.740296,0.194712,-274.119995,-12.040000,18.900000,19.05
91728,0.696864,0.564128,0.478728,-347.059998,-25.549999,31.010000,19.05
91739,0.846680,0.295728,0.650992,-365.679993,-29.260000,45.360001,19.05
91750,0.879376,0.140544,0.895480,-355.950012,-35.349998,56.490002,19.05
91761,0.875472,0.199104,0.976488,-332.779999,-42.349998,64.750000,19.02
91772,0.860832,0.222528,0.981368,-321.369995,-47.529999,73.779999,19.03
91783,0.789584,0.240584,0.930616,-314.859985,-51.869999,76.089996,19.03
91794,0.738832,0.184952,0.818376,-303.519989,-55.930000,77.000000,19.00
91804,0.757864,0.143472,0.731512,-298.059998,-56.349998,81.760002,19.00
91815,0.732488,0.022448,0.615368,-286.510010,-53.689999,79.870003,19.04
91826,0.716384,-0.179584,0.468480,-258.859985,-49.490002,73.919998,19.01
91837,0.699792,-0.373808,0.366488,-200.619995,-40.389999,65.169998,19.01
91848,0.670024,-0.491416,0.281576,-129.779999,-26.250000,53.619999,19.04
91860,0.687104,-0.609024,0.237168,-72.870003,-12.110000,40.669998,19.04
91871,0.685152,-0.650992,0.212280,-6.720000,-1.330000,24.709999,19.01
91882,0.725656,-0.734928,0.204960,60.060001,7.070000,10.780000,19.01
91893,0.764696,-0.711504,0.233264,102.830002,16.450001,-5.180000,19.01
91903,0.755424,-0.610488,0.357704,147.139999,24.219999,-22.120001,19.01
91914,0.725656,-0.464088,0.445544,175.910004,33.110001,-32.830002,19.01
91925,0.726144,-0.426512,0.528016,215.110001,38.849998,-45.220001,19.03
91936,0.766648,-0.385520,0.568520,268.799988,44.380001,-59.150002,19.03
91947,0.750056,-0.254736,0.611952,349.230011,51.450001,-66.639999,19.03
91958,0.715896,-0.039040,0.665144,418.809998,54.950001,-73.709999,19.01
91969,0.731512,0.101016,0.783240,448.910004,56.419998,-72.519997,19.01
91980,0.773480,0.117608,0.903288,459.269989,61.040001,-69.790001,19.04
91991,0.735904,0.009760,0.989664,436.660004,61.950001,-63.770000,19.04
92002,0.687592,-0.120048,1.062864,410.760010,50.540001,-61.529999,19.05
92013,0.556808,-0.059048,0.967704,346.290009,37.029999,-53.410000,19.03
92024,0.530456,0.255224,0.800320,205.520004,15.750000,-40.880001,19.03
92034,0.621224,0.450424,0.545584,55.230000,9.170000,-25.690001,19.06
92045,0.521184,0.411872,0.508984,-138.110001,1.400000,2.730000,19.06
92056,0.576816,0.382104,0.547536,-286.649994,-8.540000,24.500000,18.95
92067,0.706136,0.513376,0.706624,-396.130005,-22.959999,45.919998,18.95
92078,0.763232,0.273768,0.946232,-468.230011,-38.849998,63.910000,19.05
92089,0.808128,0.148352,1.081896,-470.750000,-53.130001,76.510002,19.03
92100,0.814960,0.061000,1.169248,-445.970001,-60.270000,86.099998,19.03
92111,0.776896,0.197640,1.152656,-416.570007,-63.560001,93.589996,19.01
92122,0.647088,0.329888,0.971120,-404.320007,-67.620003,97.160004,19.01
92133,0.628056,0.170312,0.732976,-382.690002,-70.910004,86.379997,19.04
92144,0.698816,-0.094184,0.454816,-344.540009,-56.349998,76.510002,18.99
92155,0.683688,-0.351360,0.205448,-249.410004,-40.250000,62.790001,18.99
92166,0.605120,-0.462624,-0.000976,-145.529999,-20.440001,47.389999,19.02
92177,0.647088,-0.682712,-0.069296,-35.209999,-4.060000,29.610001,19.02
92189,0.741760,-0.826184,-0.016592,49.000000,9.310000,8.890000,19.07
92200,0.793976,-0.820328,0.204472,123.620003,16.030001,-10.780000,19.09
92211,0.825208,-0.837408,0.499712,175.490005,22.260000,-27.790001,19.09
92222,0.756400,-0.682712,0.701744,200.619995,26.040001,-37.939999,19.02
92233,0.661240,-0.563640,0.855464,204.190002,23.940001,-48.860001,19.02
92244,0.633912,-0.464576,0.927200,203.279999,21.209999,-57.750000,19.01
92255,0.618296,-0.394304,0.913048,199.990005,18.480000,-63.349998,19.00
92266,0.602192,-0.237656,0.866688,196.839996,14.910000,-66.639999,19.00
92277,0.649528,-0.173240,0.802760,194.460007,11.410000,-65.870003,19.05
92288,0.709552,-0.268400,0.746640,213.990005,9.730000,-67.059998,19.05
92299,0.756400,-0.322080,0.713456,255.360001,11.270000,-68.389999,19.02
92310,0.745664,-0.240096,0.692960,282.589996,14.000000,-68.739998,19.02
92321,0.722728,-0.189832,0.643184,315.000000,19.040001,-69.370003,19.02
92332,0.686616,-0.089792,0.685640,332.779999,24.639999,-68.599998,19.02
92343,0.648552,0.068808,0.767624,336.209991,22.330000,-59.570000,19.02
92354,0.602680,0.349896,0.773968,298.339996,18.900000,-51.590000,19.05
92365,0.610000,0.512888,0.806176,205.029999,8.260000,-45.709999,19.05
92375,0.582184,0.482144,0.773968,98.839996,-7.770000,-25.760000,19.06
92386,0.654896,0.367952,0.539728,5.950000,-15.120000,-13.720000,19.01
92397,0.745176,0.278160,0.429440,-94.290001,-11.410000,-0.350000,19.01
92408,0.706136,0.251808,0.456280,-166.250000,-12.530000,16.590000,19.00
92419,0.728096,0.366000,0.566568,-215.529999,-14.490000,34.299999,19.00
92430,0.756888,0.452376,0.707112,-272.019989,-21.629999,45.639999,19.02
92441,0.769576,0.460184,0.782752,-314.019989,-29.680000,57.820000,19.07
92452,0.734928,0.329400,0.870104,-333.549988,-37.730000,65.169998,19.07
92463,0.713456,0.185928,0.908168,-343.559998,-46.480000,69.650002,19.06
92474,0.708576,0.081984,0.891576,-338.730011,-53.549999,72.379997,19.06
92486,0.700280,0.000488,0.866688,-321.160004,-59.500000,70.839996,19.04
92497,0.693936,-0.043920,0.779336,-295.609985,-62.650002,66.639999,19.04
92508,0.725656,-0.142496,0.624640,-276.850006,-56.279999,66.570000,19.07
92519,0.711016,-0.325496,0.516792,-230.300003,-47.180000,57.470001,19.03
92535,0.681736,-0.409432,0.366000,-148.050003,-32.130001,45.779999,19.02
92546,0.655384,-0.418704,0.280112,-91.839996,-21.980000,36.259998,19.02
92558,0.681736,-0.433344,0.236192,-48.299999,-10.990000,23.520000,19.05
92569,0.782264,-0.692472,0.223016,8.680000,-3.080000,10.430000,19.05
92580,0.781288,-0.725168,0.270352,63.840000,7.770000,-6.580000,19.03
92591,0.752008,-0.598776,0.362584,116.339996,12.180000,-34.230000,18.99
92602,0.734928,-0.466040,0.515816,149.380005,19.040001,-31.990000,18.99
92613,0.742248,-0.421632,0.617320,176.470001,23.660000,-45.290001,19.06
92624,0.739320,-0.347456,0.743224,217.070007,24.709999,-56.419998,19.06
92635,0.747128,-0.282552,0.808616,259.420013,23.660000,-60.759998,19.01
92646,0.760792,-0.177632,0.834968,287.420013,22.190001,-60.830002,19.01
92657,0.777872,-0.127368,0.789096,316.399994,21.000000,-56.840000,19.01
92669,0.777384,-0.156648,0.729560,334.670013,29.540001,-54.389999,19.06
92679,0.701744,-0.218624,0.788120,333.200012,31.780001,-54.950001,19.06
92690,0.682712,-0.322080,0.806176,304.850006,28.070000,-53.480000,19.05
92701,0.664168,-0.257664,0.700768,311.359985,25.620001,-46.130001,19.05
92712,0.599264,0.075152,0.648552,248.570007,18.480000,-34.860001,19.02
92723,0.619272,0.567544,0.635376,105.769997,6.790000,-25.270000,19.04
92734,0.666120,0.565104,0.601704,-31.290001,-0.490000,5.180000,19.04
92746,0.708576,0.270352,0.564616,-157.779999,-3.990000,22.750000,19.01
92757,0.698328,0.160064,0.639280,-235.339996,-15.890000,32.549999,19.01
92768,0.761280,0.152256,0.861808,-288.049988,-24.709999,47.180000,19.04
92779,0.815448,0.028792,0.789096,-307.790009,-32.900002,56.349998,19.04
92790,0.842288,-0.061976,0.821304,-309.540009,-37.520000,63.070000,19.04
92801,0.812520,-0.030744,0.856440,-296.309998,-37.869999,68.529999,19.06
92813,0.724192,0.227896,0.872056,-289.100006,-44.660000,70.000000,19.06
92824,0.683688,0.214232,0.808616,-295.820007,-49.980000,73.430000,19.06
92835,0.657336,0.092232,0.707112,-300.230011,-51.520000,70.910004,19.03
92846,0.716384,-0.307440,0.534848,-274.959991,-48.439999,61.320000,19.03
92858,0.726632,-0.476776,0.439200,-198.729996,-36.259998,50.820000,19.07
92868,0.695888,-0.421632,0.333304,-128.240005,-25.900000,43.189999,19.07
92880,0.680272,-0.477264,0.265960,-74.129997,-13.440000,29.330000,19.07
92891,0.749568,-0.707600,0.206912,-19.389999,-1.400000,15.960000,19.09
92902,0.748104,-0.721752,0.205936,56.630001,6.930000,-3.640000,19.09
92913,0.771528,-0.675880,0.264984,116.410004,15.120000,-17.080000,19.03
92924,0.768112,-0.606584,0.360632,153.369995,24.150000,-33.950001,19.03
92935,0.750056,-0.502152,0.539728,190.539993,29.889999,-48.860001,19.05
92946,0.732488,-0.460672,0.683688,220.289993,31.780001,-59.290001,19.04
92957,0.761768,-0.407968,0.782264,253.610001,30.379999,-67.830002,19.04
92968,0.751520,-0.343064,0.825208,278.670013,27.930000,-71.400002,19.07
92979,0.753960,-0.262056,0.822280,303.100006,28.490000,-70.559998,19.07
92990,0.744688,-0.241560,0.798368,321.089996,29.959999,-68.599998,19.03
93001,0.705160,-0.232288,0.789096,329.350006,31.150000,-67.129997,19.03
93012,0.655384,-0.177144,0.812520,330.890015,26.389999,-64.330002,19.02
93023,0.611464,0.070272,0.802760,294.839996,22.260000,-55.439999,19.05
93035,0.629520,0.299144,0.822280,205.869995,10.150000,-48.020000,19.05
93045,0.658312,0.419680,0.799832,78.680000,0.630000,-31.360001,19.05
93056,0.649040,0.366488,0.668560,-24.010000,-11.970000,-12.530000,19.05
93067,0.702720,0.182512,0.581696,-129.009995,-11.900000,5.950000,19.07
93079,0.729560,0.115168,0.540216,-198.869995,-17.500000,19.670000,19.05
93089,0.787632,0.223992,0.626592,-252.350006,-21.070000,34.020000,19.05
93100,0.787632,0.257176,0.803736,-279.440002,-28.070000,46.970001,19.03
93111,0.777872,0.235704,0.913536,-296.239990,-37.240002,57.889999,19.03
93123,0.821792,0.197640,0.892064,-310.029999,-44.450001,66.430000,19.08
93135,0.742736,0.158600,0.824720,-316.679993,-47.740002,71.330002,19.09
93145,0.686616,0.109312,0.732488,-304.709991,-56.139999,68.739998,19.09
93156,0.716384,-0.011224,0.572912,-290.500000,-51.099998,63.770000,19.08
93167,0.728096,-0.363072,0.475312,-251.789993,-45.150002,55.720001,19.08
93179,0.724680,-0.421144,0.415776,-181.020004,-32.900002,47.389999,19.09
93190,0.716384,-0.387472,0.366976,-118.230003,-21.980000,40.180000,19.05
93200,0.699304,-0.418216,0.336232,-76.930000,-14.770000,30.100000,19.05
93212,0.718824,-0.538264,0.304512,-25.900000,-6.300000,1.680000,19.08
93223,0.774456,-0.635864,0.340624,23.940001,0.070000,6.440000,19.08
93234,0.752008,-0.689544,0.397720,56.630001,2.800000,-8.120000,19.05
93245,0.769088,-0.654896,0.476776,85.959999,7.700000,-21.910000,19.07
93256,0.740296,-0.706624,0.531920,120.540001,10.570000,-36.540001,19.07
93268,0.697840,-0.532896,0.617808,155.050003,13.930000,-48.650002,19.07
93279,0.681736,-0.373320,0.671488,166.600006,17.430000,-57.119999,19.07
93290,0.734440,-0.429440,0.738344,190.119995,17.010000,-66.779999,19.12
93301,0.748592,-0.372832,0.799832,230.789993,14.560000,-73.989998,19.05
93312,0.787144,-0.350384,0.824232,262.149994,13.930000,-76.019997,19.05
93323,0.793488,-0.313296,0.862296,275.940002,16.030001,-74.900002,19.08
93334,0.765672,-0.318176,0.842776,287.700012,13.160000,-74.970001,19.08
93345,0.688568,-0.225944,0.775920,298.339996,9.100000,-70.910004,19.09
93356,0.650016,-0.018544,0.729560,276.570007,4.620000,-64.190002,19.05
93366,0.589992,0.230336,0.713456,226.449997,-2.520000,-51.169998,19.05
93377,0.648064,0.369416,0.718336,124.809998,-10.710000,-39.549999,19.07
93388,0.641232,0.404552,0.654896,1.890000,-21.350000,-22.959999,19.07
93399,0.748592,0.303048,0.506544,-98.910004,-22.680000,-4.830000,19.08
93411,0.755912,0.232776,0.417240,-161.979996,-22.400000,10.920000,19.08
93422,0.790072,0.223016,0.444080,-213.429993,-23.379999,28.700001,19.04
93433,0.816424,0.277184,0.501176,-249.270004,-24.850000,41.369999,19.06
93444,0.871080,0.197152,0.612928,-260.329987,-29.959999,51.799999,19.06
93454,0.849120,0.081496,0.706624,-256.480011,-33.110001,60.340000,19.07
93465,0.841800,0.071736,0.732976,-241.500000,-38.779999,63.490002,19.07
93476,0.816424,0.137616,0.713944,-238.070007,-39.130001,70.070000,19.06
93487,0.776408,0.133712,0.661240,-235.899994,-39.549999,73.010002,19.11
93498,0.740784,0.103456,0.544120,-230.229996,-42.000000,73.360001,19.11
93509,0.766160,-0.126880,0.467992,-213.220001,-37.799999,68.110001,19.05
93520,0.770552,-0.289384,0.420656,-171.990005,-27.510000,63.560001,19.05
93531,0.722728,-0.328424,0.353800,-123.760002,-21.280001,55.720001,19.05
93542,0.724192,-0.424560,0.302560,-81.550003,-11.970000,47.110001,19.07
93559,0.747128,-0.624152,0.285480,-13.930000,-0.420000,27.650000,19.07
93571,0.776408,-0.704184,0.310856,29.889999,5.670000,16.030001,19.11
93582,0.770552,-0.704184,0.381128,63.490002,10.290000,1.330000,19.08
93593,0.751520,-0.722240,0.427976,105.209999,14.910000,-13.230000,19.08
93604,0.728584,-0.603168,0.514840,111.580002,19.320000,-27.020000,19.07
93615,0.728584,-0.543144,0.562176,129.990005,24.080000,-37.869999,19.07
93626,0.711504,-0.558760,0.625616,162.820007,24.920000,-52.360001,19.05
93637,0.750544,-0.477752,0.699304,195.089996,24.570000,-64.540001,19.08
93648,0.778360,-0.421632,0.766160,230.649994,23.030001,-72.029999,19.08
93659,0.803248,-0.404552,0.795440,271.040009,21.980000,-76.230003,19.09
93670,0.795928,-0.290360,0.829112,298.200012,22.889999,-77.910004,19.09
93681,0.749080,-0.156648,0.819352,315.279999,23.170000,-76.370003,19.08
93692,0.691984,-0.085888,0.840824,306.250000,20.510000,-73.290001,19.05
93702,0.640744,-0.037088,0.851072,294.209991,13.510000,-64.820000,19.05
93713,0.669536,0.063440,0.780312,256.059998,10.150000,-60.130001,19.03
93724,0.610488,0.278648,0.767624,177.589996,-2.240000,-47.669998,19.03
93735,0.660264,0.421144,0.659776,94.570000,-15.400000,-31.360001,19.05
93746,0.766160,0.367952,0.436272,-28.350000,-14.980000,-11.200000,19.05
93757,0.791536,0.198616,0.381128,-124.320000,-9.310000,4.620000,19.09
93768,0.747128,0.133712,0.463112,-186.410004,-11.900000,20.650000,19.05
93779,0.789096,0.302072,0.580720,-224.070007,-17.430000,39.130001,19.05
93790,0.814960,0.401624,0.721752,-261.799988,-24.850000,50.259998,19.08
93801,0.839360,0.283528,0.768600,-280.140015,-36.259998,60.759998,19.08
93812,0.845216,0.137128,0.779824,-276.220001,-40.669998,66.919998,19.08
93823,0.800320,0.142008,0.784216,-268.730011,-42.840000,73.849998,19.05
93834,0.752008,0.159576,0.722728,-262.920013,-49.560001,76.860001,19.05
93845,0.748104,0.081984,0.605608,-256.619995,-51.240002,76.650002,19.05
93856,0.769088,-0.116144,0.455304,-246.820007,-45.849998,72.169998,19.05
93868,0.765184,-0.281088,0.389912,-196.979996,-38.709999,66.360001,19.06
93879,0.710528,-0.278160,0.315736,-143.080002,-26.459999,57.470001,19.04
93890,0.705648,-0.371856,0.281088,-100.940002,-16.170000,46.410000,19.04
93901,0.734440,-0.589992,0.254248,-43.330002,-5.670000,34.790001,19.07
93912,0.791536,-0.692472,0.264008,7.630000,1.260000,20.230000,19.07
93923,0.804712,-0.737856,0.273280,52.290001,7.560000,4.480000,19.10
93934,0.802272,-0.791048,0.320128,100.449997,13.300000,-9.450000,19.09
93945,0.752496,-0.610976,0.385520,132.649994,19.530001,-23.240000,19.09
93956,0.736880,-0.469944,0.514352,143.500000,25.620001,-36.400002,19.11
93967,0.716384,-0.482144,0.626104,162.679993,27.230000,-45.709999,19.11
93978,0.740296,-0.484096,0.690032,184.800003,27.930000,-58.099998,19.08
93989,0.757864,-0.448472,0.745176,223.860001,27.020000,-67.760002,19.08
94000,0.778848,-0.367952,0.800808,264.459991,25.900000,-73.849998,19.05
94011,0.764208,-0.232288,0.819840,290.570007,22.889999,-74.339996,19.06
94022,0.755912,-0.096624,0.836432,293.019989,19.879999,-70.980003,19.06
94033,0.737856,-0.022936,0.852048,285.179993,17.080000,-65.519997,19.12
94044,0.682224,0.061000,0.838872,258.859985,14.700000,-60.200001,19.12
94055,0.687104,0.067344,0.824232,206.500000,7.910000,-55.369999,19.05
94066,0.687104,-0.053680,0.789584,163.309998,0.420000,-48.230000,19.08
94077,0.701256,-0.021960,0.639280,98.000000,-10.080000,-37.450001,19.08
94088,0.764208,0.254248,0.533872,2.450000,-11.690000,-24.010000,19.06
94099,0.774456,0.421144,0.514840,-78.120003,-9.380000,0.910000,19.06
94110,0.738832,0.395768,0.541680,-169.050003,-12.390000,20.719999,19.04
94121,0.738832,0.376736,0.570472,-236.600006,-21.490000,33.599998,19.03
94132,0.798368,0.270840,0.618784,-273.839996,-29.049999,45.990002,19.03
94143,0.841312,0.075152,0.658312,-279.790009,-37.799999,51.799999,19.05
94154,0.865224,0.003904,0.719312,-266.910004,-40.180000,56.630001,19.05
94165,0.822280,0.050752,0.749080,-248.500000,-39.689999,62.790001,19.05
94176,0.782264,0.125416,0.702232,-242.759995,-41.160000,68.040001,19.05
94187,0.772992,0.123464,0.621712,-235.270004,-42.700001,71.120003,19.05
94198,0.737368,0.055144,0.526064,-224.910004,-40.740002,69.440002,19.07
94209,0.735904,-0.162504,0.429440,-193.550003,-35.070000,63.139999,19.07
94220,0.758840,-0.320128,0.373808,-154.419998,-26.459999,56.000000,19.07
94232,0.755424,-0.402600,0.333792,-108.639999,-14.770000,45.919998,19.07
94243,0.762744,-0.554368,0.289384,-55.720001,-7.980000,33.459999,19.07
94253,0.776896,-0.671976,0.267912,7.350000,-0.420000,21.490000,19.05
94264,0.793000,-0.679784,0.240584,53.619999,8.120000,4.830000,19.05
94276,0.787144,-0.675392,0.290360,106.400002,14.420000,-12.250000,19.09
94287,0.775432,-0.572424,0.407968,147.210007,23.450001,-24.150000,19.09
94297,0.757864,-0.535336,0.495808,168.979996,29.330000,-38.919998,19.04
94309,0.748104,-0.482144,0.629032,200.830002,31.850000,-53.130001,19.07
94320,0.751032,-0.379664,0.700280,230.300003,30.520000,-61.810001,19.07
94331,0.757864,-0.265472,0.699792,248.850006,30.030001,-65.870003,19.09
94342,0.779336,-0.172752,0.709552,261.799988,29.750000,-65.589996,19.09
94353,0.763720,-0.122976,0.695400,271.809998,29.469999,-62.860001,19.07
94364,0.761280,-0.109312,0.722240,269.429993,33.110001,-61.250000,19.07
94375,0.706136,-0.104920,0.783240,255.990005,32.200001,-59.639999,19.07
94386,0.679296,-0.079544,0.841312,234.289993,27.650000,-54.950001,19.10
94397,0.702720,-0.029768,0.845216,191.940002,21.280001,-50.959999,19.10
94408,0.687104,0.022448,0.765672,141.399994,9.660000,-42.279999,19.09
94418,0.728096,0.254736,0.579256,78.680000,2.100000,-28.980000,19.09
94429,0.805200,0.373320,0.514840,-30.660000,7.000000,-7.350000,19.11
94440,0.744200,0.301584,0.570960,-120.959999,5.810000,9.450000,19.05
94451,0.695400,0.307928,0.633912,-178.500000,-1.050000,26.670000,19.05
94462,0.751032,0.333304,0.731024,-239.820007,-10.920000,38.080002,19.10
94473,0.784216,0.251320,0.795440,-271.809998,-24.639999,49.000000,19.10
94484,0.830088,0.130784,0.825696,-278.880005,-31.219999,57.119999,19.07
94495,0.800808,0.111264,0.826184,-277.410004,-34.860001,65.379997,19.09
94506,0.753472,0.146400,0.808128,-280.559998,-37.380001,70.839996,19.09
94517,0.724680,0.089792,0.736392,-270.549988,-44.450001,72.800003,19.06
94528,0.731024,-0.009760,0.625128,-258.019989,-42.279999,71.540001,19.06
94539,0.733464,-0.142984,0.502152,-227.570007,-38.080002,65.379997,19.10
94550,0.716872,-0.295240,0.435296,-172.199997,-28.700001,58.240002,19.11
94561,0.709064,-0.353800,0.378688,-111.230003,-17.570000,47.250000,19.11
94572,0.728096,-0.482144,0.345504,-77.980003,-8.890000,35.980000,19.09
94586,0.765672,-0.641232,0.316224,-9.380000,-1.330000,19.600000,19.09
94597,0.772992,-0.611464,0.389424,40.810001,4.970000,5.740000,19.09
94608,0.766160,-0.651968,0.424560,69.089996,9.870000,-4.060000,19.11
94619,0.766160,-0.721264,0.487024,119.489998,12.670000,-19.250000,19.11
94630,0.751032,-0.615856,0.540704,135.520004,15.680000,-33.040001,19.11
94641,0.728584,-0.532408,0.592920,155.679993,20.930000,-42.279999,19.11
94652,0.708576,-0.464576,0.610000,176.470001,23.100000,-52.779999,19.08
94663,0.728096,-0.379664,0.637816,198.029999,26.110001,-60.270000,19.12
94674,0.730536,-0.298656,0.693448,226.449997,26.879999,-64.470001,19.12
94685,0.762256,-0.292800,0.717360,260.959991,28.910000,-68.459999,19.07
94696,0.792024,-0.322568,0.747616,315.140015,29.680000,-72.099998,19.07
94707,0.740784,-0.235704,0.750056,333.480011,31.639999,-73.290001,19.09
94718,0.736880,-0.171288,0.704184,351.260010,33.389999,-71.470001,19.08
94729,0.674416,0.043432,0.709552,339.850006,32.689999,-65.870003,19.08
94740,0.611464,0.252784,0.746640,296.239990,23.799999,-57.470001,19.07
94751,0.620248,0.334768,0.779336,212.309998,14.490000,-51.240002,19.07
94762,0.667096,0.350384,0.731512,109.059998,2.380000,-38.080002,19.08
94773,0.676856,0.404064,0.590968,16.240000,-5.740000,-20.930000,19.08
94784,0.747616,0.347944,0.549488,-99.330002,-4.830000,1.260000,19.08
94795,0.734440,0.271328,0.557784,-184.169998,-6.370000,16.030001,19.09
94806,0.733464,0.342576,0.633424,-227.289993,-13.720000,32.689999,19.09
94817,0.775432,0.395280,0.737368,-269.640015,-19.600000,46.689999,19.13
94827,0.831552,0.364536,0.765184,-290.079987,-26.950001,58.590000,19.13
94838,0.789096,0.363072,0.800320,-305.480011,-29.959999,69.650002,19.12
94849,0.733952,0.401624,0.797880,-322.209991,-33.810001,80.150002,19.11
94860,0.657336,0.357704,0.736880,-337.820007,-41.720001,81.339996,19.11
94871,0.633912,0.187392,0.650016,-342.440002,-50.189999,76.510002,19.10
94882,0.680272,-0.236680,0.530944,-314.440002,-55.090000,65.589996,19.10
94893,0.802760,-0.467992,0.492392,-240.309998,-40.599998,60.410000,19.05
94904,0.732000,-0.504104,0.456768,-156.660004,-29.820000,52.709999,19.07
94916,0.716384,-0.479704,0.383568,-103.879997,-17.360001,42.070000,19.07
94927,0.725168,-0.508008,0.307928,-46.970001,-5.320000,31.500000,19.07
94938,0.723216,-0.565104,0.274744,8.890000,2.100000,17.290001,19.07
94949,0.752984,-0.660264,0.241560,64.750000,12.110000,3.570000,19.13
94960,0.762744,-0.671000,0.324032,118.860001,17.709999,-14.700000,19.13
94971,0.758352,-0.515816,0.474336,160.160004,25.059999,-29.330000,19.08
94982,0.753960,-0.533384,0.614880,194.669998,30.590000,-41.720001,19.07
94992,0.738832,-0.511912,0.688080,249.759995,31.850000,-54.810001,19.07
95004,0.738832,-0.367952,0.743712,273.700012,32.900002,-63.490002,19.08
95015,0.726144,-0.227408,0.765672,303.239990,33.459999,-67.129997,19.08
95026,0.720776,-0.209352,0.774456,324.029999,32.270000,-68.809998,19.11
95037,0.727120,-0.162504,0.804224,336.980011,31.570000,-68.879997,19.10
95048,0.717848,-0.106872,0.814960,330.959991,33.740002,-66.849998,19.10
95059,0.650016,-0.093696,0.853024,311.429993,30.030001,-64.540001,19.14
95070,0.663192,-0.061000,0.855952,291.200012,28.629999,-65.029999,19.14
95081,0.606096,0.045384,0.828624,263.269989,17.780001,-56.910000,19.05
95092,0.625128,0.164456,0.721264,211.820007,9.730000,-49.770000,19.06
95103,0.700280,0.282552,0.657824,133.979996,6.230000,-42.700001,19.06
95113,0.664168,0.392840,0.690032,59.009998,-3.150000,-28.139999,19.07
95124,0.664656,0.619760,0.671488,-44.380001,-9.660000,-7.910000,19.07
95135,0.697352,0.587064,0.637328,-152.949997,-10.360000,9.240000,19.10
95146,0.663680,0.562664,0.656848,-224.910004,-16.450001,25.410000,19.10
95157,0.686128,0.479216,0.706624,-290.570007,-24.850000,38.779999,19.07
95168,0.719800,0.397232,0.869128,-332.989990,-34.580002,46.060001,19.08
95179,0.756888,0.259616,0.760304,-347.829987,-41.790001,53.689999,19.08
95190,0.767136,0.130296,0.743224,-344.260010,-44.380001,57.680000,19.07
95201,0.749568,0.085888,0.759328,-333.480011,-48.720001,57.959999,19.07
95212,0.733464,0.072712,0.751520,-323.540009,-50.470001,60.549999,19.12
95223,0.695400,0.039040,0.708576,-307.369995,-52.009998,62.439999,19.08
95234,0.704184,-0.041480,0.596336,-288.119995,-46.689999,60.619999,19.08
95245,0.680272,-0.207888,0.504592,-251.649994,-42.490002,53.689999,19.08
95256,0.720288,-0.457256,0.463600,-177.660004,-31.010000,44.099998,19.08
95268,0.726144,-0.488000,0.426024,-96.739998,-19.670000,33.110001,19.09
95279,0.747616,-0.478240,0.419680,-56.349998,-10.850000,23.100000,19.10
95290,0.756888,-0.538752,0.447984,-6.580000,-3.780000,10.780000,19.10
95302,0.756400,-0.628544,0.466528,42.770000,0.140000,-5.180000,19.11
95313,0.772016,-0.592920,0.477264,87.150002,4.130000,-16.170000,19.11
95324,0.778848,-0.588528,0.453352,117.040001,12.040000,-29.889999,19.12
95335,0.732000,-0.553880,0.546072,152.320007,17.010000,-46.340000,19.09
95346,0.734928,-0.505568,0.604632,184.800003,18.760000,-57.680000,19.09
95357,0.765672,-0.497760,0.672952,218.750000,21.910000,-66.500000,19.09
95368,0.776408,-0.418704,0.718824,253.539993,22.330000,-73.989998,19.09
95379,0.763720,-0.272304,0.790560,290.570007,22.120001,-76.790001,19.06
95390,0.765672,-0.190808,0.863760,311.079987,25.480000,-77.489998,19.09
95401,0.729072,-0.262544,0.876448,327.950012,21.559999,-77.000000,19.09
95412,0.695888,-0.274744,0.783728,348.809998,22.190001,-76.019997,19.10
95423,0.612928,-0.084424,0.718824,362.670013,21.070000,-71.050003,19.10
95435,0.616832,0.138104,0.674904,339.010010,18.129999,-67.059998,19.09
95445,0.512400,0.476776,0.645136,250.179993,0.630000,-54.110001,19.13
95456,0.596336,0.640744,0.566080,137.410004,-14.280000,-39.830002,19.13
95467,0.688568,0.590480,0.434320,-20.299999,-15.470000,-24.010000,19.09
95478,0.650992,0.419192,0.366488,-156.169998,-15.400000,-0.910000,19.09
95489,0.683200,0.394304,0.346480,-230.300003,-15.890000,18.410000,19.09
95500,0.768112,0.575352,0.434320,-309.959991,-19.389999,46.270000,19.09
95511,0.832040,0.676368,0.554856,-378.910004,-24.850000,63.139999,19.09
95522,0.842288,0.534360,0.722240,-405.440002,-31.219999,79.800003,19.11
95533,0.824720,0.204960,0.895968,-399.420013,-41.160000,89.529999,19.11
95544,0.845704,0.141032,1.012112,-370.790009,-51.380001,95.059998,19.08
95555,0.826672,0.204472,1.009672,-350.209991,-58.169998,103.739998,19.08
95566,0.741760,0.187880,0.828624,-334.600006,-66.500000,99.959999,19.10
95577,0.786656,0.055632,0.561200,-315.279999,-62.369999,100.379997,19.08
95593,0.677832,-0.210816,0.210816,-247.940002,-42.419998,81.970001,19.08
95604,0.580720,-0.457256,0.022936,-173.740005,-24.360001,67.269997,19.05
95615,0.598288,-0.796416,-0.045872,-71.120003,-10.430000,48.439999,19.08
95627,0.690520,-0.984296,0.024400,13.650000,3.010000,25.059999,19.08
95638,0.793488,-0.991616,0.212768,89.739998,9.800000,3.640000,19.14
95648,0.842776,-1.000888,0.375760,138.389999,18.480000,-11.830000,19.14
95659,0.723216,-0.794952,0.623176,165.339996,21.700001,-28.840000,19.12
95670,0.646112,-0.586576,0.681736,153.020004,21.910000,-41.230000,19.05
95681,0.697352,-0.789584,0.616344,169.399994,25.760000,-55.439999,19.05
95692,0.669536,-0.681248,0.563640,227.990005,31.850000,-71.610001,19.04
95703,0.661240,-0.446520,0.560712,303.940002,38.849998,-83.160004,19.04
95714,0.688080,-0.253272,0.662216,388.570007,45.990002,-94.500000,19.11
95725,0.688568,-0.008296,0.829600,449.049988,42.000000,-102.059998,19.11
95736,0.751520,0.117120,0.902312,497.489990,38.500000,-98.910004,19.09
95746,0.796416,0.164944,0.913048,520.450012,35.139999,-90.860001,19.10
95757,0.755912,0.161040,0.890112,519.820007,35.910000,-82.529999,19.10
95768,0.695400,0.094672,0.911096,484.329987,29.889999,-76.440002,19.12
95779,0.602680,0.073200,0.991128,390.320007,14.280000,-66.080002,19.12
95790,0.569008,0.312320,0.758352,273.769989,-1.820000,-47.529999,19.09
95801,0.442128,0.590968,0.456280,84.489998,-14.980000,-27.440001,19.07
95812,0.481168,0.659776,0.243024,-115.570000,-21.910000,-2.030000,19.07
95823,0.730536,0.698816,0.072224,-250.250000,-9.170000,24.780001,19.15
95834,0.786656,0.771528,0.180560,-387.730011,-15.260000,45.639999,19.15
95845,0.733952,0.627080,0.619272,-474.109985,-38.220001,59.080002,19.09
95856,0.897920,0.307440,0.887184,-480.339996,-36.540001,75.879997,19.09
95867,0.944768,0.052704,1.027240,-455.769989,-54.599998,82.669998,19.12
95878,0.927688,0.143472,1.210240,-404.809998,-57.470001,90.720001,19.08
95889,0.835944,0.447984,1.131672,-385.769989,-61.599998,100.940002,19.08
95900,0.679784,0.548024,0.915488,-409.149994,-71.750000,104.440002,19.12
95911,0.706136,0.226920,0.617808,-405.510010,-79.870003,98.279999,19.12
95922,0.732000,-0.001464,0.311832,-358.959991,-66.360001,93.800003,19.12
95933,0.619760,-0.234728,0.154208,-282.100006,-48.720001,76.440002,19.11
95944,0.551440,-0.411872,-0.055632,-205.869995,-32.270000,58.660000,19.11
95955,0.606096,-0.717848,-0.135664,-108.430000,-16.870001,39.549999,19.10
95966,0.746640,-0.956968,-0.079544,-0.210000,-3.220000,20.719999,19.10
95977,0.847656,-0.952576,0.090768,79.519997,11.270000,4.970000,19.12
95988,0.837408,-0.839848,0.396256,107.519997,15.750000,-8.470000,19.09
95999,0.779336,-0.787632,0.651968,117.599998,14.280000,-22.049999,19.09
96010,0.689544,-0.697840,0.752496,107.800003,12.040000,-29.190001,19.12
96021,0.635864,-0.646600,0.701744,97.580002,9.870000,-40.459999,19.12
96032,0.627080,-0.488976,0.562176,98.209999,13.020000,-49.139999,19.16
96043,0.672464,-0.548024,0.307928,126.279999,19.600000,-60.200001,19.12
96054,0.691984,-0.424072,0.262056,203.210007,30.940001,-71.190002,19.12
96065,0.787144,-0.342088,0.307440,289.940002,41.090000,-83.300003,19.14
96076,0.828624,-0.191296,0.522648,409.920013,49.349998,-99.190002,19.14
96087,0.853512,0.013176,0.697840,517.090027,53.549999,-101.500000,19.10
96098,0.839848,0.264008,0.800808,575.609985,53.410000,-98.419998,19.10
96109,0.814472,0.389912,0.928176,573.719971,52.009998,-86.239998,19.09
96120,0.725656,0.420168,1.023824,513.380005,52.570000,-78.050003,19.12
96131,0.592432,0.270352,1.207800,407.820007,33.040001,-67.760002,19.12
96142,0.476776,0.165920,0.922320,259.209991,11.200000,-45.919998,19.13
96153,0.454328,0.360632,0.536800,77.910004,3.360000,-29.120001,19.13
96164,0.416264,0.559736,0.301584,-112.839996,-11.690000,-3.640000,19.14
96176,0.739320,0.695400,0.108824,-264.600006,-12.880000,34.020000,19.09
96187,0.794952,0.841800,0.349896,-381.570007,-12.880000,60.200001,19.09
96198,0.768112,0.597312,0.797392,-451.850006,-27.090000,77.349998,19.10
96209,0.830576,0.321592,1.019432,-432.880005,-43.189999,83.510002,19.10
96219,0.878888,0.234728,1.099952,-394.519989,-55.020000,91.419998,19.13
96230,0.870104,0.295240,1.086288,-384.649994,-55.930000,103.389999,19.10
96241,0.727120,0.382592,0.915488,-371.070007,-60.270000,102.410004,19.10
96253,0.656848,0.363072,0.701256,-373.450012,-72.730003,99.680000,19.14
96263,0.691984,0.011712,0.432856,-358.959991,-66.080002,95.550003,19.14
96274,0.699792,-0.366488,0.299632,-295.049988,-58.099998,80.290001,19.14
96285,0.672952,-0.463600,0.208864,-208.110001,-42.490002,70.000000,19.15
96297,0.631960,-0.527528,0.129320,-129.220001,-26.110001,55.509998,19.15
96308,0.671976,-0.705160,0.129320,-66.709999,-14.070000,39.200001,19.11
96319,0.774456,-0.841800,0.156648,8.750000,-3.220000,24.150000,19.11
96330,0.795440,-0.849608,0.219600,68.389999,5.320000,8.890000,19.12
96341,0.802760,-0.781288,0.363560,96.110001,11.900000,-7.280000,19.12
96352,0.761768,-0.857904,0.418704,123.690002,15.680000,-23.730000,19.17
96363,0.686616,-0.631960,0.518744,144.830002,20.370001,-34.580002,19.12
96374,0.677344,-0.539728,0.528992,147.490005,24.080000,-47.389999,19.12
96385,0.729072,-0.619760,0.522648,180.179993,31.780001,-60.970001,19.09
96396,0.746152,-0.590968,0.559248,264.459991,37.099998,-75.459999,19.09
96407,0.754936,-0.411872,0.634400,363.929993,41.790001,-84.489998,19.12
96418,0.754448,-0.176656,0.734928,437.220001,44.380001,-92.260002,19.07
96429,0.766648,0.002928,0.789584,507.149994,45.639999,-93.589996,19.07
96439,0.748592,0.106872,0.799832,552.020020,46.759998,-92.330002,19.09
96450,0.721264,0.216184,0.773968,565.599976,47.529999,-85.540001,19.09
96462,0.641720,0.371368,0.853512,551.809998,44.169998,-77.000000,19.11
96473,0.572912,0.474336,0.860832,488.320007,33.320000,-67.690002,19.16
96484,0.594384,0.417728,0.830576,387.380005,20.650000,-60.340000,19.16
96494,0.608536,0.412848,0.732000,279.089996,13.580000,-46.830002,19.14
96505,0.542168,0.588528,0.462624,101.430000,-0.140000,-18.480000,19.14
96516,0.546072,0.648552,0.248880,-78.889999,-10.220000,0.420000,19.11
96527,0.729072,0.604632,0.089304,-204.679993,6.160000,19.740000,19.11
96538,0.717848,0.632936,0.263520,-330.399994,8.960000,38.639999,19.13
96549,0.681736,0.666608,0.488976,-408.799988,-27.020000,51.029999,19.15
96560,0.762744,0.663680,0.794464,-481.250000,-35.139999,66.919998,19.15
96574,0.875472,0.382592,0.855952,-486.079987,-49.279999,81.480003,19.11
96585,0.816912,0.196176,0.876936,-480.829987,-58.939999,72.870003,19.11
96596,0.805200,0.070760,0.901336,-454.790009,-61.320000,79.730003,19.11
96610,0.767136,-0.033672,0.828136,-401.450012,-59.430000,86.660004,19.14
96621,0.698328,0.009272,0.728096,-374.640015,-67.550003,85.400002,19.07
96632,0.710528,0.005368,0.649528,-358.399994,-65.940002,84.489998,19.07
96643,0.658312,-0.200568,0.485072,-330.049988,-61.950001,76.019997,19.11
96654,0.670024,-0.393816,0.384544,-263.690002,-50.540001,69.160004,19.11
96665,0.650016,-0.486536,0.292312,-182.000000,-34.160000,54.880001,19.13
96677,0.624640,-0.528504,0.196664,-114.800003,-17.780001,41.020000,19.13
96688,0.664656,-0.792024,0.070760,-49.419998,-6.930000,20.299999,19.11
96699,0.774456,-0.872056,0.064416,40.389999,7.560000,2.310000,19.07
96710,0.780800,-0.864248,0.025864,104.930000,21.000000,-13.650000,19.07
96721,0.805200,-0.870104,0.151280,163.729996,30.030001,-35.419998,19.14
96731,0.743712,-0.577304,0.344528,206.710007,37.240002,-51.520000,19.14
96742,0.799832,-0.583648,0.436760,249.410004,43.750000,-65.870003,19.14
96753,0.814472,-0.534848,0.585600,329.700012,47.810001,-82.040001,19.16
96764,0.726632,-0.133224,0.739320,420.980011,55.369999,-93.519997,19.16
96775,0.665144,0.073688,0.839848,476.420013,51.029999,-96.040001,19.17
96786,0.703208,0.213744,0.958432,500.850006,47.740002,-94.919998,19.17
96797,0.738344,0.194712,1.019920,512.609985,47.459999,-90.160004,19.15
96808,0.720288,0.120536,1.083848,494.130005,39.689999,-83.370003,19.12
96819,0.646112,0.182512,1.058472,452.059998,28.209999,-77.000000,19.12
96829,0.592920,0.136152,1.043832,357.140015,23.100000,-71.050003,19.11
96840,0.505568,0.110776,0.820328,237.020004,2.800000,-58.939999,19.11
96851,0.538752,0.271816,0.445544,104.930000,-7.000000,-39.900002,19.16
96862,0.578280,0.388448,0.173240,-64.400002,-11.130000,-17.850000,19.16
96874,0.584136,0.609512,0.244488,-225.050003,-10.150000,7.630000,19.14
96884,0.708088,0.866688,0.377712,-360.779999,-14.210000,39.060001,19.08
96895,0.670024,0.732976,0.731512,-441.209991,-37.310001,48.020000,19.08
96907,0.819352,0.353312,0.976000,-482.649994,-46.130001,59.220001,19.12
96918,0.914512,0.080520,1.016504,-455.700012,-59.919998,68.949997,19.12
96929,0.859856,0.086376,1.026752,-416.920013,-59.080002,73.989998,19.11
96940,0.799344,0.191784,0.955992,-384.230011,-63.980000,76.510002,19.12
96952,0.760792,0.315248,0.793488,-379.750000,-65.239998,79.800003,19.12
96964,0.689056,0.180072,0.603656,-366.380005,-66.010002,78.120003,19.13
96975,0.689544,-0.136152,0.439688,-340.480011,-62.230000,71.400002,19.13
96986,0.727120,-0.460184,0.326472,-259.070007,-48.509998,60.619999,19.18
96997,0.669048,-0.476288,0.232288,-161.279999,-30.170000,49.279999,19.15
97008,0.654408,-0.400160,0.173728,-93.029999,-13.580000,39.130001,19.15
97019,0.656360,-0.562664,0.143472,-20.930000,-3.220000,20.580000,19.11
97030,0.770552,-0.735904,0.193736,34.230000,5.250000,5.390000,19.11
97042,0.798856,-0.764208,0.260104,91.000000,14.070000,-12.740000,19.18
97053,0.821304,-0.854000,0.300120,145.110001,21.490000,-26.809999,19.10
97064,0.728584,-0.551928,0.484584,181.089996,27.930000,-42.560001,19.10
97075,0.678808,-0.454328,0.625128,192.149994,30.309999,-56.070000,19.15
97086,0.734440,-0.471408,0.765184,224.279999,31.990000,-66.290001,19.15
97097,0.733952,-0.386008,0.805688,265.369995,32.619999,-77.000000,19.11
97108,0.730536,-0.270352,0.827160,295.399994,30.030001,-82.180000,19.11
97119,0.730536,-0.143960,0.857904,330.190002,28.980000,-82.529999,19.11
97130,0.726144,0.004392,0.852536,358.399994,26.459999,-80.500000,19.12
97141,0.729560,0.087352,0.836432,369.670013,28.910000,-74.550003,19.12
97152,0.708088,0.118096,0.825696,354.480011,23.870001,-66.639999,19.13
97163,0.684176,0.052704,0.879864,315.559998,21.700001,-63.349998,19.13
97174,0.585600,-0.027328,0.876448,258.579987,7.140000,-53.900002,19.13
97185,0.719800,0.203984,0.651968,182.770004,0.280000,-44.660000,19.16
97196,0.579744,0.444080,0.497760,54.599998,-8.750000,-26.950001,19.16
97207,0.668560,0.581696,0.406992,-98.910004,-8.400000,-3.080000,19.15
97218,0.701256,0.548512,0.378200,-206.779999,-11.410000,21.559999,19.15
97229,0.728096,0.423584,0.506544,-311.429993,-16.870001,41.299999,19.13
97240,0.793488,0.387960,0.699304,-361.200012,-29.049999,56.070000,19.13
97251,0.845216,0.233752,0.826672,-382.549988,-40.599998,70.419998,19.13
97262,0.907680,0.076616,0.938912,-361.970001,-48.720001,80.570000,19.14
97273,0.879864,0.181536,0.967216,-345.100006,-51.029999,88.900002,19.14
97284,0.759816,0.334280,0.959896,-344.260010,-53.060001,92.680000,19.15
97296,0.670512,0.307440,0.751520,-338.660004,-61.669998,90.440002,19.13
97307,0.710040,0.113704,0.475800,-326.410004,-58.099998,87.220001,19.13
97318,0.703208,-0.263032,0.292312,-278.880005,-48.439999,72.800003,19.12
97329,0.700280,-0.424560,0.133712,-192.429993,-29.610001,62.090000,19.12
97340,0.644160,-0.528992,-0.021472,-106.540001,-14.350000,45.849998,19.11
97351,0.688080,-0.698816,-0.039040,-14.280000,2.030000,31.080000,19.13
97362,0.779824,-0.930128,-0.026352,75.879997,17.639999,9.100000,19.13
97374,0.822768,-0.945744,0.095648,149.169998,27.860001,-14.980000,19.12
97385,0.811544,-0.666608,0.361120,204.610001,35.560001,-35.139999,19.12
97396,0.749568,-0.691496,0.601216,233.729996,45.500000,-49.980000,19.15
97407,0.767136,-0.695400,0.748592,302.399994,48.509998,-65.660004,19.12
97418,0.700280,-0.404552,0.858392,350.980011,53.549999,-78.610001,19.12
97429,0.653432,-0.194712,0.897920,396.410004,50.750000,-85.750000,19.15
97440,0.632448,-0.055144,0.943304,436.940002,46.130001,-89.599998,19.15
97451,0.684664,0.051240,0.948672,482.929993,41.369999,-85.680000,19.16
97462,0.704184,0.060024,0.930128,484.329987,41.509998,-83.510002,19.11
97473,0.693936,0.056608,0.915976,464.869995,36.189999,-77.699997,19.11
97484,0.670024,0.012688,0.871568,425.179993,25.480000,-75.599998,19.09
97495,0.609024,0.119560,0.882304,367.920013,19.809999,-64.190002,19.09
97506,0.435784,0.467504,0.814472,236.529999,-4.340000,-46.830002,19.14
97517,0.487024,0.543144,0.577304,55.720001,-19.459999,-29.469999,19.14
97528,0.612440,0.594872,0.360632,-134.119995,-21.420000,-10.920000,19.14
97539,0.678320,0.630008,0.322568,-274.679993,-10.780000,17.780001,19.13
97550,0.655872,0.630984,0.476288,-386.260010,-15.680000,38.570000,19.13
97561,0.782264,0.586088,0.671976,-450.170013,-38.080002,50.470001,19.16
97572,0.842776,0.354776,0.882304,-470.190002,-59.500000,58.590000,19.16
97584,0.958432,0.255712,1.015040,-456.190002,-52.919998,74.410004,19.15
97594,0.872544,0.266448,0.959408,-433.720001,-59.990002,75.459999,19.09
97605,0.734440,0.390888,0.940376,-428.890015,-60.830002,80.849998,19.09
97622,0.660264,0.286456,0.627568,-413.209991,-66.150002,78.400002,19.16
97633,0.721752,-0.094184,0.417240,-355.320007,-65.660004,63.840000,19.12
97644,0.739320,-0.340624,0.282552,-276.570007,-44.799999,57.610001,19.12
97655,0.654408,-0.373808,0.143472,-172.059998,-29.610001,47.880001,19.19
97666,0.647576,-0.412848,0.059048,-87.080002,-12.390000,38.500000,19.15
97677,0.710528,-0.643184,0.038064,-15.470000,1.120000,21.629999,19.15
97688,0.797880,-0.684664,0.123464,66.709999,13.090000,5.250000,19.12
97699,0.807152,-0.645136,0.327936,109.620003,18.969999,-7.770000,19.12
97710,0.768112,-0.732488,0.490928,147.490005,22.959999,-23.170000,19.15
97721,0.710040,-0.507520,0.741760,157.080002,24.639999,-34.230000,19.15
97733,0.679296,-0.538752,0.851560,147.210007,20.160000,-45.849998,19.14
97744,0.662216,-0.547536,0.865224,160.860001,19.320000,-58.240002,19.16
97755,0.672464,-0.467016,0.847656,181.720001,17.430000,-66.709999,19.16
97766,0.710528,-0.412360,0.793976,206.779999,18.410000,-74.760002,19.17
97777,0.728096,-0.359656,0.815936,255.220001,16.520000,-83.300003,19.17
97788,0.767624,-0.317200,0.847168,304.010010,13.650000,-88.269997,19.16
97799,0.804712,-0.317200,0.853024,336.769989,11.550000,-91.489998,19.14
97810,0.787632,-0.264984,0.819840,357.209991,10.920000,-91.769997,19.14
97821,0.725656,-0.184464,0.880840,366.380005,11.480000,-93.449997,19.14
97832,0.618784,-0.066368,0.928176,334.809998,10.220000,-90.300003,19.14
97843,0.543144,0.070272,0.858880,275.799988,-5.950000,-82.250000,19.19
97853,0.526552,0.345504,0.687592,165.619995,-15.470000,-70.980003,19.16
97864,0.545584,0.343064,0.374784,51.380001,-26.110001,-57.119999,19.16
97875,0.643184,0.471408,0.217648,-38.500000,-25.760000,-35.139999,19.16
97887,0.693936,0.603168,0.120048,-144.270004,-19.530001,-12.460000,19.16
97898,0.674904,0.657824,0.369416,-233.169998,-19.040001,3.430000,19.14
97909,0.746640,0.586088,0.538264,-291.269989,-26.740000,15.960000,19.14
97920,0.861808,0.389424,0.649528,-313.459991,-33.110001,29.330000,19.14
97931,0.920368,0.256200,0.775920,-299.600006,-35.490002,40.880001,19.13
97942,0.913536,0.250344,0.823744,-275.029999,-37.520000,49.070000,19.13
97954,0.861808,0.293288,0.803736,-266.489990,-39.689999,56.910000,19.15
97965,0.779336,0.320128,0.813496,-271.809998,-41.090000,56.910000,19.18
97976,0.777384,0.248392,0.802760,-274.609985,-48.439999,62.090000,19.18
97987,0.772016,0.131760,0.725656,-265.440002,-51.939999,61.950001,19.14
97998,0.764696,0.091744,0.601704,-253.190002,-50.049999,64.050003,19.14
98009,0.731024,-0.060512,0.517768,-221.970001,-45.080002,61.669998,19.13
98020,0.714920,-0.226432,0.389912,-164.779999,-32.130001,56.910000,19.13
98031,0.673928,-0.284504,0.329400,-128.520004,-23.030001,46.759998,19.18
98042,0.669536,-0.426024,0.216672,-67.129997,-9.380000,36.750000,19.13
98053,0.719800,-0.460184,0.198128,-6.300000,4.900000,24.990000,19.13
98064,0.760792,-0.584136,0.148840,35.840000,17.430000,10.430000,19.15
98075,0.787144,-0.721264,0.227408,109.550003,21.910000,-5.180000,19.15
98086,0.769576,-0.465064,0.342576,160.580002,33.110001,-21.980000,19.14
98097,0.797392,-0.528504,0.447008,189.070007,41.160000,-38.080002,19.14
98108,0.798856,-0.466528,0.605608,262.500000,46.060001,-56.419998,19.14
98119,0.765184,-0.254248,0.728584,323.260010,51.029999,-66.919998,19.17
98130,0.762744,-0.111752,0.802760,368.760010,51.869999,-71.260002,19.17
98141,0.749568,-0.041968,0.904264,402.010010,50.119999,-73.570000,19.13
98152,0.718824,0.072224,0.898408,430.779999,45.779999,-71.120003,19.16
98163,0.736880,0.110776,0.854976,435.049988,47.459999,-68.459999,19.16
98174,0.689544,0.092720,0.885232,424.200012,49.840000,-64.540001,19.16
98185,0.619760,0.053680,1.001376,381.429993,42.279999,-59.150002,19.16
98196,0.582184,0.104920,0.945256,299.600006,22.889999,-50.750000,19.18
98207,0.567544,0.381616,0.739808,197.610001,5.320000,-37.310001,19.18
98217,0.570472,0.551440,0.499224,36.400002,-2.100000,-17.920000,19.16
98228,0.648552,0.496784,0.429928,-117.599998,-2.030000,-0.560000,19.15
98239,0.643184,0.498248,0.484584,-213.149994,-13.790000,19.600000,19.15
98250,0.688568,0.595360,0.625616,-304.709991,-23.100000,37.520000,19.15
98261,0.752008,0.555832,0.836432,-375.200012,-32.619999,51.099998,19.15
98272,0.818376,0.392840,0.952088,-392.140015,-47.110001,62.369999,19.14
98283,0.856928,0.280112,1.029680,-388.429993,-53.410000,70.910004,19.14
98294,0.833992,0.277672,1.021872,-376.250000,-58.169998,78.470001,19.14
98305,0.750056,0.339160,0.938424,-369.880005,-59.290001,83.510002,19.13
98316,0.664656,0.342576,0.775432,-362.320007,-65.449997,80.639999,19.13
98327,0.690520,0.227896,0.541680,-350.420013,-69.790001,76.580002,19.20
98338,0.692472,-0.061976,0.396256,-308.140015,-62.509998,66.639999,19.20
98349,0.709064,-0.340136,0.297192,-247.449997,-45.639999,58.240002,19.14
98360,0.694912,-0.443104,0.209840,-155.259995,-31.430000,46.619999,19.21
98372,0.697840,-0.518744,0.137128,-75.879997,-14.980000,34.509998,19.21
98383,0.744200,-0.658800,0.129808,13.790000,-3.010000,17.639999,19.18
98394,0.798368,-0.606584,0.207400,79.449997,9.240000,3.570000,19.17
98405,0.813984,-0.647576,0.283040,130.970001,18.549999,-13.230000,19.17
98416,0.784704,-0.595848,0.452376,169.889999,25.480000,-30.730000,19.18
98427,0.765672,-0.523624,0.617808,203.070007,30.240000,-42.279999,19.18
98438,0.736880,-0.444568,0.700280,233.169998,33.740002,-55.020000,19.18
98449,0.717360,-0.338184,0.820816,263.480011,32.830002,-64.820000,19.18
98460,0.711504,-0.218624,0.875472,295.750000,30.730000,-69.230003,19.19
98471,0.721264,-0.120536,0.891576,318.220001,26.180000,-70.769997,19.17
98482,0.756888,-0.093696,0.861320,334.040009,22.260000,-68.459999,19.17
98492,0.758352,-0.055632,0.816424,342.089996,22.889999,-65.309998,19.19
98503,0.683688,0.037576,0.814960,324.519989,21.350000,-59.919998,19.19
98515,0.658312,0.078080,0.838384,274.959991,18.480000,-56.490002,19.21
98526,0.596336,0.112240,0.843752,212.940002,7.000000,-45.150002,19.16
98536,0.588528,0.193248,0.672952,115.849998,-7.490000,-33.529999,19.16
98547,0.671488,0.405040,0.532896,13.160000,-10.710000,-17.219999,19.14
98558,0.713944,0.396256,0.479704,-110.250000,-10.500000,7.000000,19.14
98569,0.680272,0.376736,0.525576,-207.759995,-16.100000,21.840000,19.18
98580,0.722240,0.507032,0.618784,-270.549988,-27.230000,42.139999,19.18
98590,0.801784,0.503616,0.747128,-326.760010,-32.200001,58.730000,19.17
98601,0.834480,0.324520,0.828624,-338.940002,-42.910000,66.150002,19.23
98612,0.860344,0.245952,0.897432,-331.239990,-49.840000,75.739998,19.23
98623,0.840824,0.296704,0.875960,-322.000000,-50.400002,84.769997,19.14
98634,0.729560,0.310368,0.809592,-311.640015,-54.459999,85.959999,19.14
98649,0.743224,0.101016,0.555832,-289.799988,-56.700001,80.849998,19.22
98660,0.756400,-0.073688,0.376248,-246.889999,-45.779999,71.470001,19.17
98671,0.696376,-0.231312,0.287432,-183.399994,-36.119999,61.040001,19.17
98683,0.688080,-0.396744,0.176168,-128.869995,-21.420000,49.209999,19.21
98693,0.715408,-0.614880,0.127856,-55.090000,-10.360000,36.330002,19.17
98704,0.752984,-0.740296,0.159088,26.110001,1.890000,22.190001,19.17
98715,0.806664,-0.753472,0.183976,98.629997,11.340000,3.780000,19.18
98726,0.834968,-0.722240,0.332328,132.789993,20.930000,-13.860000,19.18
98737,0.761280,-0.647576,0.455792,172.550003,30.170000,-26.809999,19.15
98748,0.729072,-0.529480,0.579256,199.570007,35.279999,-41.580002,19.15
98759,0.687592,-0.355752,0.724192,224.419998,35.840000,-52.990002,19.16
98770,0.696376,-0.338184,0.773968,240.660004,36.400002,-60.759998,19.16
98780,0.719312,-0.314272,0.805688,267.190002,35.209999,-68.599998,19.16
98791,0.716384,-0.209352,0.813984,301.209991,32.759998,-72.309998,19.17
98802,0.747128,-0.135664,0.791536,328.019989,31.290001,-72.519997,19.17
98813,0.752008,-0.071736,0.754936,350.140015,32.480000,-72.730003,19.16
98824,0.720288,0.027328,0.768112,356.579987,34.299999,-69.860001,19.17
98835,0.671976,0.112728,0.858880,339.290009,38.150002,-67.129997,19.17
98847,0.637816,0.156160,0.910608,290.989990,26.809999,-61.389999,19.15
98857,0.614880,0.161528,0.883768,237.860001,11.410000,-52.919998,19.15
98868,0.616344,0.320616,0.707600,146.720001,0.070000,-39.619999,19.14
98879,0.648552,0.531432,0.556808,17.920000,-7.350000,-24.219999,19.14
98890,0.715408,0.448472,0.417728,-98.839996,-5.320000,0.000000,19.15
98902,0.690032,0.352824,0.449936,-174.789993,-8.120000,17.570000,19.18
98913,0.718824,0.490440,0.595848,-251.020004,-16.240000,35.279999,19.18
98923,0.755912,0.578280,0.769576,-321.440002,-26.530001,48.720001,19.16
98934,0.775432,0.492392,0.940376,-356.089996,-38.290001,63.560001,19.16
98945,0.809104,0.292312,0.972096,-364.209991,-47.950001,72.169998,19.19
98956,0.817400,0.222040,0.966240,-355.390015,-51.799999,76.300003,19.15
98967,0.752496,0.192760,0.939888,-340.829987,-58.380001,81.059998,19.15
98978,0.702720,0.243024,0.783240,-317.100006,-62.860001,81.129997,19.17
98989,0.698816,0.208376,0.549976,-309.679993,-62.020000,80.500000,19.17
99000,0.702232,-0.077592,0.393816,-273.489990,-54.810001,71.820000,19.17
99011,0.679296,-0.324520,0.260592,-220.919998,-38.220001,59.080002,19.14
99023,0.686128,-0.429928,0.182512,-130.970001,-21.559999,47.180000,19.14
99034,0.700280,-0.598776,0.143960,-71.610001,-6.790000,31.010000,19.18
99045,0.754448,-0.745664,0.178608,15.960000,1.540000,13.580000,19.18
99056,0.774944,-0.627080,0.261568,79.800003,11.970000,-0.770000,19.18
99067,0.809104,-0.776408,0.319152,123.269997,20.860001,-19.670000,19.18
99078,0.770552,-0.536800,0.525088,175.630005,26.950001,-31.990000,19.18
99089,0.707600,-0.354288,0.626592,183.889999,32.200001,-44.939999,19.20
99100,0.711992,-0.325008,0.736880,199.080002,34.230000,-54.389999,19.20
99111,0.726144,-0.326472,0.809104,232.050003,33.599998,-63.209999,19.21
99122,0.713456,-0.253760,0.892064,280.489990,30.170000,-68.389999,19.18
99133,0.732976,-0.135664,0.898408,315.140015,26.530001,-69.580002,19.18
99144,0.753472,-0.030744,0.871080,341.390015,23.100000,-67.690002,19.18
99155,0.737368,0.049288,0.834968,342.089996,21.559999,-62.439999,19.18
99166,0.739320,0.024888,0.796416,312.549988,21.770000,-57.680000,19.21
99177,0.691496,-0.025376,0.846192,259.839996,15.610000,-49.560001,19.21
99188,0.601704,0.025864,0.781288,175.770004,5.040000,-40.459999,19.18
99198,0.617320,0.259128,0.630984,59.779999,-5.600000,-27.930000,19.20
99209,0.669536,0.359168,0.493856,-48.650002,-2.450000,-4.480000,19.20
99220,0.674416,0.296704,0.495320,-157.009995,-4.690000,11.830000,19.18
99231,0.675392,0.372344,0.559248,-232.960007,-17.219999,29.889999,19.18
99242,0.762256,0.555344,0.747128,-296.380005,-24.990000,50.959999,19.15
99254,0.780312,0.417728,0.897432,-320.320007,-39.619999,61.880001,19.17
99267,0.845704,0.245464,0.924272,-322.279999,-46.900002,73.150002,19.17
99278,0.827648,0.131760,0.874496,-301.839996,-49.349998,76.790001,19.20
99289,0.764208,0.105408,0.784704,-273.420013,-48.439999,78.750000,19.20
99300,0.729072,0.088816,0.610488,-247.589996,-48.650002,76.019997,19.14
99311,0.728584,0.010248,0.426024,-215.250000,-41.930000,68.879997,19.14
99322,0.736392,-0.184464,0.307928,-167.020004,-32.480000,59.919998,19.14
99333,0.710528,-0.353800,0.237656,-120.889999,-2.240000,48.299999,19.21
99344,0.703696,-0.467992,0.243512,-58.799999,-9.240000,35.910000,19.21
99355,0.740296,-0.611464,0.281088,-0.350000,2.380000,24.500000,19.21
99366,0.776896,-0.734928,0.362096,66.360001,5.390000,6.580000,19.18
99377,0.806176,-0.584624,0.498736,92.190002,12.110000,-7.630000,19.18
99388,0.750056,-0.596824,0.578768,105.070000,18.200001,-16.730000,19.15
99399,0.715408,-0.666608,0.603656,134.330002,20.860001,-30.450001,19.15
99410,0.671976,-0.336720,0.735416,143.639999,23.940001,-41.090000,19.18
99420,0.665144,-0.379176,0.720288,138.179993,24.080000,-46.759998,19.18
99432,0.705160,-0.454816,0.749080,161.490005,23.660000,-58.520000,19.18
99443,0.709552,-0.278160,0.774944,184.029999,20.510000,-63.139999,19.18
99454,0.732000,-0.217648,0.776408,198.520004,19.250000,-66.220001,19.18
99464,0.764696,-0.228872,0.788120,229.740005,18.830000,-68.389999,19.19
99475,0.730536,-0.138592,0.770552,253.119995,17.219999,-69.230003,19.19
99486,0.710040,0.114192,0.772992,258.299988,15.540000,-66.709999,19.16
99498,0.697352,0.117608,0.797880,229.740005,15.400000,-62.230000,19.18
99509,0.662704,0.097112,0.827648,180.460007,8.330000,-55.369999,19.18
99519,0.654408,0.096136,0.733952,122.080002,-2.730000,-45.990002,19.18
99530,0.718336,0.133712,0.533384,32.060001,-5.390000,-29.750000,19.18
99541,0.716384,0.216672,0.464088,-49.000000,0.700000,-14.350000,19.19
99552,0.688080,0.334768,0.486536,-106.400002,-1.610000,6.580000,19.17
99563,0.683200,0.462624,0.641720,-181.789993,-8.190000,23.379999,19.17
99574,0.732976,0.528016,0.795440,-236.389999,-20.230000,38.220001,19.18
99589,0.803248,0.381616,0.936960,-267.190002,-34.299999,55.299999,19.16
99600,0.824232,0.273768,0.961360,-271.390015,-42.349998,63.000000,19.16
99610,0.800808,0.198128,0.903776,-270.410004,-47.250000,69.930000,19.17
99621,0.769576,0.137616,0.799344,-255.779999,-48.930000,72.449997,19.17
99633,0.745664,0.071736,0.657336,-230.020004,-48.090000,71.470001,19.21
99643,0.758840,-0.073688,0.447984,-205.520004,-39.619999,67.970001,19.21
99661,0.689056,-0.224968,0.251320,-98.139999,-19.600000,51.590000,19.23
99672,0.631960,-0.229848,0.123952,-37.869999,-3.360000,39.340000,19.14
99683,0.683200,-0.491904,0.055632,20.510000,12.110000,20.370001,19.17
99694,0.723216,-0.346968,0.206424,95.900002,21.629999,0.980000,19.17
99705,0.768112,-0.361608,0.434808,126.489998,32.830002,-10.710000,19.18
99716,0.809592,-0.615368,0.717360,166.669998,32.549999,-28.980000,19.18
99728,0.821304,-0.597800,0.967704,227.429993,30.520000,-46.270000,19.23
99739,0.783728,-0.430904,1.093608,242.339996,25.900000,-52.779999,19.16
99750,0.725168,-0.344040,1.105320,234.570007,19.320000,-52.220001,19.16
99761,0.712968,-0.305976,1.031632,209.089996,10.780000,-48.299999,19.16
99772,0.658800,-0.244488,0.919392,180.460007,4.480000,-46.549999,19.16
99782,0.641232,-0.199592,0.806664,139.580002,0.070000,-44.450001,19.19
99793,0.619272,-0.133712,0.723216,93.870003,-3.570000,-41.930000,19.19
99804,0.634888,-0.113704,0.624640,59.639999,-4.830000,-37.730000,19.17
99815,0.699304,-0.104920,0.562664,23.100000,-3.640000,-31.360001,19.15
99826,0.707112,0.010248,0.576816,-7.630000,-2.940000,-24.709999,19.15
99838,0.705160,0.176656,0.632448,-42.349998,-3.990000,-11.690000,19.19
99849,0.721264,0.259616,0.665632,-69.510002,-5.390000,-4.410000,19.20
99860,0.740296,0.261568,0.697840,-76.370003,-7.840000,2.590000,19.20
99871,0.764696,0.248880,0.709552,-74.059998,-8.470000,7.420000,19.19
99882,0.789584,0.202520,0.691496,-64.470001,-9.030000,10.710000,19.19
99893,0.816912,0.149328,0.670512,-51.869999,-7.980000,12.950000,19.24
99904,0.802760,0.114192,0.632448,-34.439999,-7.140000,14.700000,19.24
99915,0.783240,0.086376,0.597800,-19.250000,-5.390000,14.630000,19.24
99926,0.747128,0.073688,0.601216,-10.710000,-3.640000,13.930000,19.20
99937,0.732488,0.022936,0.609512,-2.310000,-2.520000,13.510000,19.20
99948,0.718824,-0.034648,0.634400,7.140000,-2.030000,12.670000,19.20
99958,0.718824,-0.060024,0.664656,12.320000,-0.700000,11.830000,19.20
99969,0.715408,-0.094184,0.694424,13.510000,0.560000,11.270000,19.24
99980,0.715896,-0.122976,0.706624,13.300000,1.190000,10.780000,19.19
99991,0.716384,-0.119072,0.724680,9.660000,2.380000,10.500000,19.19
100001,0.709552,-0.121512,0.740784,0.420000,2.730000,10.290000,19.19
100012,0.711992,-0.154208,0.742736,-5.390000,2.310000,9.450000,19.19
100023,0.721264,-0.157624,0.723216,-11.130000,1.400000,8.330000,19.19
100033,0.732976,-0.125904,0.722728,-19.320000,1.330000,8.680000,19.19
100044,0.731512,-0.143960,0.719312,-24.150000,0.770000,8.190000,19.20
100055,0.729072,-0.166896,0.714920,-23.799999,-0.140000,5.950000,19.20
100066,0.740784,-0.159576,0.708576,-20.090000,-1.330000,4.200000,19.20
100077,0.738344,-0.124440,0.712480,-17.920000,-1.470000,2.520000,19.15
100088,0.728584,-0.105408,0.723216,-13.930000,-1.890000,0.840000,19.15
100099,0.722240,-0.105896,0.722728,-7.280000,-2.520000,-0.910000,19.20
100110,0.735416,-0.111264,0.719312,1.260000,-2.380000,-2.520000,19.20
100121,0.724680,-0.087352,0.716384,7.350000,-2.520000,-3.990000,19.21
100132,0.724192,-0.051240,0.726632,11.620000,-2.450000,-4.480000,19.19
100144,0.722240,-0.028792,0.723704,12.180000,-2.800000,-3.640000,19.19
100155,0.721264,-0.041480,0.721264,12.810000,-2.940000,-3.150000,19.22
100166,0.723216,-0.044408,0.709064,14.560000,-3.500000,-2.590000,19.22
100177,0.723216,-0.026352,0.717360,12.320000,-3.640000,-1.470000,19.16
100188,0.720288,-0.022448,0.723704,8.050000,-4.270000,0.000000,19.19
100199,0.723216,-0.014152,0.718336,4.480000,-4.760000,1.750000,19.19
100209,0.727608,-0.007808,0.721752,-1.050000,-4.900000,4.060000,19.22
100220,0.724192,-0.031720,0.719800,-2.310000,-5.320000,5.390000,19.22
100231,0.731024,-0.049776,0.696376,-1.470000,-5.810000,6.510000,19.16
100242,0.731024,-0.046360,0.696864,-0.700000,-5.950000,7.070000,19.16
100253,0.731512,-0.037576,0.688080,-0.070000,-6.160000,7.630000,19.16
100265,0.733952,-0.044408,0.659776,0.910000,-6.230000,8.540000,19.21
100276,0.749080,-0.064904,0.648552,3.080000,-5.180000,10.080000,19.21
100287,0.743224,-0.062464,0.654408,1.960000,-4.620000,10.710000,19.15
100297,0.732000,-0.059048,0.684176,-0.770000,-4.060000,10.640000,19.20
100308,0.728096,-0.095648,0.673928,1.050000,-4.900000,10.920000,19.20
100319,0.727120,-0.075640,0.681736,0.630000,-5.040000,10.500000,19.20
100330,0.729072,-0.040992,0.706136,-3.430000,-5.040000,11.830000,19.20
100341,0.726632,-0.027328,0.738344,-7.840000,-5.250000,13.580000,19.22
100352,0.723704,-0.040016,0.763720,-12.320000,-5.950000,14.770000,19.22
100363,0.720288,-0.062952,0.792512,-13.020000,-7.700000,15.050000,19.21
100374,0.721264,-0.082960,0.808128,-8.680000,-10.150000,14.700000,19.23
100385,0.727120,-0.118584,0.787144,-1.400000,-12.110000,13.650000,19.23
100396,0.727120,-0.159088,0.734440,8.680000,-12.880000,11.830000,19.20
100407,0.720288,-0.150792,0.744200,14.210000,-13.650000,9.450000,19.20
100418,0.732000,-0.120536,0.751032,20.510000,-15.470000,7.770000,19.22
100429,0.733952,-0.110288,0.736880,26.809999,-16.379999,6.510000,19.18
100440,0.741272,-0.120536,0.717360,31.219999,-16.660000,6.090000,19.18
100450,0.742736,-0.122488,0.694912,34.020000,-15.890000,5.250000,19.23
100461,0.748592,-0.104432,0.681248,35.490002,-15.470000,4.900000,19.23
100472,0.747616,-0.079544,0.679296,34.650002,-14.700000,5.250000,19.18
100483,0.749080,-0.079056,0.666120,33.810001,-14.350000,5.810000,19.18
100494,0.744688,-0.086864,0.646600,31.850000,-14.280000,6.230000,19.22
100505,0.747616,-0.083448,0.624152,26.110001,-13.860000,6.510000,19.16
100516,0.739320,-0.084912,0.617808,1.260000,-14.070000,6.650000,19.16
100527,0.752984,-0.081008,0.620248,9.870000,-12.810000,7.490000,19.21
100537,0.757864,-0.078568,0.636840,7.000000,-12.390000,7.700000,19.21
100548,0.772504,-0.060512,0.623176,7.350000,-11.130000,9.450000,19.17
100559,0.758352,-0.058072,0.589016,4.620000,-9.800000,9.590000,19.19
100570,0.757864,-0.051240,0.599752,-1.120000,-7.910000,9.100000,19.19
100581,0.763720,-0.080520,0.637328,-1.260000,-7.140000,8.470000,19.22
100592,0.770064,-0.107360,0.647088,6.090000,-7.490000,6.930000,19.22
100603,0.765672,-0.101504,0.661240,12.040000,-6.790000,4.760000,19.18
100614,0.760304,-0.101504,0.684176,15.960000,-5.670000,2.940000,19.18
100625,0.747128,-0.100040,0.711016,21.629999,-4.900000,0.210000,19.19
100636,0.749080,-0.067832,0.735904,31.219999,-4.760000,-1.540000,19.18
100647,0.735416,-0.016592,0.738832,40.950001,-4.270000,-1.470000,19.18
100658,0.739320,-0.046360,0.696376,48.860001,-2.800000,-0.210000,19.19
100669,0.742736,-0.129320,0.633912,52.150002,-1.750000,-0.280000,19.19
100688,0.734928,-0.122488,0.559248,55.930000,0.000000,-3.430000,19.22
100698,0.740296,-0.057096,0.535824,51.099998,5.110000,-3.570000,19.20
100709,0.731024,0.003904,0.522648,41.439999,11.130000,-2.940000,19.16
100720,0.728096,0.030744,0.545096,33.389999,16.240000,-2.590000,19.16
100731,0.705160,0.009760,0.570472,35.000000,20.790001,-3.920000,19.23
100743,0.676856,-0.026840,0.597800,43.540001,24.150000,-7.700000,19.23
100754,0.604144,-0.044896,0.636840,50.119999,26.670000,-13.440000,19.21
100766,0.616344,-0.083936,0.650992,54.669998,28.490000,-14.770000,19.21
100777,0.627080,-0.083448,0.662216,58.029999,34.439999,-20.860001,19.21
100788,0.617320,-0.025376,0.679784,63.560001,41.439999,-22.260000,19.25
100801,0.620736,0.048800,0.669536,61.880001,51.380001,-20.510000,19.25
100812,0.619760,0.084424,0.656360,53.200001,61.110001,-18.410000,19.23
100823,0.574376,0.086864,0.653432,37.730000,67.410004,-19.180000,19.24
100834,0.555832,0.084424,0.685152,23.379999,72.519997,-22.959999,19.24
100844,0.569984,0.058072,0.746640,21.209999,77.910004,-27.020000,19.20
100855,0.557784,0.036112,0.795928,22.260000,81.129997,-30.799999,19.20
100866,0.557784,0.029768,0.813984,30.450001,84.559998,-34.439999,19.23
100877,0.544120,0.030256,0.819840,36.820000,86.099998,-37.730000,19.21
100887,0.533384,0.059536,0.796416,40.110001,90.370003,-40.110001,19.21
100898,0.516304,0.155672,0.809104,34.790001,97.510002,-40.740002,19.21
100909,0.480680,0.214720,0.836432,30.240000,101.779999,-40.389999,19.21
100920,0.431880,0.230336,0.862784,22.540001,99.330002,-39.549999,19.22
100930,0.420656,0.203008,0.885720,18.129999,94.360001,-42.560001,19.22
100941,0.447984,0.177632,0.895968,14.210000,89.809998,-43.189999,19.21
100952,0.463112,0.173728,0.894016,11.130000,85.820000,-45.779999,19.23
100963,0.468968,0.191296,0.910608,7.350000,84.489998,-48.580002,19.23
100974,0.450424,0.175192,0.940864,6.860000,81.970001,-50.610001,19.24
100984,0.453352,0.147864,0.986736,6.440000,77.559998,-51.450001,19.24
100995,0.472872,0.153232,1.004304,12.670000,70.699997,-53.480000,19.21
101007,0.501176,0.216672,0.984296,16.660000,69.370003,-52.500000,19.21
101018,0.504104,0.252296,0.998936,9.450000,69.300003,-53.689999,19.21
101028,0.437736,0.254248,1.002352,-1.820000,60.759998,-54.040001,19.23
101040,0.421632,0.189832,1.017480,-19.670000,66.989998,-25.059999,19.23
101051,0.546072,0.025864,1.049688,6.230000,62.369999,-21.490000,19.22
101062,0.518744,0.119560,0.994544,15.750000,33.250000,-42.490002,19.22
101073,0.632936,0.171776,0.975512,-9.730000,34.860001,-41.299999,19.22
101084,0.578768,0.133712,1.008696,-4.970000,21.629999,-49.770000,19.25
101096,0.606584,0.068808,0.984296,0.420000,18.969999,-46.830002,19.25
101107,0.638304,0.052216,0.971120,0.770000,14.210000,-44.169998,19.23
101118,0.711504,0.063928,0.986248,-1.050000,10.500000,-41.299999,19.23
101129,0.769088,0.095648,0.974048,-1.610000,8.610000,-35.419998,19.22
101140,0.804712,0.103944,0.946720,-3.500000,7.350000,-30.100000,19.21
101151,0.843752,0.076616,0.897920,-6.160000,3.850000,-26.040001,19.21
101162,0.887184,0.026352,0.861808,-9.170000,1.890000,-22.469999,19.24
101174,0.915488,-0.002440,0.831552,-12.740000,2.520000,-19.879999,19.20
101185,0.921344,-0.020984,0.846680,-17.010000,3.220000,-17.430000,19.20
101197,0.935496,-0.039040,0.848144,-15.960000,3.500000,-14.490000,19.26
101207,0.964776,-0.039040,0.831064,-8.610000,5.180000,-11.410000,19.26
101218,0.983808,-0.013176,0.812032,-7.210000,7.770000,-7.420000,19.25
101229,1.008208,-0.004880,0.751520,-6.790000,12.950000,-3.430000,19.25
101240,0.993080,0.016104,0.723216,-3.780000,14.070000,-2.940000,19.26
101251,0.975512,0.050264,0.703208,-11.060000,17.639999,-2.030000,19.19
101262,0.982832,0.046848,0.730536,-17.010000,18.900000,-0.770000,19.19
101273,0.981856,0.018056,0.753472,-19.950001,15.960000,-2.240000,19.18
101284,1.070184,0.027328,0.728584,-16.870001,17.570000,1.400000,19.18
101295,1.087264,0.057096,0.700280,-10.780000,21.350000,-3.780000,19.24
101306,1.039440,0.072224,0.675880,-8.190000,27.230000,-3.360000,19.21
101318,1.007720,0.032696,0.682712,-8.470000,30.170000,-11.900000,19.21
101328,0.964288,0.035136,0.644648,-14.910000,32.130001,-20.930000,19.25
101339,0.896456,0.040504,0.620736,-27.160000,40.599998,-31.430000,19.25
101350,0.844728,0.016104,0.601704,-35.700001,45.430000,-47.110001,19.26
101362,0.736392,0.003416,0.586088,-34.720001,54.669998,-60.970001,19.21
101373,0.602680,-0.025864,0.588528,-44.450001,61.040001,-75.949997,19.21
101384,0.484096,-0.019032,0.629032,-45.919998,66.639999,-90.019997,19.25
101396,0.349408,0.048800,0.665144,-45.080002,74.900002,-110.529999,19.25
101408,0.111752,0.124440,0.846192,-48.369999,83.650002,-132.509995,19.25
101419,-0.140056,0.155184,1.017968,-49.840000,86.029999,-148.330002,19.18
101430,-0.331352,0.123952,1.132648,-50.049999,81.410004,-159.110001,19.18
101441,-0.526552,0.140056,1.169248,-43.820000,65.519997,-168.490005,19.21
101452,-0.660264,0.230824,1.230736,-52.220001,54.740002,-173.179993,19.21
101464,-0.797392,0.384544,1.300520,-62.509998,36.750000,-174.580002,19.26
101476,-1.009672,0.425048,1.355664,-73.220001,4.340000,-174.580002,19.22
101488,-1.049200,0.318664,1.357616,-107.239998,-2.450000,-144.410004,19.22
101499,-0.981856,0.103944,1.308816,-99.470001,-3.850000,-117.180000,19.24
101510,-0.919880,-0.016104,1.254648,-36.540001,-23.100000,-111.510002,19.26
101521,-0.867176,0.122976,1.191208,-12.810000,-19.670000,-92.400002,19.26
101532,-0.859368,0.172264,1.186816,-2.520000,-20.020000,-73.849998,19.24
101544,-0.804224,0.104432,1.148752,11.760000,-25.969999,-63.700001,19.24
101555,-0.695400,0.042944,1.081896,34.020000,-25.410000,-49.070000,19.26
101566,-0.654408,0.074664,1.072624,45.150002,-27.510000,-34.090000,19.26
101577,-0.562176,0.061976,1.081408,57.889999,-23.590000,-19.740000,19.22
101588,-0.446520,0.140056,1.071648,56.630001,-20.090000,-2.590000,19.21
101599,-0.329400,0.149328,1.055056,50.610001,-12.880000,8.400000,19.21
101610,-0.242048,0.113704,1.028704,42.279999,-8.190000,18.620001,19.26
101621,-0.188856,0.058560,1.015040,31.990000,-6.090000,24.500000,19.26
101632,-0.121024,0.018056,1.016504,23.730000,-4.130000,27.930000,19.27
101643,-0.050264,-0.040992,1.010648,20.230000,-1.820000,30.520000,19.24
101654,0.004392,-0.048312,1.009672,14.560000,1.890000,30.309999,19.24
101665,0.026840,-0.038552,1.021872,5.180000,4.410000,28.840000,19.26
101676,0.002440,-0.018056,1.048712,2.310000,8.120000,27.719999,19.26
101687,-0.037088,0.038064,1.087264,5.040000,7.770000,27.580000,19.25
101702,-0.045384,0.069784,1.060912,6.090000,9.590000,30.170000,19.25
101713,-0.053680,0.087352,1.074576,9.800000,12.320000,31.010000,19.25
101723,-0.094672,0.139080,1.083360,18.760000,12.740000,35.070000,19.23
101734,-0.144448,0.202520,1.089216,24.219999,9.730000,38.709999,19.23
101745,-0.141032,0.250832,1.072624,20.299999,8.050000,44.730000,19.23
101756,-0.152744,0.241560,1.069696,10.220000,6.790000,49.980000,19.24
101767,-0.171776,0.215696,1.073600,8.470000,4.200000,53.689999,19.24
101778,-0.188856,0.195688,1.065304,14.000000,1.750000,59.009998,19.22
101789,-0.181536,0.181536,1.060912,18.200001,-0.910000,63.840000,19.22
101799,-0.139080,0.186416,1.047736,26.670000,-2.100000,66.010002,19.26
101810,-0.154208,0.175680,1.022360,35.490002,-3.290000,68.180000,19.23
101821,-0.155672,0.176656,0.993080,42.560001,-4.900000,70.839996,19.23
101832,-0.158600,0.198616,0.993568,40.599998,-4.200000,72.449997,19.25
101843,-0.180072,0.206912,0.999912,38.009998,-4.690000,76.580002,19.25
101854,-0.194224,0.217160,1.018456,37.799999,-7.000000,81.410004,19.24
101865,-0.163968,0.224968,0.996496,41.580002,-10.570000,84.279999,19.23
101876,-0.120048,0.226432,0.970144,42.910000,-10.570000,83.860001,19.23
101888,-0.095160,0.197152,0.947208,45.570000,-9.800000,80.849998,19.22
101899,-0.071248,0.167872,0.933544,46.480000,-7.840000,80.360001,19.22
101910,-0.059048,0.146888,0.938424,46.830002,-5.250000,77.980003,19.23
101921,-0.050752,0.164944,0.955992,50.049999,-2.800000,74.830002,19.20
101932,-0.077592,0.211304,0.965752,51.660000,-3.290000,73.360001,19.20
101943,-0.044896,0.281576,0.974536,38.919998,-6.580000,74.410004,19.25
101954,0.048800,0.191296,0.929640,37.240002,-5.810000,68.389999,19.25
101965,0.036112,0.173240,0.927688,32.549999,-3.990000,65.099998,19.23
101976,0.056120,0.153720,0.911584,38.150002,-8.470000,55.720001,19.23
101987,0.137616,0.152744,0.880352,42.630001,-7.140000,48.720001,19.29
101998,0.162016,0.138104,0.860832,43.470001,-1.610000,44.730000,19.20
102009,0.154208,0.147376,0.860832,46.689999,-2.030000,35.560001,19.20
102019,0.178608,0.148352,0.846192,56.630001,-2.800000,29.120001,19.26
102030,0.184464,0.172264,0.844240,56.209999,-3.150000,26.180000,19.26
102041,0.253760,0.221552,0.851072,46.060001,-1.750000,21.700001,19.25
102052,0.276208,0.264984,0.904752,35.910000,-0.700000,18.900000,19.22
102063,0.261568,0.296704,0.957944,28.070000,-6.160000,19.809999,19.22
102074,0.329400,0.239120,0.950624,28.420000,-11.550000,20.719999,19.24
102085,0.404552,0.216184,0.903288,33.599998,-10.570000,12.460000,19.24
102096,0.446032,0.224968,0.876936,28.770000,-6.020000,3.080000,19.23
102106,0.434808,0.216672,0.861320,28.420000,-1.960000,-7.420000,19.23
102117,0.429928,0.228384,0.885232,31.360001,-1.190000,-16.660000,19.19
102128,0.451400,0.220088,0.894504,33.669998,-1.610000,-19.040001,19.25
102139,0.494344,0.232776,0.902800,36.820000,-1.960000,-23.730000,19.25
102150,0.502152,0.280112,0.921344,42.490002,0.140000,-28.070000,19.26
102161,0.493856,0.322568,0.957456,42.209999,0.070000,-29.889999,19.26
102172,0.529968,0.375760,1.005280,38.080002,-2.100000,-30.450001,19.29
102183,0.568520,0.424072,1.031144,28.420000,-3.220000,-25.270000,19.22
102194,0.608048,0.443592,1.004304,21.420000,-2.240000,-21.420000,19.22
102205,0.586088,0.476776,1.032608,14.420000,6.790000,-23.450001,19.24
102216,0.236680,0.582672,1.095072,-14.000000,-28.559999,-22.750000,19.24
102226,0.762256,0.328424,1.031144,-29.190001,10.640000,17.010000,19.25
102237,0.598776,0.170800,1.076040,19.740000,0.210000,3.920000,19.25
102249,0.726144,0.438224,0.982344,15.680000,-15.960000,-15.820000,19.23
102260,0.656360,0.270352,1.013576,-20.440001,-13.370000,-12.600000,19.18
102271,0.626592,0.266936,1.052128,-3.500000,-19.389999,-10.850000,19.18
102282,0.647088,0.267424,1.004792,13.930000,-19.950001,-5.180000,19.24
102293,0.668560,0.356728,0.961360,3.710000,-17.290001,-1.820000,19.24
102304,0.689544,0.385520,0.971608,-10.150000,-18.059999,1.470000,19.29
102315,0.705648,0.356240,0.959896,-9.730000,-17.920000,3.640000,19.24
102327,0.695888,0.322568,0.922808,-5.040000,-17.709999,11.550000,19.24
102338,0.724192,0.295240,0.912072,-3.990000,-12.670000,16.379999,19.27
102349,0.747616,0.333792,0.888648,-6.930000,-14.770000,17.010000,19.27
102360,0.763720,0.303048,0.852048,-18.620001,-12.040000,20.299999,19.25
102371,0.750544,0.257176,0.873032,-22.469999,-9.800000,25.270000,19.21
102382,0.764696,0.189344,0.874984,-7.840000,-11.620000,25.129999,19.21
102393,0.802272,0.207888,0.849608,-7.560000,-4.760000,32.759998,19.27
102404,0.802272,0.248392,0.884256,-11.760000,-1.540000,34.650002,19.27
102415,0.745176,0.291336,0.910120,-18.830000,-13.020000,27.580000,19.27
102426,0.799832,0.306464,0.884256,-32.410000,-12.600000,30.799999,19.30
102437,0.780312,0.212768,0.869616,-36.610001,-14.210000,30.520000,19.30
102448,0.791048,0.151280,0.843752,-36.750000,-19.670000,29.680000,19.21
102459,0.848632,0.117608,0.807152,-35.700001,-19.110001,25.549999,19.21
102470,0.838872,0.123952,0.769576,-38.150002,-16.240000,16.799999,19.23
102481,0.787632,0.091744,0.764208,-39.619999,-14.700000,9.940000,19.22
102492,0.779824,0.015128,0.740296,-37.240002,-12.600000,5.040000,19.22
102503,0.771528,-0.035624,0.688568,-32.060001,-10.920000,-3.570000,19.23
102515,0.785192,-0.061976,0.630984,-23.870001,-8.190000,-19.389999,19.23
102526,0.761768,-0.058560,0.538264,-13.230000,-3.150000,-40.599998,19.25
102537,0.652456,-0.015616,0.617808,-30.309999,6.230000,-58.520000,19.29
102548,0.568520,0.006832,0.701256,-27.370001,11.690000,-73.080002,19.29
102559,0.511912,0.040016,0.742736,-19.809999,14.700000,-89.809998,19.26
102570,0.430904,0.090280,0.770552,-34.299999,19.040001,-108.290001,19.26
102581,0.313784,0.121024,0.814472,-54.740002,25.480000,-122.639999,19.28
102592,0.156160,0.102968,0.899872,-62.790001,28.490000,-140.559998,19.28
102604,-0.019032,0.077592,0.979416,-68.739998,33.250000,-156.240005,19.28
102615,-0.148352,0.037576,1.008696,-70.839996,32.689999,-169.960007,19.25
102626,-0.263032,0.003416,0.944280,-72.449997,31.500000,-177.869995,19.25
102637,-0.432368,0.074664,0.936472,-94.010002,39.200001,-190.050003,19.26
102648,-0.670512,0.202032,1.072624,-100.870003,48.090000,-199.710007,19.26
102659,-0.902800,0.253760,1.264896,-84.769997,43.610001,-195.369995,19.23
102670,-1.037000,0.264496,1.394704,-57.259998,33.250000,-185.919998,19.23
102681,-1.099952,0.326472,1.432768,-28.559999,14.000000,-177.449997,19.23
102692,-1.099952,0.445056,1.437160,-21.070000,-3.290000,-152.179993,19.27
102706,-1.048712,0.523136,1.294176,-21.420000,-25.549999,-116.690002,19.32
102718,-0.948184,0.532408,1.183400,-35.419998,-35.700001,-82.040001,19.32
102729,-0.811056,0.391864,1.136064,-40.529999,-36.610001,-72.309998,19.25
102740,-0.724192,0.244976,1.152168,-32.830002,-36.119999,-70.699997,19.25
102751,-0.536312,0.107848,1.136552,-2.030000,-42.070000,-44.029999,19.25
102762,-0.427976,0.069784,1.090192,34.439999,-17.080000,-8.330000,19.21
102773,-0.391376,-0.001952,1.034560,53.830002,-21.770000,5.810000,19.21
102784,-0.244000,0.025864,1.066768,77.000000,-17.920000,13.160000,19.25
102795,-0.192272,0.119072,1.083360,56.700001,-10.150000,18.830000,19.25
102806,-0.087352,0.094184,1.054568,41.650002,-9.170000,21.070000,19.25
102817,-0.026840,0.029280,1.037488,34.509998,-8.190000,18.200001,19.25
102828,0.023424,-0.008784,1.040904,30.799999,-8.540000,13.580000,19.25
102839,0.091256,0.026352,1.014552,23.379999,-4.620000,9.170000,19.30
102850,0.113704,0.078080,1.020408,0.700000,0.700000,4.830000,19.30
102861,0.091256,0.061000,1.050664,-12.600000,1.400000,2.870000,19.26
102872,0.095648,0.043920,1.053592,-10.080000,-1.120000,1.400000,19.26
102882,0.081984,0.075640,1.036024,-9.520000,-2.030000,-0.070000,19.29
102893,0.069784,0.129808,1.028704,-13.090000,-2.030000,-0.700000,19.21
102904,0.046360,0.141520,1.024800,-14.280000,-1.540000,0.210000,19.21
102915,0.024888,0.153720,1.014064,-6.650000,-1.260000,1.680000,19.25
102926,-0.028792,0.215208,1.014552,2.240000,-1.050000,5.810000,19.25
102938,-0.070760,0.283528,1.021872,5.040000,0.140000,14.000000,19.26
102949,-0.131760,0.326472,1.011624,10.220000,1.260000,22.889999,19.25
102959,-0.176168,0.349896,1.006744,17.990000,1.120000,34.020000,19.25
102970,-0.208376,0.326472,1.020896,19.530001,-1.890000,42.139999,19.27
102981,-0.190320,0.267912,1.019920,23.240000,-5.180000,51.869999,19.27
102992,-0.181048,0.244000,0.996008,35.910000,-5.740000,59.570000,19.22
103003,-0.196664,0.246928,0.978440,45.080002,-4.830000,64.050003,19.26
103014,-0.196176,0.271328,0.980880,45.849998,-4.340000,69.720001,19.26
103025,-0.191296,0.313784,0.988688,43.750000,-5.180000,76.580002,19.27
103036,-0.211792,0.292312,0.977464,43.330002,-4.410000,79.029999,19.27
103047,-0.264984,0.324032,0.974536,34.230000,-2.520000,84.349998,19.25
103058,-0.264984,0.263520,0.977464,32.410000,-4.060000,86.449997,19.25
103069,-0.254248,0.253760,0.955504,33.459999,-4.760000,88.690002,19.27
103080,-0.193248,0.257176,0.941352,37.169998,-3.290000,87.430000,19.26
103091,-0.172752,0.270352,0.946232,35.139999,-0.070000,88.339996,19.26
103102,-0.164944,0.247904,0.955504,32.480000,0.490000,88.760002,19.27
103113,-0.150304,0.248880,0.938912,33.250000,1.260000,88.269997,19.27
103124,-0.139080,0.272304,0.921344,32.270000,1.330000,86.099998,19.23
103136,-0.124440,0.262544,0.908168,24.850000,1.260000,84.000000,19.23
103146,-0.068808,0.241072,0.896456,21.770000,1.610000,80.010002,19.23
103157,-0.024888,0.215696,0.891576,23.240000,1.820000,77.070000,19.27
103168,0.039528,0.200080,0.875472,27.860001,3.920000,71.400002,19.27
103179,0.074664,0.218136,0.876448,30.309999,7.910000,64.470001,19.28
103190,0.078568,0.231312,0.868640,34.439999,10.360000,61.110001,19.25
103200,0.086864,0.215696,0.848632,32.830002,11.900000,57.049999,19.25
103211,0.119072,0.193248,0.849120,30.660000,15.050000,51.869999,19.23
103222,0.129808,0.226920,0.873520,31.639999,19.459999,46.759998,19.23
103233,0.120536,0.275720,0.919392,33.110001,19.180000,40.389999,19.32
103244,0.128832,0.283040,0.924760,34.720001,17.150000,36.049999,19.32
103254,0.151768,0.289872,0.906704,35.700001,14.630000,30.940001,19.26
103265,0.166896,0.290360,0.880840,32.970001,12.950000,28.490000,19.28
103276,0.219112,0.270840,0.854976,36.259998,12.180000,23.240000,19.28
103287,0.272304,0.262056,0.844728,40.950001,15.890000,13.440000,19.26
103298,0.313296,0.367952,0.837408,45.639999,17.290001,4.970000,19.26
103309,0.335744,0.285968,0.833992,48.160000,21.910000,-1.960000,19.27
103319,0.333792,0.362584,0.886208,47.320000,24.570000,-8.540000,19.27
103330,0.336232,0.407968,0.940376,39.549999,22.959999,-10.150000,19.27
103341,0.402112,0.448472,0.989664,31.500000,19.250000,-13.580000,19.23
103352,0.414800,0.480192,1.028704,31.430000,20.440001,-20.650000,19.23
103363,0.294752,0.569496,1.073112,15.050000,7.070000,-14.630000,19.26
103374,0.441152,0.427000,1.018944,6.510000,19.740000,14.070000,19.26
103384,0.546072,0.254248,1.041392,36.680000,21.559999,6.860000,19.23
103395,0.498736,0.391376,1.008696,43.049999,0.350000,-22.750000,19.27
103406,0.511424,0.483120,1.004792,-4.760000,-0.140000,-6.580000,19.27
103417,0.496296,0.399672,1.107760,4.760000,-28.490000,-24.639999,19.26
103428,0.669048,0.384544,1.062864,-5.810000,-16.870001,-17.219999,19.26
103439,0.700768,0.353800,1.083848,-5.670000,-14.840000,-20.090000,19.29
103450,0.662704,0.424560,1.133136,12.670000,-21.910000,-19.530001,19.29
103461,0.682224,0.484096,1.096536,-1.750000,-26.809999,-15.120000,19.27
103472,0.737368,0.437736,1.047248,-10.360000,-26.530001,-9.940000,19.23
103483,0.782264,0.375272,1.043832,-12.460000,-28.629999,-7.280000,19.23
103494,0.817888,0.377712,1.001864,-11.130000,-29.049999,-0.420000,19.26
103505,0.860832,0.378688,0.941840,-12.950000,-27.860001,4.760000,19.26
103516,0.853512,0.384544,0.935008,-15.820000,-24.850000,7.000000,19.24
103527,0.825696,0.380152,0.946720,-15.540000,-25.900000,10.990000,19.26
103538,0.836920,0.368928,0.916952,-10.920000,-25.059999,16.379999,19.26
103549,0.827648,0.381616,0.892064,-7.840000,-24.010000,20.860001,19.27
103560,0.814472,0.382104,0.852048,-10.080000,-20.930000,28.420000,19.27
103571,0.810568,0.371856,0.829600,-8.820000,-20.719999,32.340000,19.25
103582,0.817400,0.351848,0.819352,-10.080000,-19.950001,38.220001,19.27
103593,0.829600,0.308904,0.804712,-11.060000,-19.670000,41.020000,19.27
103604,0.838384,0.292800,0.836432,-13.790000,-19.670000,42.349998,19.27
103615,0.852048,0.281088,0.839360,-12.600000,-18.900000,46.480000,19.27
103626,0.850584,0.257176,0.816424,-8.330000,-17.920000,48.650002,19.27
103637,0.818376,0.225944,0.804712,-4.200000,-16.660000,49.419998,19.27
103648,0.829600,0.242536,0.774944,-0.560000,-17.709999,44.450001,19.25
103659,0.844240,0.241560,0.750056,-7.490000,-15.820000,42.560001,19.24
103670,0.838384,0.242536,0.732488,-13.510000,-13.790000,36.889999,19.24
103681,0.816424,0.220576,0.709064,-13.370000,-13.090000,31.850000,19.28
103691,0.786656,0.176168,0.688080,-25.830000,-11.830000,28.000000,19.28
103702,0.770552,0.080032,0.675880,-32.619999,-14.000000,16.730000,19.28
103713,0.753472,0.009760,0.650992,-27.370001,-13.090000,4.760000,19.24
103727,0.718336,-0.020984,0.587064,-8.260000,-8.680000,-16.100000,19.24
103738,0.680760,0.020984,0.538752,-1.190000,-0.280000,-37.520000,19.26
103749,0.582672,0.105408,0.634888,-25.549999,9.100000,-57.189999,19.22
103760,0.473360,-0.025376,0.759816,-41.439999,6.440000,-83.300003,19.22
103771,0.379664,-0.161040,0.782264,-22.750000,4.620000,-103.180000,19.24
103782,0.294264,-0.108824,0.740296,0.140000,13.160000,-121.660004,19.24
103793,0.134688,0.060512,0.740784,1.890000,26.670000,-152.809998,19.27
103804,-0.042944,0.169824,0.889624,-13.650000,36.820000,-179.270004,19.27
103815,-0.296704,0.164944,1.069696,-23.030001,36.470001,-196.000000,19.26
103826,-0.473360,0.114680,1.050176,-21.980000,31.639999,-197.330002,19.26
103837,-0.664168,0.200080,1.035048,-31.290001,30.870001,-195.229996,19.26
103848,-0.814472,0.405040,1.155096,-47.740002,33.459999,-191.729996,19.29
103859,-1.001864,0.511912,1.306864,-52.709999,25.480000,-182.770004,19.29
103870,-1.121424,0.494832,1.362008,-42.700001,2.660000,-169.679993,19.26
103881,-1.098976,0.485560,1.323456,-27.370001,-18.480000,-152.389999,19.26
103893,-1.016992,0.542656,1.282952,-25.059999,-25.340000,-130.619995,19.26
103904,-0.932568,0.567056,1.265872,-27.930000,-31.360001,-110.529999,19.27
103915,-0.857416,0.497272,1.196576,-33.880001,-39.619999,-84.279999,19.27
103926,-0.741760,0.370880,1.122400,-31.639999,-40.389999,-61.880001,19.30
103937,-0.637816,0.264496,1.061888,-11.270000,-33.250000,-46.410000,19.28
103948,-0.497272,0.207400,1.028704,4.200000,-26.950001,-33.669998,19.28
103960,-0.467992,0.183976,1.024800,14.560000,-18.129999,-17.709999,19.27
103971,-0.405040,0.237168,1.073112,20.930000,-16.799999,-7.420000,19.27
103982,-0.284992,0.272792,1.049200,20.370001,-9.240000,2.660000,19.27
103993,-0.114192,0.225944,0.888648,11.200000,-14.700000,12.180000,19.26
104003,-0.060512,0.042456,1.005280,25.760000,-7.840000,6.930000,19.26
104014,-0.062464,0.162016,1.063352,24.850000,-5.880000,7.070000,19.27
104025,0.054656,0.267424,0.984296,12.110000,-4.340000,3.710000,19.27
104036,0.097600,0.261080,0.938424,-16.170000,1.330000,3.640000,19.28
104047,0.119560,0.221552,0.988688,-26.950001,7.000000,-2.100000,19.28
104058,0.097112,0.268888,1.030168,-28.700001,7.000000,-3.010000,19.30
104069,0.103944,0.280112,1.003816,-28.420000,2.310000,-3.150000,19.25
104080,0.143960,0.276208,0.987712,-32.270000,0.840000,-4.970000,19.25
104091,0.171288,0.262056,0.972584,-30.870001,1.750000,-7.980000,19.27
104102,0.134688,0.284992,0.978928,-25.410000,3.080000,-7.280000,19.27
104113,0.115656,0.290848,0.974536,-18.129999,1.820000,-6.160000,19.23
104124,0.105408,0.307440,0.969656,-12.670000,3.080000,-2.660000,19.29
104135,0.061000,0.321104,0.996496,-9.030000,3.150000,1.120000,19.29
104146,0.045872,0.324520,1.010160,0.350000,0.770000,4.900000,19.28
104157,0.028304,0.327936,0.996008,7.070000,-0.840000,9.240000,19.28
104168,0.000976,0.342576,0.982344,10.150000,-0.420000,13.370000,19.29
104179,-0.040016,0.343552,0.968192,13.230000,0.280000,17.150000,19.24
104190,-0.068320,0.336232,0.956480,14.350000,2.030000,21.840000,19.24
104200,-0.097112,0.345016,0.963312,13.510000,4.270000,25.830000,19.24
104211,-0.129808,0.370392,0.987224,13.650000,7.420000,32.549999,19.24
104222,-0.180072,0.386008,1.027728,16.799999,8.190000,41.720001,19.33
104233,-0.211792,0.386984,1.043832,16.660000,7.770000,49.840000,19.33
104244,-0.235704,0.345016,1.021384,18.200001,8.470000,59.080002,19.29
104255,-0.220576,0.310368,1.003328,5.530000,11.900000,64.330002,19.26
104266,-0.255712,0.325496,1.007720,16.030001,14.350000,71.190002,19.26
104277,-0.290360,0.307440,1.016504,16.450001,12.180000,74.760002,19.24
104288,-0.305976,0.304024,1.008696,19.389999,11.830000,79.169998,19.24
104299,-0.328424,0.289384,0.971608,22.049999,11.550000,83.230003,19.29
104310,-0.320616,0.303048,0.964288,24.290001,13.580000,85.120003,19.28
104321,-0.341600,0.286944,0.964288,24.430000,12.950000,89.739998,19.28
104331,-0.327448,0.257176,0.958432,26.459999,11.690000,92.050003,19.21
104342,-0.287920,0.264496,0.964776,29.750000,12.950000,93.309998,19.21
104353,-0.273280,0.291824,0.974536,32.480000,13.370000,93.589996,19.28
104364,-0.273768,0.305976,0.977464,34.299999,13.790000,94.290001,19.28
104375,-0.279624,0.309880,0.985272,33.950001,12.530000,94.500000,19.31
104386,-0.243512,0.291336,0.976000,32.759998,8.400000,94.220001,19.27
104397,-0.147376,0.278160,0.933544,29.190001,7.070000,93.029999,19.27
104408,-0.097112,0.261568,0.908656,30.309999,7.840000,87.779999,19.30
104419,-0.053680,0.245464,0.894016,30.309999,8.610000,84.349998,19.30
104430,-0.025376,0.249856,0.885720,26.670000,10.220000,79.730003,19.30
104441,-0.002440,0.267912,0.904752,24.150000,10.430000,73.989998,19.27
104452,0.028304,0.268888,0.921344,23.590000,7.910000,70.139999,19.27
104462,0.064416,0.253760,0.890112,24.500000,6.510000,64.750000,19.28
104473,0.096136,0.259616,0.892064,21.280001,6.790000,59.709999,19.28
104484,0.136152,0.253760,0.880840,20.510000,5.250000,53.830002,19.29
104494,0.167384,0.218136,0.878400,21.209999,3.570000,48.020000,19.29
104505,0.218136,0.200568,0.866200,22.049999,3.780000,42.139999,19.25
104516,0.233752,0.226432,0.875472,23.799999,5.390000,35.349998,19.26
104527,0.203008,0.265960,0.913048,24.430000,3.500000,30.940001,19.26
104538,0.226920,0.266936,0.931104,21.070000,-1.470000,28.209999,19.28
104549,0.316224,0.239120,0.903776,25.340000,-2.030000,20.719999,19.28
104560,0.336232,0.239608,0.892552,28.209999,1.890000,12.040000,19.23
104570,0.325008,0.276696,0.905728,33.110001,4.130000,5.320000,19.23
104581,0.315248,0.324032,0.928176,34.439999,2.310000,0.910000,19.25
104592,0.341112,0.363072,0.912072,32.340000,1.330000,-0.980000,19.22
104603,0.371368,0.396256,0.922808,24.430000,2.590000,-4.760000,19.22
104614,0.386496,0.395280,0.941840,22.400000,1.680000,-7.980000,19.27
104625,0.416264,0.384056,0.952088,24.010000,0.910000,-11.620000,19.27
104636,0.437248,0.413336,0.962336,27.370001,3.920000,-13.090000,19.27
104647,0.456280,0.453352,1.008696,26.740000,5.950000,-17.360001,19.26
104658,0.378688,0.515328,1.043344,14.700000,-6.230000,-14.140000,19.26
104669,0.425048,0.443104,1.006256,0.770000,-8.050000,2.870000,19.25
104679,0.566568,0.247416,1.008208,20.230000,9.380000,16.590000,19.25
104690,0.594384,0.434808,0.953552,50.470001,-2.170000,-8.260000,19.31
104701,0.589992,0.565592,0.939400,8.260000,5.390000,-12.530000,19.29
104712,0.469456,0.545584,1.051152,-22.680000,-8.260000,-7.420000,19.29
104723,0.526552,0.420656,1.080920,-17.010000,-21.000000,-7.000000,19.27
104734,0.648552,0.379664,1.023824,-13.580000,-21.280001,-5.180000,19.27
104747,0.723216,0.369904,0.962824,-17.290001,-15.680000,-7.000000,19.31
104758,0.671000,0.448960,1.011136,-25.410000,-14.910000,-1.400000,19.27
104769,0.733952,0.400648,0.988200,-24.150000,-17.150000,2.660000,19.27
104780,0.787144,0.338184,0.923296,-21.070000,-18.480000,6.580000,19.25
104791,0.822768,0.317200,0.870592,-18.760000,-15.540000,7.840000,19.25
104802,0.813496,0.344528,0.854488,-18.760000,-12.950000,9.310000,19.28
104813,0.775920,0.368440,0.882792,-21.490000,-11.550000,11.270000,19.28
104823,0.773480,0.362096,0.898408,-18.129999,-12.040000,16.730000,19.27
104834,0.766648,0.329400,0.899872,-16.730000,-12.460000,18.410000,19.23
104845,0.753472,0.320128,0.897432,-16.240000,-11.480000,23.309999,19.23
104856,0.726632,0.338184,0.882792,-10.990000,-12.670000,24.360001,19.29
104868,0.712480,0.361608,0.886696,-16.730000,-12.670000,28.840000,19.29
104879,0.696864,0.315736,0.867664,-17.080000,-13.930000,30.309999,19.22
104890,0.702232,0.303536,0.833992,-17.290001,-14.210000,31.850000,19.28
104901,0.686128,0.305488,0.840336,-20.370001,-12.180000,32.900002,19.28
104912,0.667096,0.294264,0.859856,-22.190001,-12.880000,34.230000,19.25
104923,0.691984,0.270352,0.867176,-26.879999,-15.610000,32.689999,19.25
104933,0.700768,0.216184,0.842776,-25.969999,-16.520000,29.330000,19.28
104944,0.702232,0.180072,0.818864,-22.120001,-16.590000,24.850000,19.28
104955,0.698816,0.157624,0.813984,-14.070000,-18.969999,16.730000,19.28
104966,0.703208,0.151768,0.793000,-10.430000,-20.160000,10.220000,19.27
104977,0.729072,0.121512,0.826184,-14.210000,-20.160000,-0.490000,19.27
104988,0.752984,0.036600,0.820816,-16.170000,-20.370001,-11.620000,19.30
104999,0.741272,-0.045872,0.748104,-9.590000,-18.760000,-25.900000,19.30
105010,0.752008,-0.046360,0.664168,0.980000,-15.050000,-46.130001,19.29
105021,0.727608,0.026840,0.614392,-6.580000,-6.370000,-66.290001,19.24
105032,0.623664,0.111264,0.657824,-28.770000,2.240000,-87.709999,19.24
105043,0.483120,0.087840,0.732000,-49.139999,10.850000,-104.720001,19.27
105054,0.347456,0.027816,0.726144,-49.419998,15.820000,-118.160004,19.27
105065,0.197152,0.079544,0.690520,-56.490002,23.660000,-130.270004,19.28
105076,0.031232,0.217648,0.727120,-73.080002,35.560001,-145.809998,19.29
105087,-0.138592,0.298168,0.858880,-96.459999,39.270000,-157.639999,19.29
105098,-0.327936,0.288408,0.998448,-119.000000,38.500000,-164.639999,19.29
105109,-0.506544,0.249856,1.071160,-122.639999,36.470001,-170.940002,19.29
105120,-0.675392,0.230824,1.160952,-108.779999,26.600000,-170.309998,19.25
105131,-0.771528,0.227896,1.191208,-85.400002,0.000000,-163.449997,19.27
105142,-0.832040,0.239608,1.179984,-54.599998,8.960000,-158.199997,19.27
105153,-0.854000,0.295240,1.173640,-34.439999,1.050000,-153.020004,19.29
105165,-0.873520,0.370880,1.191696,-32.060001,-6.090000,-141.470001,19.29
105176,-0.881328,0.420656,1.175592,-23.450001,-14.630000,-119.070000,19.30
105187,-0.832040,0.451400,1.125328,-15.960000,-17.639999,-91.489998,19.27
105198,-0.744200,0.410408,1.078480,-13.650000,-19.809999,-73.570000,19.27
105209,-0.647576,0.316712,1.047248,-12.810000,-19.459999,-56.910000,19.24
105220,-0.555344,0.280600,1.061400,-7.420000,-17.430000,-42.840000,19.24
105231,-0.555344,0.228384,1.062376,7.210000,-14.070000,-13.230000,19.28
105242,-0.438224,0.183488,1.065304,21.700001,-18.969999,-10.500000,19.28
105253,-0.361120,0.203984,1.049200,4.270000,2.870000,16.660000,19.28
105264,-0.323544,0.035624,1.050176,-2.450000,-1.610000,27.510000,19.32
105275,-0.211792,-0.047824,1.095560,16.240000,2.170000,29.750000,19.32
105287,-0.194224,-0.045384,1.096536,17.290001,3.220000,31.570000,19.30
105297,-0.103456,-0.059536,1.039440,15.470000,4.900000,31.360001,19.30
105308,-0.041968,-0.073200,1.028216,16.379999,8.330000,26.389999,19.28
105319,-0.035624,-0.010248,1.076528,7.490000,12.880000,23.170000,19.26
105330,-0.024400,0.028792,1.106296,-4.480000,13.510000,20.580000,19.26
105341,0.002440,-0.011712,1.093608,-8.890000,12.180000,17.360001,19.28
105352,0.033672,-0.030744,1.066768,-5.390000,10.290000,13.650000,19.28
105363,0.047336,0.016104,1.059448,-4.830000,8.190000,9.660000,19.30
105374,0.059536,0.066856,1.049200,-9.240000,6.440000,6.510000,19.28
105385,0.063440,0.086376,1.042368,-14.630000,5.530000,4.130000,19.28
105396,0.072224,0.084424,1.040904,-13.860000,4.900000,-0.210000,19.30
105407,0.058560,0.084424,1.052616,-9.170000,3.430000,-3.220000,19.30
105418,0.046360,0.105408,1.044320,4.550000,1.330000,-4.760000,19.30
105429,0.023912,0.156160,1.022848,12.110000,1.120000,-3.990000,19.27
105440,0.002928,0.201544,1.008696,10.780000,0.980000,-1.890000,19.27
105451,-0.004392,0.212768,0.999424,10.920000,1.260000,0.980000,19.28
105462,-0.035136,0.221064,1.004304,15.470000,1.540000,2.940000,19.28
105474,-0.084912,0.250344,1.007232,16.799999,2.800000,8.680000,19.26
105484,-0.122488,0.267424,0.996496,20.299999,4.620000,13.930000,19.26
105495,-0.181048,0.272304,1.002840,20.230000,5.250000,22.400000,19.30
105506,-0.205448,0.260104,0.991616,25.969999,5.110000,27.930000,19.27
105517,-0.212280,0.271328,0.991128,27.790001,5.250000,35.279999,19.27
105528,-0.207888,0.301096,0.991128,29.610001,5.810000,40.810001,19.30
105539,-0.238632,0.327448,0.992592,30.309999,6.790000,46.130001,19.30
105549,-0.271816,0.346480,0.987224,26.600000,7.210000,52.500000,19.28
105560,-0.278648,0.320616,0.974536,22.330000,8.540000,59.290001,19.23
105571,-0.296704,0.286456,0.973072,21.070000,10.780000,63.560001,19.23
105582,-0.328424,0.274256,0.988200,23.870001,10.990000,68.669998,19.29
105593,-0.336720,0.269864,0.986736,31.080000,9.450000,73.290001,19.29
105606,-0.312320,0.282064,0.979416,34.160000,8.400000,76.510002,19.28
105617,-0.278160,0.298656,0.984784,31.990000,7.770000,77.559998,19.34
105628,-0.254736,0.298168,0.978928,29.610001,7.560000,80.150002,19.34
105639,-0.267912,0.288896,0.980880,26.530001,6.650000,81.550003,19.25
105650,-0.260592,0.261568,0.989664,27.510000,5.600000,82.180000,19.25
105661,-0.254248,0.256688,0.989176,32.480000,4.830000,81.900002,19.26
105672,-0.230824,0.233752,0.968680,36.610001,2.870000,81.480003,19.20
105682,-0.174216,0.226920,0.955016,37.380001,1.120000,77.419998,19.20
105694,-0.134200,0.234728,0.955016,39.830002,1.330000,73.500000,19.30
105704,-0.111264,0.245464,0.940376,43.470001,-0.350000,69.300003,19.30
105715,-0.077104,0.258152,0.921832,42.980000,-0.980000,65.029999,19.27
105726,-0.057096,0.260104,0.894016,41.650002,-0.770000,60.270000,19.27
105737,-0.023424,0.273280,0.890600,40.180000,0.840000,56.700001,19.27
105749,0.012200,0.279136,0.882304,38.150002,0.490000,52.360001,19.28
105761,0.047336,0.264984,0.888648,38.009998,0.350000,45.570000,19.28
105772,0.079544,0.266936,0.920368,38.080002,1.120000,40.669998,19.28
105783,0.098576,0.277184,0.914512,41.369999,-1.190000,36.400002,19.28
105794,0.139080,0.317200,0.897920,41.650002,-0.840000,32.410000,19.27
105805,0.180560,0.342088,0.888160,31.780001,-0.280000,27.580000,19.27
105816,0.208376,0.372832,0.897920,30.450001,0.630000,20.510000,19.27
105827,0.218624,0.372344,0.941352,30.030001,-0.840000,14.560000,19.27
105838,0.231312,0.345504,0.926712,28.490000,-2.660000,10.430000,19.27
105849,0.218624,0.354776,0.944768,20.930000,-5.880000,9.100000,19.28
105860,0.226432,0.368928,0.994056,12.180000,-9.030000,15.890000,19.28
105871,0.323544,0.384056,1.015528,22.610001,-12.180000,10.920000,19.28
105882,0.403576,0.424072,0.993568,22.610001,-10.780000,5.250000,19.27
105893,0.400648,0.422608,0.964776,17.639999,-8.820000,-4.550000,19.27
105904,0.355264,0.442128,0.988200,19.040001,-8.680000,-10.430000,19.27
105915,0.353312,0.461160,0.995032,25.830000,-12.110000,-12.250000,19.25
105926,0.392352,0.455792,0.954040,23.940001,-12.950000,-11.060000,19.25
105936,0.453840,0.455792,0.955992,20.860001,-11.060000,-11.550000,19.23
105947,0.530944,0.459696,0.978440,24.990000,-7.140000,-13.160000,19.23
105958,0.409920,0.550464,1.029680,15.820000,-17.639999,-10.570000,19.30
105969,0.408456,0.505568,0.987712,8.680000,-25.690001,1.750000,19.30
105980,0.666120,0.395768,0.988200,14.350000,-5.530000,15.610000,19.31
105992,0.647088,0.435784,0.995032,32.549999,-8.890000,9.030000,19.28
106002,0.679784,0.520696,0.952576,6.790000,-14.140000,-3.430000,19.28
106014,0.662704,0.459696,0.977464,-13.230000,-18.340000,1.540000,19.30
106024,0.680272,0.353800,1.006744,-6.160000,-15.400000,8.540000,19.30
106035,0.695400,0.364048,0.964288,7.980000,-18.340000,11.130000,19.32
106046,0.739808,0.436272,0.909632,-5.250000,-17.990000,8.610000,19.24
106057,0.738344,0.430904,0.903776,-25.480000,-15.120000,9.730000,19.24
106068,0.724680,0.329888,0.911584,-20.650000,-16.590000,11.410000,19.31
106079,0.730536,0.270352,0.869128,-9.380000,-17.080000,12.670000,19.31
106090,0.736880,0.285480,0.856928,-8.540000,-13.650000,14.000000,19.29
106101,0.737856,0.331352,0.885232,-14.560000,-11.900000,15.820000,19.28
106112,0.716872,0.315248,0.871080,-12.460000,-11.200000,19.879999,19.28
106123,0.709552,0.305488,0.864736,-11.690000,-10.220000,22.889999,19.32
106134,0.706624,0.303536,0.865224,-14.140000,-10.500000,24.360001,19.32
106145,0.728096,0.290848,0.873520,-17.010000,-10.570000,26.389999,19.29
106156,0.721752,0.272304,0.865224,-16.660000,-10.220000,28.139999,19.29
106167,0.720288,0.284504,0.858880,-14.140000,-10.360000,29.680000,19.28
106178,0.730048,0.297680,0.857904,-15.260000,-10.780000,30.100000,19.28
106189,0.738344,0.299632,0.853024,-19.740000,-11.060000,30.870001,19.28
106200,0.715896,0.277672,0.842288,-21.980000,-12.460000,29.330000,19.29
106211,0.693448,0.295240,0.836432,-27.510000,-14.210000,27.440001,19.29
106222,0.692960,0.290360,0.867176,-35.910000,-17.290001,25.969999,19.32
106233,0.688568,0.246928,0.860344,-38.990002,-19.950001,22.330000,19.30
106244,0.677832,0.178120,0.830576,-35.000000,-20.020000,16.520000,19.30
106255,0.643672,0.158112,0.799832,-29.120001,-18.410000,6.720000,19.29
106266,0.617320,0.142496,0.806664,-26.320000,-17.500000,-3.290000,19.29
106278,0.608048,0.135176,0.812520,-19.180000,-20.230000,-18.830000,19.33
106289,0.562176,0.120048,0.786168,-16.170000,-21.700001,-32.340000,19.27
106300,0.519232,0.103456,0.811056,-19.389999,-20.650000,-45.849998,19.27
106311,0.482632,0.020984,0.747128,-10.780000,-19.530001,-57.540001,19.30
106322,0.458232,-0.025864,0.685640,2.520000,-15.680000,-75.739998,19.30
106333,0.413336,-0.007320,0.662704,-5.390000,-4.060000,-99.540001,19.29
106345,0.346968,0.064904,0.665144,-4.690000,5.600000,-116.550003,19.32
106356,0.216184,0.186416,0.757376,-26.040001,12.950000,-133.559998,19.32
106366,0.053680,0.278648,0.820328,-47.599998,20.090000,-144.410004,19.26
106377,-0.129320,0.261568,0.909144,-64.680000,21.840000,-151.899994,19.26
106388,-0.258640,0.178120,0.884256,-76.230003,22.049999,-155.190002,19.29
106399,-0.377224,0.168360,0.884744,-87.709999,27.510000,-160.020004,19.30
106410,-0.520696,0.146888,0.925736,-103.879997,35.840000,-166.880005,19.30
106422,-0.663680,0.103944,1.015528,-104.300003,36.400002,-172.619995,19.26
