timestamp_ms,ax,ay,az,gx,gy,gz,tempC
2044673,0.251808,-0.261080,1.115080,-33.810001,-32.619999,1.190000,20.30
2044684,0.295728,-0.228872,1.130696,-26.740000,-31.920000,3.850000,20.32
2044697,0.314272,-0.202032,1.095072,-21.559999,-30.030001,7.000000,20.32
2044708,0.272792,-0.203008,1.053592,-20.860001,-36.680000,11.760000,20.30
2044719,0.266448,-0.219600,1.032120,-22.889999,-42.209999,14.490000,20.35
2044730,0.314760,-0.241072,1.007232,-26.459999,-44.169998,15.330000,20.35
2044741,0.320616,-0.216672,1.001376,-34.439999,-45.990002,16.450001,20.32
2044752,0.314272,-0.279136,0.974536,-36.959999,-48.299999,17.150000,20.32
2044763,0.318176,-0.494344,0.904752,-32.549999,-49.070000,17.500000,20.32
2044774,0.316224,-0.385520,0.873520,-25.760000,-50.119999,17.150000,20.33
2044785,0.310368,-0.401136,0.837408,-20.440001,-49.630001,17.709999,20.33
2044796,0.307928,-0.374296,0.845216,-18.690001,-48.860001,18.690001,20.34
2044807,0.285480,-0.323544,0.874496,-23.799999,-49.209999,18.410000,20.34
2044818,0.283528,-0.334768,0.867664,-31.290001,-50.470001,17.709999,20.33
2044829,0.290360,-0.390400,0.843264,-37.730000,-50.680000,17.219999,20.33
2044840,0.282064,-0.422120,0.835456,-43.959999,-51.240002,14.560000,20.32
2044852,0.283040,-0.465064,0.806176,-42.910000,-51.169998,12.670000,20.32
2044863,0.282064,-0.503616,0.783240,-35.770000,-51.240002,10.430000,20.32
2044874,0.275232,-0.546560,0.745664,-29.260000,-51.799999,8.120000,20.34
2044885,0.280112,-0.483608,0.740296,-22.120001,-53.480000,6.650000,20.34
2044896,0.273768,-0.406504,0.766648,-22.400000,-55.439999,5.180000,20.34
2044907,0.271816,-0.393816,0.787144,-28.209999,-57.750000,1.890000,20.30
2044918,0.283528,-0.459208,0.807640,-32.200001,-57.680000,-1.680000,20.30
2044929,0.266936,-0.508984,0.826672,-32.549999,-58.939999,-6.020000,20.32
2044940,0.266448,-0.481656,0.842776,-31.990000,-59.639999,-9.240000,20.32
2044954,0.242048,-0.447984,0.832040,-31.850000,-62.160000,-12.110000,20.33
2044966,0.250832,-0.484096,0.789584,-27.510000,-63.490002,-15.330000,20.31
2044977,0.257176,-0.472872,0.747616,-21.980000,-64.330002,-17.709999,20.31
2044989,0.276208,-0.473360,0.729072,-21.490000,-65.800003,-19.600000,20.36
2045000,0.290360,-0.415776,0.714920,-28.980000,-66.639999,-22.120001,20.27
2045011,0.329400,-0.438224,0.672952,-39.270000,-66.360001,-23.030001,20.27
2045022,0.377712,-0.465552,0.606096,-43.750000,-63.910000,-21.980000,20.39
2045033,0.470432,-0.446032,0.486048,-44.520000,-59.430000,-17.080000,20.39
2045045,0.642208,-0.542656,0.779824,-58.450001,-42.490002,-9.590000,20.31
2045056,0.475800,-0.546072,0.798856,-52.849998,-26.389999,-8.820000,20.30
2045067,0.386008,-0.517768,0.816424,-63.070000,-29.540001,-5.530000,20.30
2045078,0.417728,-0.507520,0.730536,-70.910004,-33.599998,-7.630000,20.33
2045089,0.455304,-0.515328,0.684664,-81.269997,-27.440001,-10.220000,20.33
2045101,0.435784,-0.460184,0.593408,-90.580002,-26.879999,-15.120000,20.33
2045112,0.500200,-0.544120,0.547048,-87.150002,-21.980000,-20.090000,20.34
2045123,0.557296,-0.610976,0.560224,-77.000000,-13.230000,-24.639999,20.34
2045134,0.541680,-0.637816,0.596336,-65.099998,-8.400000,-28.770000,20.33
2045146,0.541192,-0.593408,0.588528,-51.450001,-8.400000,-28.280001,20.33
2045157,0.602680,-0.612928,0.599264,-41.720001,-6.930000,-28.139999,20.34
2045168,0.588040,-0.595848,0.587064,-31.080000,-4.760000,-28.629999,20.31
2045179,0.582672,-0.504104,0.589992,-32.270000,-4.830000,-28.980000,20.31
2045190,0.564616,-0.525088,0.607072,-39.900002,-4.900000,-29.260000,20.31
2045201,0.566080,-0.502152,0.585112,-48.299999,-5.250000,-28.000000,20.31
2045212,0.598776,-0.578280,0.539728,-47.669998,-7.210000,-26.740000,20.36
2045223,0.620248,-0.615856,0.512400,-37.660000,-5.530000,-25.200001,20.30
2045234,0.620248,-0.561200,0.481168,-29.330000,-5.950000,-25.549999,20.30
2045245,0.623664,-0.547048,0.468968,-25.270000,-3.360000,-25.270000,20.31
2045256,0.618784,-0.563640,0.464576,-23.940001,-1.750000,-26.389999,20.31
2045267,0.606096,-0.563640,0.465552,-23.309999,0.280000,-25.480000,20.36
2045278,0.620736,-0.617320,0.463112,-17.639999,2.170000,-24.639999,20.29
2045289,0.612440,-0.638792,0.469456,-4.900000,4.060000,-23.309999,20.29
2045300,0.604632,-0.528504,0.469944,-1.610000,5.390000,-22.190001,20.36
2045311,0.600728,-0.533384,0.464088,-7.980000,7.210000,-21.490000,20.36
2045322,0.591456,-0.582184,0.504592,-14.420000,10.500000,-19.809999,20.31
2045333,0.575840,-0.608536,0.541192,-16.520000,11.060000,-17.290001,20.31
2045344,0.577792,-0.598776,0.557296,-19.320000,11.900000,-15.190000,20.31
2045356,0.573400,-0.634400,0.561688,-22.330000,10.850000,-13.720000,20.32
2045366,0.594384,-0.663680,0.564128,-19.459999,12.320000,-14.420000,20.32
2045378,0.583160,-0.633912,0.559736,-16.309999,11.550000,-13.370000,20.30
2045389,0.583648,-0.581696,0.558760,-17.360001,11.060000,-13.650000,20.30
2045400,0.586088,-0.585112,0.558760,-21.700001,11.270000,-13.580000,20.35
2045411,0.606584,-0.639280,0.567056,-18.620001,11.340000,-13.300000,20.32
2045422,0.609512,-0.639768,0.566080,-12.460000,11.550000,-13.720000,20.32
2045433,0.615368,-0.603656,0.590968,-9.660000,9.030000,-13.300000,20.34
2045444,0.590968,-0.609512,0.603656,-8.540000,9.730000,-15.470000,20.34
2045455,0.623664,-0.554856,0.624640,-2.450000,7.490000,-14.560000,20.28
2045467,0.610976,-0.473848,0.629520,-6.930000,8.890000,-15.610000,20.31
2045478,0.614392,-0.533384,0.608048,-9.240000,13.720000,-16.660000,20.31
2045489,0.606096,-0.602192,0.576328,-3.990000,15.260000,-17.639999,20.33
2045500,0.596824,-0.573888,0.593896,4.550000,13.930000,-17.430000,20.33
2045511,0.572424,-0.556320,0.618784,5.530000,12.670000,-14.280000,20.31
2045522,0.600728,-0.601704,0.571936,10.640000,9.450000,-13.860000,20.33
2045533,0.599264,-0.561688,0.538752,8.400000,10.010000,-9.730000,20.33
2045544,0.571448,-0.500200,0.548024,2.730000,7.770000,-7.980000,20.33
2045555,0.585600,-0.476776,0.569008,-3.850000,5.320000,-5.390000,20.33
2045566,0.597312,-0.538752,0.619272,-6.510000,4.620000,-4.270000,20.36
2045577,0.593896,-0.549000,0.656360,-7.700000,3.290000,-3.150000,20.32
2045588,0.602680,-0.550952,0.649040,-7.210000,1.890000,-2.730000,20.32
2045599,0.609512,-0.557784,0.635864,-6.580000,1.540000,-3.080000,20.34
2045610,0.600728,-0.579256,0.620736,-5.040000,0.840000,-3.360000,20.34
2045622,0.603168,-0.582184,0.624152,-2.380000,-0.070000,-3.080000,20.33
2045633,0.597800,-0.577792,0.618784,-0.980000,-0.490000,-2.940000,20.34
2045644,0.591944,-0.559736,0.613904,-3.570000,-0.980000,-2.100000,20.34
2045655,0.589992,-0.567056,0.615856,-6.860000,-2.030000,-1.540000,20.33
2045666,0.589992,-0.590968,0.596336,-8.190000,-2.310000,-1.050000,20.33
2045677,0.591944,-0.602192,0.579744,-7.350000,-2.660000,-1.120000,20.36
2045688,0.596336,-0.595848,0.577792,-5.390000,-3.290000,-1.050000,20.32
2045699,0.594384,-0.599264,0.577792,-4.410000,-3.500000,-1.050000,20.32
2045711,0.599752,-0.599752,0.582672,-2.100000,-3.150000,-0.280000,20.30
2045723,0.586576,-0.585112,0.566080,-3.570000,-3.080000,-0.210000,20.30
2045734,0.592920,-0.609024,0.563152,-4.620000,-2.940000,-0.840000,20.38
2045745,0.593896,-0.600728,0.566080,-5.670000,-2.940000,-1.680000,20.34
2045756,0.598776,-0.622200,0.557784,-5.600000,-3.010000,-2.590000,20.34
2045767,0.600240,-0.619272,0.564128,-4.620000,-3.290000,-3.360000,20.37
2045778,0.596824,-0.585600,0.569008,-4.760000,-3.570000,-3.850000,20.37
2045790,0.595848,-0.610000,0.568520,-6.650000,-3.640000,-3.990000,20.34
2045801,0.596336,-0.612440,0.574376,-5.740000,-3.780000,-4.130000,20.27
2045813,0.601216,-0.587064,0.591944,-5.040000,-4.410000,-3.780000,20.27
2045824,0.601704,-0.584624,0.585112,-4.270000,-5.110000,-3.710000,20.36
2045835,0.610976,-0.594384,0.566568,-2.870000,-5.670000,-4.130000,20.36
2045846,0.606584,-0.598776,0.562664,-2.240000,-6.090000,-4.550000,20.34
2045857,0.610000,-0.596824,0.559248,-1.400000,-6.440000,-4.760000,20.36
2045868,0.609512,-0.594384,0.556808,-1.260000,-6.650000,-4.550000,20.36
2045879,0.610488,-0.580720,0.561688,-1.540000,-6.370000,-3.850000,20.32
2045890,0.610976,-0.582672,0.555344,-2.660000,-5.880000,-2.870000,20.32
2045901,0.610000,-0.582672,0.548512,-4.130000,-5.320000,-1.680000,20.32
2045912,0.610976,-0.586088,0.541192,-4.410000,-4.690000,-1.400000,20.32
2045923,0.609024,-0.586088,0.532408,-3.640000,-4.480000,-1.470000,20.32
2045934,0.617320,-0.576328,0.516792,-2.100000,-4.200000,-1.610000,20.31
2045946,0.612440,-0.579256,0.516304,-2.310000,-3.710000,-1.960000,20.31
2045957,0.612440,-0.587064,0.511912,-2.310000,-3.010000,-2.030000,20.33
2045972,0.610000,-0.624640,0.514352,-0.770000,-0.770000,-1.260000,20.36
2045984,0.609512,-0.603168,0.524112,0.980000,0.210000,-0.560000,20.36
2045995,0.609512,-0.582672,0.545584,1.400000,0.280000,-0.070000,20.35
2046006,0.610976,-0.586576,0.550464,0.980000,1.190000,0.350000,20.33
2046017,0.606096,-0.571448,0.536312,0.560000,1.820000,0.000000,20.33
2046028,0.610488,-0.591944,0.518256,1.050000,2.380000,-0.560000,20.34
2046039,0.605120,-0.594872,0.507032,3.570000,2.590000,-1.330000,20.34
2046050,0.612440,-0.603168,0.508008,5.950000,2.730000,-1.610000,20.34
2046061,0.609512,-0.601216,0.525576,7.000000,3.080000,-1.540000,20.34
2046072,0.615856,-0.589504,0.547048,7.840000,2.520000,-1.260000,20.37
2046083,0.610000,-0.564616,0.555344,4.200000,2.170000,-0.980000,20.35
2046093,0.613416,-0.585112,0.558272,1.960000,2.100000,-0.700000,20.35
2046104,0.616832,-0.598288,0.561200,2.240000,2.030000,-0.420000,20.41
2046115,0.613416,-0.603168,0.570472,4.270000,2.030000,-0.280000,20.41
2046127,0.606096,-0.590480,0.572912,4.690000,1.890000,-0.420000,20.29
2046139,0.603656,-0.595360,0.563152,4.200000,1.960000,-0.490000,20.36
2046151,0.601704,-0.593408,0.564128,4.270000,2.030000,-0.980000,20.36
2046163,0.598288,-0.585112,0.565104,3.710000,2.310000,-0.980000,20.35
2046175,0.596824,-0.587064,0.565592,2.520000,2.240000,-1.260000,20.34
2046186,0.595848,-0.604144,0.572424,2.940000,2.380000,-1.610000,20.34
2046197,0.593896,-0.605608,0.582672,4.410000,2.310000,-1.540000,20.34
2046208,0.595360,-0.589992,0.592432,5.110000,1.820000,-1.820000,20.34
2046220,0.594384,-0.596336,0.584136,4.550000,1.680000,-2.170000,20.32
2046232,0.597800,-0.610976,0.587064,6.020000,1.610000,-2.380000,20.35
2046243,0.597312,-0.600240,0.588528,7.350000,1.260000,-2.590000,20.35
2046254,0.598776,-0.586088,0.600728,7.560000,0.770000,-2.590000,20.32
2046265,0.598288,-0.593896,0.596824,7.840000,0.350000,-2.800000,20.32
2046278,0.602680,-0.598288,0.597800,8.400000,-0.420000,-2.590000,20.33
2046289,0.603168,-0.572424,0.595848,6.580000,-1.330000,-2.380000,20.33
2046300,0.603656,-0.568520,0.589504,3.570000,-2.240000,-2.240000,20.33
2046312,0.599752,-0.575840,0.590968,0.420000,-3.080000,-2.100000,20.34
2046323,0.600728,-0.591456,0.599752,-0.140000,-3.290000,-1.890000,20.33
2046335,0.597800,-0.588528,0.605120,0.910000,-3.430000,-1.680000,20.33
2046346,0.595848,-0.571448,0.604144,0.910000,-3.710000,-1.960000,20.36
2046357,0.597312,-0.578280,0.598776,0.140000,-3.990000,-2.730000,20.36
2046368,0.602192,-0.596336,0.590480,1.260000,-3.920000,-3.150000,20.32
2046379,0.600728,-0.577792,0.588528,2.100000,-3.920000,-3.220000,20.32
2046390,0.601704,-0.577304,0.585112,1.610000,-4.060000,-3.290000,20.32
2046402,0.600728,-0.583160,0.582672,1.120000,-3.990000,-3.360000,20.34
2046413,0.602192,-0.575840,0.581696,0.910000,-4.270000,-3.500000,20.34
2046424,0.603656,-0.571448,0.579744,0.770000,-4.550000,-3.780000,20.36
2046435,0.602680,-0.581208,0.576816,0.980000,-4.690000,-3.710000,20.34
2046446,0.608048,-0.580720,0.576328,1.610000,-4.480000,-3.430000,20.34
2046457,0.605608,-0.569984,0.578768,1.680000,-4.970000,-3.360000,20.31
2046469,0.609024,-0.565592,0.570960,1.190000,-4.830000,-3.150000,20.31
2046480,0.609512,-0.564616,0.557784,0.630000,-4.620000,-3.080000,20.37
2046491,0.609512,-0.572912,0.554856,0.910000,-3.920000,-2.870000,20.35
2046502,0.612928,-0.563152,0.567544,1.680000,-3.430000,-2.380000,20.35
2046513,0.614880,-0.557784,0.565104,1.680000,-2.940000,-1.890000,20.36
2046524,0.615368,-0.549976,0.559248,1.120000,-2.520000,-1.400000,20.36
2046536,0.612928,-0.550464,0.550952,-0.140000,-2.450000,-1.330000,20.33
2046548,0.615368,-0.558272,0.546072,0.560000,-2.030000,-1.050000,20.34
2046559,0.616344,-0.561688,0.548024,1.820000,-1.400000,-0.350000,20.34
2046570,0.613416,-0.559736,0.560712,3.710000,-1.120000,0.000000,20.34
2046581,0.611464,-0.540216,0.563152,3.850000,-0.910000,0.560000,20.34
2046592,0.612928,-0.550952,0.564616,3.220000,0.070000,1.260000,20.36
2046603,0.612928,-0.547536,0.558760,2.240000,-0.490000,0.980000,20.33
2046614,0.616344,-0.558272,0.564616,1.470000,0.280000,1.820000,20.33
2046625,0.612440,-0.563152,0.579744,2.170000,0.140000,2.380000,20.32
2046636,0.608048,-0.550464,0.586088,2.380000,0.000000,2.590000,20.32
2046647,0.603168,-0.552416,0.586088,2.380000,-0.350000,2.590000,20.34
2046658,0.600728,-0.564616,0.584136,2.800000,-0.490000,2.940000,20.34
2046669,0.602680,-0.566080,0.583648,3.220000,-0.840000,3.010000,20.29
2046680,0.608536,-0.566080,0.588040,3.780000,-0.980000,2.940000,20.32
2046691,0.604632,-0.565592,0.594872,3.920000,-1.260000,2.520000,20.32
2046702,0.606584,-0.579744,0.599752,3.710000,-1.400000,2.450000,20.31
2046713,0.601704,-0.583648,0.601704,4.130000,-1.260000,2.660000,20.31
2046724,0.598776,-0.575352,0.595848,3.570000,-1.260000,2.660000,20.33
2046734,0.594384,-0.580720,0.590480,2.800000,-1.610000,2.310000,20.31
2046745,0.601704,-0.583648,0.585600,1.750000,-1.330000,2.590000,20.31
2046756,0.600240,-0.589504,0.581696,1.470000,-1.260000,2.450000,20.31
2046767,0.601704,-0.587552,0.584136,2.170000,-1.680000,2.240000,20.31
2046778,0.600240,-0.576816,0.579744,1.330000,-2.100000,1.680000,20.36
2046789,0.601704,-0.573888,0.578280,-0.420000,-2.450000,1.260000,20.32
2046800,0.601704,-0.586576,0.579744,-1.400000,-2.660000,1.050000,20.32
2046811,0.602680,-0.591944,0.578280,-0.840000,-2.590000,0.910000,20.38
2046822,0.598288,-0.582672,0.583160,-0.700000,-2.660000,0.490000,20.38
2046834,0.599752,-0.587552,0.589992,-0.700000,-2.660000,0.140000,20.33
2046845,0.597800,-0.586576,0.585112,-0.490000,-2.310000,-0.070000,20.33
2046856,0.597312,-0.594872,0.577792,-0.490000,-2.170000,-0.350000,20.36
2046867,0.598288,-0.595848,0.583160,0.420000,-1.960000,-0.280000,20.32
2046878,0.596824,-0.573888,0.587064,1.120000,-2.100000,-0.210000,20.32
2046889,0.597312,-0.575840,0.589016,1.050000,-2.730000,-0.560000,20.32
2046900,0.599752,-0.562176,0.582672,-0.210000,-2.730000,-0.560000,20.32
2046911,0.599752,-0.565104,0.579744,-1.890000,-2.940000,-0.700000,20.40
2046922,0.604632,-0.574864,0.577792,-2.240000,-2.940000,-0.490000,20.32
2046934,0.606584,-0.580720,0.574376,-1.120000,-2.870000,-0.560000,20.32
2046945,0.607560,-0.577792,0.580720,-0.140000,-2.730000,-0.700000,20.36
2046957,0.603656,-0.577792,0.591456,0.770000,-2.590000,-1.050000,20.32
2046968,0.603168,-0.569496,0.587552,0.420000,-2.730000,-0.840000,20.32
2046979,0.601216,-0.567544,0.581208,-0.490000,-2.870000,-0.630000,20.32
2046996,0.601216,-0.565104,0.583160,-0.980000,-3.010000,-0.280000,20.32
2047009,0.604144,-0.562176,0.584624,-1.260000,-3.290000,-0.210000,20.32
2047022,0.604632,-0.570472,0.577792,-1.050000,-3.080000,-0.140000,20.36
2047033,0.605120,-0.571936,0.579256,-0.700000,-3.150000,0.070000,20.30
2047044,0.601704,-0.572424,0.578280,0.000000,-3.080000,0.140000,20.30
2047055,0.601704,-0.569008,0.576328,0.630000,-3.220000,0.280000,20.34
2047066,0.602192,-0.579256,0.579256,1.610000,-3.290000,0.280000,20.34
2047077,0.598776,-0.572912,0.578280,1.190000,-3.290000,0.700000,20.34
2047087,0.599264,-0.572912,0.570472,0.560000,-3.360000,0.560000,20.34
2047098,0.600240,-0.588040,0.569008,0.560000,-3.080000,0.700000,20.36
2047109,0.601216,-0.586576,0.574376,1.400000,-3.080000,0.630000,20.32
2047120,0.600240,-0.576328,0.575840,2.170000,-2.870000,0.490000,20.32
2047131,0.604144,-0.573888,0.578768,2.100000,-2.660000,0.210000,20.36
2047142,0.600240,-0.586088,0.573400,2.520000,-2.380000,0.210000,20.36
2047153,0.602192,-0.582184,0.574864,3.150000,-2.310000,0.140000,20.31
2047164,0.600240,-0.568032,0.577792,2.030000,-2.380000,0.350000,20.30
2047175,0.599752,-0.572424,0.576816,0.560000,-2.310000,0.280000,20.30
2047186,0.601216,-0.578280,0.576816,-0.070000,-2.170000,0.560000,20.34
2047197,0.599752,-0.583160,0.580232,0.420000,-2.030000,0.700000,20.34
2047208,0.603656,-0.587552,0.572912,1.330000,-2.100000,0.490000,20.33
2047220,0.599264,-0.580232,0.576816,2.030000,-2.100000,0.420000,20.31
2047230,0.599752,-0.575840,0.579744,1.610000,-2.240000,0.350000,20.31
2047241,0.600240,-0.579744,0.575840,1.470000,-2.590000,0.210000,20.35
2047252,0.598288,-0.582184,0.587064,1.820000,-2.730000,0.210000,20.35
2047263,0.602192,-0.585112,0.593408,2.240000,-2.800000,0.210000,20.30
2047274,0.598288,-0.581696,0.593896,2.240000,-2.870000,0.070000,20.36
2047286,0.596824,-0.576816,0.592432,1.680000,-3.220000,0.070000,20.36
2047297,0.595848,-0.584136,0.587064,0.630000,-3.360000,-0.140000,20.32
2047308,0.599752,-0.589016,0.578280,0.490000,-3.360000,-0.280000,20.32
2047319,0.598288,-0.586088,0.573400,0.980000,-3.360000,-0.350000,20.32
2047331,0.597312,-0.588040,0.576816,0.910000,-3.500000,-0.280000,20.32
2047342,0.599264,-0.583160,0.578768,1.120000,-3.360000,-0.420000,20.32
2047353,0.600240,-0.576816,0.573400,0.560000,-3.360000,-0.350000,20.32
2047364,0.600728,-0.583648,0.570472,0.210000,-3.150000,-0.630000,20.32
2047376,0.603168,-0.582672,0.574376,0.490000,-2.870000,-0.980000,20.32
2047387,0.607072,-0.579256,0.580232,0.910000,-2.520000,-1.260000,20.33
2047399,0.603656,-0.582184,0.582184,1.540000,-2.240000,-1.330000,20.33
2047411,0.601216,-0.576816,0.577304,1.890000,-2.030000,-1.190000,20.34
2047422,0.597312,-0.571936,0.569008,1.470000,-2.170000,-1.050000,20.34
2047433,0.599752,-0.578768,0.567056,1.890000,-2.240000,-0.980000,20.36
2047444,0.600728,-0.573400,0.568032,2.240000,-2.450000,-0.630000,20.30
2047455,0.606584,-0.573888,0.572912,2.240000,-2.240000,-0.560000,20.30
2047467,0.604632,-0.575840,0.576328,2.100000,-1.960000,-0.700000,20.32
2047478,0.607072,-0.583160,0.570960,3.150000,-1.820000,-0.700000,20.32
2047489,0.605120,-0.562664,0.574864,2.940000,-1.890000,-0.840000,20.32
2047500,0.601216,-0.568032,0.579256,2.730000,-1.820000,-0.560000,20.33
2047512,0.600240,-0.573888,0.584624,2.590000,-2.030000,-0.350000,20.33
2047524,0.600728,-0.563152,0.584136,2.800000,-2.100000,-0.140000,20.30
2047535,0.598288,-0.566080,0.578280,2.240000,-2.170000,-0.140000,20.30
2047547,0.601704,-0.578280,0.582184,2.730000,-2.030000,-0.140000,20.37
2047558,0.598776,-0.563152,0.590968,2.240000,-2.100000,-0.210000,20.32
2047570,0.599264,-0.577304,0.581208,1.610000,-1.820000,-0.070000,20.32
2047581,0.602192,-0.580232,0.577304,1.680000,-1.820000,0.000000,20.39
2047592,0.598776,-0.569008,0.579744,1.820000,-1.680000,0.140000,20.32
2047603,0.602192,-0.571448,0.581208,1.820000,-1.750000,0.420000,20.32
2047614,0.601216,-0.570960,0.582672,1.960000,-1.750000,0.560000,20.27
2047625,0.602680,-0.573888,0.578768,1.610000,-1.680000,0.700000,20.27
2047636,0.604144,-0.567056,0.572424,1.680000,-1.400000,0.490000,20.32
2047647,0.597800,-0.566080,0.571448,1.330000,-1.680000,0.210000,20.32
2047658,0.611464,-0.575840,0.584136,1.120000,-1.260000,0.280000,20.34
2047669,0.603656,-0.569984,0.587552,0.700000,-1.260000,0.210000,20.36
2047680,0.598776,-0.576816,0.591456,0.210000,-1.470000,0.070000,20.36
2047691,0.597312,-0.576816,0.591944,0.280000,-1.470000,0.210000,20.32
2047702,0.594872,-0.583648,0.598288,0.210000,-1.610000,0.210000,20.32
2047713,0.594872,-0.578280,0.594384,0.770000,-1.820000,0.420000,20.30
2047724,0.596824,-0.580232,0.594384,0.560000,-2.240000,0.280000,20.31
2047735,0.599264,-0.584624,0.586088,0.980000,-2.310000,0.070000,20.31
2047746,0.597800,-0.578768,0.584136,1.260000,-2.520000,-0.280000,20.32
2047758,0.601216,-0.578280,0.578280,1.540000,-2.660000,-0.210000,20.32
2047769,0.598776,-0.581696,0.585600,1.960000,-2.520000,-0.280000,20.36
2047780,0.597312,-0.571936,0.588040,1.820000,-2.730000,-0.210000,20.38
2047791,0.599264,-0.574864,0.599264,1.330000,-3.080000,0.140000,20.38
2047802,0.597312,-0.582672,0.595360,2.450000,-2.800000,0.280000,20.28
2047813,0.598288,-0.606096,0.580232,4.270000,-2.170000,1.610000,20.28
2047824,0.606096,-0.602192,0.516304,7.700000,-0.490000,2.030000,20.34
2047835,0.595360,-0.584136,0.496296,9.380000,0.840000,1.750000,20.33
2047847,0.589504,-0.565592,0.559736,7.350000,0.560000,1.960000,20.33
2047857,0.605608,-0.619272,0.580232,10.570000,-0.840000,2.660000,20.36
2047868,0.606584,-0.547048,0.644160,10.500000,-1.820000,2.100000,20.36
2047879,0.589504,-0.559736,0.712480,9.100000,-3.010000,2.170000,20.37
2047890,0.593408,-0.528992,0.749080,8.190000,-4.550000,2.660000,20.37
2047901,0.596336,-0.545096,0.719312,8.120000,-4.760000,1.890000,20.32
2047912,0.608048,-0.569008,0.635864,10.570000,-3.360000,1.400000,20.32
2047923,0.567056,-0.569008,0.609024,13.860000,-4.270000,0.980000,20.32
2047934,0.603656,-0.595360,0.573888,17.850000,-2.030000,-0.700000,20.33
2047945,0.589016,-0.618296,0.573888,24.780001,-1.330000,-0.910000,20.33
2047956,0.608536,-0.635864,0.569008,35.630001,0.420000,-0.630000,20.33
2047967,0.591944,-0.667584,0.557296,44.450001,1.960000,0.140000,20.36
2047978,0.603168,-0.637816,0.551928,49.980000,4.690000,1.400000,20.36
2047989,0.572912,-0.590968,0.578768,48.509998,5.530000,1.820000,20.31
2048000,0.584624,-0.579744,0.607072,43.119999,5.250000,2.310000,20.31
2048012,0.592920,-0.557296,0.645136,35.070000,5.530000,5.110000,20.32
2048023,0.594872,-0.537288,0.499712,28.070000,5.810000,6.860000,20.32
2048034,0.576328,-0.529480,0.611464,24.850000,6.160000,8.960000,20.32
2048045,0.583160,-0.468480,0.589504,13.790000,6.160000,13.860000,20.32
2048056,0.569496,-0.398208,0.602680,-0.210000,4.060000,15.400000,20.32
2048067,0.605120,-0.461160,0.626104,-4.900000,3.220000,15.470000,20.36
2048078,0.616832,-0.488488,0.649040,-6.370000,3.220000,15.470000,20.35
2048089,0.611952,-0.528016,0.670024,-4.760000,2.030000,15.400000,20.35
2048100,0.608536,-0.569984,0.666120,-1.400000,3.360000,17.639999,20.32
2048111,0.565104,-0.568032,0.670512,2.800000,3.990000,19.389999,20.32
2048122,0.560712,-0.544120,0.669536,6.930000,3.570000,21.910000,20.35
2048132,0.567544,-0.507520,0.678320,9.590000,2.800000,24.360001,20.35
2048143,0.579744,-0.500688,0.669536,11.620000,2.450000,24.920000,20.34
2048154,0.612928,-0.503128,0.661240,12.670000,3.360000,25.900000,20.33
2048165,0.605120,-0.542168,0.629520,16.100000,10.570000,25.620001,20.33
2048175,0.566080,-0.499224,0.661240,13.580000,15.680000,24.709999,20.34
2048186,0.511424,-0.514840,0.704184,8.680000,14.980000,24.150000,20.34
2048197,0.521184,-0.599264,0.682224,17.219999,10.150000,23.240000,20.39
2048208,0.588040,-0.586088,0.632936,26.040001,13.230000,22.820000,20.31
2048219,0.573400,-0.554856,0.595360,21.770000,19.809999,23.730000,20.31
2048229,0.536312,-0.569984,0.583648,19.110001,22.120001,24.150000,20.32
2048240,0.488488,-0.581696,0.619272,23.590000,17.709999,22.469999,20.32
2048251,0.488488,-0.564128,0.657824,28.490000,11.760000,19.530001,20.32
2048263,0.510936,-0.584136,0.706136,32.970001,7.980000,16.170000,20.32
2048273,0.522648,-0.557784,0.721264,38.430000,8.540000,16.520000,20.30
2048284,0.536312,-0.530456,0.691984,41.160000,11.480000,14.070000,20.34
2048295,0.543632,-0.523136,0.633424,38.290001,19.670000,13.020000,20.34
2048306,0.502640,-0.508008,0.617320,29.680000,23.870001,14.280000,20.31
2048317,0.476288,-0.483120,0.620248,21.280001,20.860001,13.930000,20.31
2048328,0.481168,-0.495320,0.643672,16.799999,16.240000,10.920000,20.36
2048339,0.459696,-0.513376,0.675392,14.420000,12.880000,7.280000,20.30
2048349,0.486536,-0.547048,0.687592,13.510000,9.590000,5.250000,20.30
2048360,0.498248,-0.552904,0.687104,11.830000,9.660000,6.930000,20.33
2048371,0.484096,-0.514352,0.703208,6.160000,10.780000,9.310000,20.33
2048382,0.471408,-0.508008,0.724680,1.890000,10.150000,8.680000,20.34
2048393,0.449448,-0.527528,0.743224,1.050000,9.100000,6.230000,20.34
2048404,0.452864,-0.545096,0.752984,1.470000,7.280000,3.920000,20.36
2048415,0.446520,-0.542168,0.769088,2.450000,4.410000,2.310000,20.30
2048425,0.450424,-0.526064,0.777384,1.820000,2.170000,1.400000,20.30
2048436,0.455792,-0.523136,0.783240,0.280000,0.350000,0.910000,20.32
2048447,0.460672,-0.545584,0.792024,-0.490000,-1.260000,0.420000,20.32
2048458,0.451888,-0.554368,0.797392,0.980000,-2.240000,0.700000,20.33
2048469,0.461648,-0.559248,0.797392,2.800000,-3.220000,0.000000,20.36
2048480,0.453352,-0.565104,0.793488,5.180000,-3.640000,0.140000,20.36
2048492,0.451400,-0.548512,0.774456,5.740000,-4.200000,0.560000,20.37
2048503,0.452376,-0.535824,0.749080,4.970000,-4.200000,0.420000,20.37
2048514,0.448472,-0.539240,0.718824,3.360000,-4.060000,0.070000,20.32
2048525,0.458232,-0.546072,0.708576,3.710000,-3.990000,-0.490000,20.32
2048536,0.471896,-0.537776,0.722240,2.660000,-4.060000,-1.330000,20.32
2048546,0.473848,-0.534848,0.734928,1.120000,-4.130000,-2.800000,20.34
2048557,0.474336,-0.552416,0.733952,0.840000,-4.200000,-4.060000,20.34
2048568,0.471896,-0.551440,0.741272,1.330000,-4.200000,-4.550000,20.32
2048579,0.470920,-0.539728,0.748104,1.260000,-4.900000,-4.270000,20.32
2048591,0.472384,-0.530944,0.741760,-0.140000,-5.110000,-3.780000,20.34
2048602,0.472872,-0.531920,0.726632,-1.330000,-5.110000,-3.360000,20.25
2048613,0.475312,-0.538752,0.718336,-1.610000,-4.970000,-3.080000,20.25
2048624,0.474824,-0.552416,0.705648,-0.700000,-4.830000,-2.730000,20.32
2048635,0.477752,-0.551928,0.698816,1.610000,-4.200000,-2.660000,20.32
2048646,0.475312,-0.539240,0.683200,3.990000,-3.080000,-2.730000,20.30
2048657,0.482144,-0.509472,0.680760,4.060000,-2.520000,-3.220000,20.30
2048668,0.481168,-0.493368,0.699792,2.730000,-2.170000,-4.620000,20.30
2048679,0.487024,-0.495320,0.723216,-0.490000,-2.450000,-5.950000,20.33
2048690,0.486048,-0.519232,0.736880,-1.190000,-2.590000,-6.860000,20.33
2048701,0.477752,-0.527528,0.724680,-0.280000,-2.310000,-7.770000,20.31
2048712,0.465064,-0.498248,0.712968,4.760000,-2.170000,-9.590000,20.35
2048723,0.458720,-0.464576,0.700280,2.030000,-2.940000,-12.110000,20.35
2048734,0.458720,-0.495320,0.647576,0.910000,-3.010000,-15.890000,20.35
2048745,0.461160,-0.468968,0.612928,-2.100000,-2.870000,-20.930000,20.35
2048756,0.473848,-0.468968,0.618296,-10.780000,-4.340000,-28.000000,20.31
2048767,0.488976,-0.514352,0.642208,-18.690001,-9.590000,-29.959999,20.31
2048778,0.541680,-0.519232,0.691984,-26.250000,-11.480000,-28.559999,20.31
2048790,0.543632,-0.502152,0.758840,-33.459999,-15.190000,-25.059999,20.33
2048801,0.537776,-0.488000,0.810568,-43.750000,-16.170000,-19.809999,20.33
2048812,0.521184,-0.474824,0.794952,-54.250000,-15.890000,-17.920000,20.32
2048823,0.495808,-0.484096,0.742736,-58.660000,-16.520000,-18.059999,20.32
2048834,0.499224,-0.520208,0.666608,-62.230000,-18.340000,-19.389999,20.31
2048845,0.527040,-0.573888,0.597800,-63.910000,-18.340000,-19.670000,20.27
2048856,0.508984,-0.583160,0.668072,-64.330002,-21.280001,-20.160000,20.27
2048867,0.518256,-0.655384,0.703696,-53.410000,-25.480000,-22.469999,20.32
2048879,0.552416,-0.618296,0.750056,-45.849998,-26.110001,-21.209999,20.32
2048890,0.532408,-0.564616,0.786168,-43.540001,-25.690001,-21.910000,20.37
2048901,0.506544,-0.597800,0.771040,-39.340000,-28.629999,-23.660000,20.32
2048912,0.541192,-0.726632,0.750056,-29.120001,-30.240000,-24.010000,20.32
2048923,0.548024,-0.653432,0.731024,-24.290001,-26.320000,-17.920000,20.34
2048935,0.524112,-0.477264,0.741760,-31.780001,-27.299999,-17.850000,20.34
2048946,0.522160,-0.538752,0.725656,-46.480000,-30.379999,-19.389999,20.33
2048957,0.560712,-0.665144,0.692960,-43.049999,-29.820000,-15.050000,20.33
2048968,0.570472,-0.641232,0.666120,-30.940001,-25.690001,-12.460000,20.33
2048979,0.575352,-0.549488,0.622688,-27.650000,-24.080000,-13.300000,20.32
2048990,0.583648,-0.612440,0.578280,-23.100000,-22.820000,-14.210000,20.32
2049001,0.621712,-0.679784,0.543144,-10.430000,-18.340000,-13.510000,20.30
2049013,0.619272,-0.652944,0.478728,0.210000,-13.370000,-11.830000,20.36
2049024,0.606584,-0.570472,0.490928,2.310000,-11.550000,-12.530000,20.36
2049038,0.612440,-0.597800,0.491904,5.950000,-8.750000,-10.640000,20.32
2049049,0.600240,-0.558760,0.468968,3.080000,-6.580000,-10.150000,20.36
2049060,0.599264,-0.522648,0.447984,-1.260000,-5.530000,-11.200000,20.36
2049072,0.597312,-0.579256,0.454328,-5.950000,-3.990000,-11.480000,20.31
2049083,0.613416,-0.599752,0.499224,-5.110000,-2.450000,-10.710000,20.31
2049094,0.595848,-0.573888,0.558272,-5.950000,0.280000,-8.890000,20.33
2049105,0.632448,-0.588528,0.575840,-3.640000,1.610000,-5.740000,20.30
2049116,0.602192,-0.579256,0.556808,-4.480000,4.200000,-4.060000,20.30
2049127,0.603656,-0.546072,0.528016,-6.860000,4.480000,-4.060000,20.32
2049138,0.604144,-0.582184,0.522648,-4.480000,5.530000,-3.990000,20.32
2049149,0.600240,-0.585600,0.541192,-1.120000,6.090000,-3.990000,20.31
2049160,0.603168,-0.557296,0.571448,2.800000,6.020000,-3.500000,20.30
2049171,0.595360,-0.519720,0.595360,3.150000,5.040000,-3.430000,20.30
2049182,0.596336,-0.543632,0.599264,2.100000,4.130000,-2.940000,20.37
2049193,0.600728,-0.573400,0.610976,3.920000,3.780000,-2.170000,20.37
2049204,0.598288,-0.555832,0.630008,5.250000,3.220000,-1.120000,20.34
2049215,0.591944,-0.535824,0.642696,3.290000,2.170000,-0.490000,20.34
2049226,0.595848,-0.551928,0.657336,2.030000,1.400000,0.210000,20.33
2049237,0.593896,-0.560712,0.656848,1.680000,0.350000,0.910000,20.31
2049247,0.591456,-0.563152,0.645624,1.540000,-0.490000,1.540000,20.31
2049258,0.592920,-0.573400,0.628056,1.750000,-0.910000,1.960000,20.37
2049269,0.598288,-0.560224,0.602192,1.050000,-1.400000,2.170000,20.37
2049280,0.591944,-0.568520,0.587064,-0.280000,-2.590000,1.610000,20.39
2049291,0.595848,-0.602680,0.587552,-0.420000,-2.590000,1.540000,20.34
2049302,0.592432,-0.594384,0.601216,-0.350000,-2.520000,1.680000,20.34
2049313,0.586576,-0.565104,0.611464,-3.290000,-3.010000,1.260000,20.37
2049324,0.602680,-0.574864,0.588528,-5.530000,-3.360000,0.700000,20.37
2049335,0.584136,-0.622200,0.589992,-5.180000,-3.710000,0.210000,20.37
2049346,0.596824,-0.650016,0.602680,2.030000,-3.290000,0.140000,20.32
2049357,0.589016,-0.604632,0.604144,4.410000,-2.870000,0.070000,20.32
2049368,0.588040,-0.567056,0.589016,2.940000,-2.940000,-0.980000,20.34
2049379,0.595360,-0.575840,0.553880,0.000000,-2.940000,-1.540000,20.34
2049390,0.588528,-0.600728,0.563640,0.350000,-3.220000,-2.170000,20.33
2049401,0.591456,-0.604632,0.584624,2.380000,-3.010000,-1.960000,20.33
2049412,0.596824,-0.587552,0.578768,4.200000,-2.800000,-1.890000,20.32
2049423,0.593896,-0.574864,0.556320,2.450000,-2.730000,-2.030000,20.34
2049434,0.598288,-0.589992,0.557784,1.680000,-2.450000,-2.170000,20.34
2049445,0.596824,-0.583160,0.581208,2.380000,-2.380000,-1.960000,20.29
2049456,0.601216,-0.568032,0.595848,2.310000,-2.030000,-1.540000,20.29
2049467,0.595848,-0.550952,0.598776,0.770000,-2.310000,-1.260000,20.31
2049478,0.594384,-0.575352,0.593896,0.070000,-2.240000,-0.910000,20.34
2049489,0.596336,-0.569008,0.589992,1.190000,-1.960000,-0.560000,20.34
2049500,0.589992,-0.543632,0.579256,-0.420000,-2.100000,-1.120000,20.34
2049511,0.602680,-0.584136,0.581696,0.000000,-1.890000,-1.260000,20.34
2049522,0.595360,-0.573888,0.593408,1.260000,-2.030000,-0.840000,20.35
2049533,0.599264,-0.558760,0.601216,0.700000,-2.170000,-0.910000,20.34
2049544,0.596336,-0.564616,0.596336,-1.400000,-2.380000,-0.840000,20.34
2049555,0.597312,-0.579744,0.587064,-1.750000,-2.240000,-0.700000,20.33
2049566,0.595848,-0.587064,0.586088,-0.700000,-2.170000,-0.560000,20.33
2049578,0.595848,-0.576328,0.589992,0.490000,-2.100000,-0.560000,20.31
2049589,0.595848,-0.566568,0.582672,-0.350000,-1.890000,-0.840000,20.32
2049600,0.598776,-0.572912,0.574376,-0.840000,-1.610000,-0.980000,20.32
2049611,0.595848,-0.576328,0.572912,-0.560000,-1.750000,-1.120000,20.37
2049622,0.599752,-0.577792,0.575840,-0.280000,-1.540000,-1.120000,20.37
2049633,0.595848,-0.576328,0.581696,-0.630000,-1.400000,-0.980000,20.33
2049644,0.594384,-0.580720,0.585600,-0.420000,-1.400000,-0.770000,20.33
2049655,0.598288,-0.570472,0.582672,-0.140000,-1.260000,-0.630000,20.34
2049667,0.594872,-0.578768,0.583160,0.000000,-1.400000,-0.560000,20.34
2049677,0.594384,-0.584624,0.586088,0.770000,-1.190000,-0.490000,20.34
2049688,0.594872,-0.569496,0.587064,0.910000,-1.120000,-0.560000,20.36
2049699,0.599264,-0.560712,0.584624,0.210000,-1.260000,-0.700000,20.36
2049710,0.593408,-0.578280,0.589504,0.490000,-1.260000,-0.700000,20.36
2049721,0.597312,-0.586576,0.594872,1.960000,-0.980000,-0.560000,20.31
2049732,0.592432,-0.566080,0.596824,2.380000,-1.190000,-0.490000,20.31
2049743,0.597800,-0.549000,0.588040,0.770000,-1.470000,-0.840000,20.34
2049754,0.596824,-0.572424,0.588040,0.000000,-1.820000,-0.700000,20.34
2049765,0.600240,-0.590968,0.597312,1.470000,-1.540000,-0.630000,20.34
2049776,0.597800,-0.571448,0.597800,2.520000,-1.330000,-0.420000,20.36
2049787,0.593896,-0.547048,0.592432,0.840000,-1.540000,-0.490000,20.36
2049798,0.594872,-0.561200,0.582672,-1.050000,-1.890000,-0.840000,20.31
2049809,0.591456,-0.598776,0.574376,-0.420000,-2.100000,-1.120000,20.31
2049821,0.598776,-0.584136,0.588040,1.470000,-1.540000,-0.910000,20.32
2049832,0.589992,-0.572424,0.595848,1.330000,-1.750000,-0.980000,20.32
2049843,0.595360,-0.571448,0.594384,-0.140000,-1.750000,-0.700000,20.32
2049854,0.589992,-0.577304,0.591456,-0.770000,-1.610000,-0.490000,20.35
2049865,0.592920,-0.575352,0.590480,-1.260000,-1.680000,-0.700000,20.35
2049876,0.595848,-0.581696,0.586576,-1.050000,-1.820000,-1.050000,20.36
2049889,0.596824,-0.588040,0.580232,0.350000,-1.400000,-1.190000,20.34
2049901,0.596824,-0.577304,0.577304,0.630000,-1.540000,-1.610000,20.34
2049912,0.597800,-0.581208,0.587064,0.490000,-1.330000,-1.540000,20.37
2049924,0.599264,-0.577792,0.579256,0.770000,-0.840000,-1.330000,20.37
2049935,0.595360,-0.566568,0.574376,-0.210000,-1.050000,-1.400000,20.30
2049946,0.598288,-0.570472,0.579256,-1.050000,-0.980000,-1.610000,20.36
2049957,0.594384,-0.570472,0.582184,-1.610000,-0.980000,-1.750000,20.36
2049968,0.597312,-0.587552,0.585600,-1.190000,-0.840000,-1.820000,20.33
2049979,0.598776,-0.584136,0.585600,0.000000,-0.770000,-1.330000,20.33
2049990,0.596824,-0.575840,0.577792,0.560000,-0.280000,-1.120000,20.35
2050002,0.594384,-0.577792,0.579256,0.980000,-0.140000,-0.770000,20.33
2050013,0.592920,-0.573888,0.587064,1.750000,0.000000,-0.630000,20.33
2050024,0.591944,-0.557784,0.588040,1.610000,-0.210000,-0.420000,20.33
2050038,0.591944,-0.569496,0.588528,1.120000,-0.280000,-0.280000,20.34
2050052,0.592920,-0.574864,0.587552,2.380000,-0.350000,0.000000,20.34
2050063,0.594872,-0.562176,0.587064,2.870000,-0.420000,0.210000,20.37
2050074,0.592920,-0.557784,0.584624,2.520000,-0.490000,0.140000,20.29
2050085,0.591456,-0.572424,0.584624,1.680000,-0.420000,0.350000,20.29
2050096,0.594384,-0.568032,0.589504,1.260000,-0.210000,0.560000,20.31
2050107,0.597800,-0.563640,0.591944,0.560000,-0.350000,0.770000,20.31
2050118,0.595848,-0.567056,0.593408,0.210000,-0.140000,0.770000,20.33
2050130,0.593408,-0.574376,0.604144,0.840000,-0.070000,0.700000,20.34
2050141,0.590968,-0.575840,0.600240,1.190000,0.000000,0.840000,20.34
2050152,0.589504,-0.573888,0.603656,1.610000,0.000000,0.770000,20.34
2050163,0.590480,-0.570472,0.603168,1.260000,-0.280000,0.700000,20.34
2050174,0.590968,-0.581696,0.601704,1.610000,-0.490000,0.420000,20.32
2050185,0.591456,-0.584136,0.600728,2.310000,-0.560000,0.350000,20.32
2050196,0.589016,-0.581208,0.606096,2.730000,-0.840000,0.070000,20.32
2050207,0.584624,-0.575352,0.610000,2.170000,-1.330000,0.070000,20.31
2050218,0.586088,-0.585600,0.614880,1.750000,-1.610000,0.000000,20.31
2050229,0.584624,-0.589016,0.613904,1.750000,-1.820000,0.000000,20.36
2050241,0.586088,-0.577304,0.606584,1.890000,-2.170000,-0.210000,20.36
2050254,0.587064,-0.568520,0.595848,1.260000,-3.010000,-0.630000,20.34
2050265,0.586576,-0.597800,0.598288,2.380000,-3.360000,-0.910000,20.33
2050276,0.586576,-0.591456,0.599264,3.220000,-3.290000,-0.770000,20.33
2050287,0.587064,-0.576816,0.599264,2.240000,-3.220000,-0.840000,20.38
2050299,0.588528,-0.570472,0.588040,0.350000,-3.150000,-1.260000,20.35
2050310,0.589992,-0.582672,0.585112,-0.630000,-3.080000,-1.610000,20.35
2050321,0.589504,-0.589504,0.590480,0.280000,-2.590000,-1.470000,20.37
2050334,0.590968,-0.580232,0.599752,1.400000,-1.960000,-1.750000,20.37
2050346,0.589504,-0.563640,0.591456,1.330000,-1.610000,-2.240000,20.34
2050357,0.593408,-0.570472,0.583648,0.630000,-1.540000,-2.310000,20.36
2050368,0.593896,-0.577304,0.591944,0.630000,-1.400000,-2.450000,20.36
2050379,0.591944,-0.563640,0.601704,0.700000,-1.540000,-2.310000,20.33
2050391,0.592920,-0.559736,0.607072,0.140000,-1.750000,-2.310000,20.33
2050402,0.589504,-0.558760,0.605120,-0.490000,-2.310000,-2.030000,20.29
2050413,0.587552,-0.573400,0.599752,0.140000,-2.660000,-1.820000,20.30
2050424,0.589992,-0.566080,0.605608,1.050000,-2.800000,-1.470000,20.30
2050435,0.590480,-0.551928,0.605120,0.910000,-3.220000,-1.260000,20.33
2050447,0.589016,-0.549000,0.597312,-0.140000,-3.500000,-1.120000,20.33
2050458,0.592432,-0.569008,0.595848,0.420000,-3.640000,-0.910000,20.33
2050469,0.593408,-0.563640,0.586576,0.700000,-3.570000,-0.560000,20.32
2050480,0.593896,-0.558760,0.583160,-0.070000,-3.710000,-0.350000,20.32
2050491,0.597800,-0.553880,0.582184,-0.700000,-3.290000,-0.210000,20.35
2050502,0.595848,-0.560712,0.577304,-1.330000,-3.150000,-0.350000,20.35
2050514,0.596824,-0.571936,0.583160,-1.400000,-2.590000,-0.210000,20.39
2050525,0.596336,-0.574376,0.586576,-1.050000,-2.030000,0.000000,20.31
2050536,0.593408,-0.569008,0.587552,-0.980000,-1.820000,0.140000,20.31
2050547,0.591456,-0.574864,0.591456,-1.260000,-1.680000,0.070000,20.37
2050558,0.589504,-0.577304,0.595848,-0.980000,-1.330000,0.210000,20.37
2050569,0.590480,-0.562664,0.595848,-0.770000,-1.260000,-0.070000,20.32
2050581,0.589016,-0.565104,0.597800,-1.190000,-1.470000,-0.700000,20.36
2050592,0.589992,-0.572424,0.602192,-0.770000,-1.610000,-0.770000,20.36
2050603,0.587064,-0.594872,0.601704,0.560000,-1.820000,-0.700000,20.34
2050614,0.588040,-0.596336,0.605120,1.890000,-1.750000,-0.350000,20.34
2050625,0.587064,-0.579256,0.600728,2.100000,-1.960000,-0.280000,20.37
2050636,0.589016,-0.564128,0.586576,0.560000,-2.100000,-0.630000,20.33
2050647,0.589016,-0.594384,0.580720,0.140000,-2.380000,-0.910000,20.33
2050659,0.591456,-0.598288,0.587064,1.120000,-2.100000,-0.910000,20.38
2050670,0.589016,-0.579256,0.595360,0.560000,-1.960000,-0.840000,20.38
2050682,0.592432,-0.566080,0.588040,-1.400000,-2.100000,-1.330000,20.38
2050694,0.595360,-0.593408,0.583160,-1.120000,-1.820000,-1.680000,20.34
2050705,0.593408,-0.594872,0.592920,0.420000,-1.680000,-1.470000,20.34
2050716,0.592920,-0.572424,0.601704,1.050000,-1.820000,-1.400000,20.32
2050727,0.590968,-0.560224,0.597800,-0.280000,-1.890000,-1.400000,20.32
2050739,0.591456,-0.572912,0.596336,-1.190000,-1.750000,-1.400000,20.32
2050751,0.589992,-0.559248,0.600240,-0.630000,-1.540000,-1.470000,20.37
2050762,0.589504,-0.562664,0.601704,-0.700000,-1.750000,-1.820000,20.37
2050773,0.590480,-0.572912,0.603168,0.420000,-1.820000,-1.540000,20.36
2050784,0.588528,-0.575352,0.601216,1.540000,-1.960000,-1.400000,20.34
2050796,0.592432,-0.569008,0.589016,2.520000,-2.170000,-1.260000,20.34
2050806,0.594872,-0.570960,0.586576,2.520000,-2.030000,-1.050000,20.36
2050817,0.590968,-0.565592,0.595360,1.890000,-2.310000,-0.770000,20.36
2050829,0.589992,-0.552904,0.599264,0.140000,-2.590000,-0.420000,20.32
2050840,0.592432,-0.566568,0.593408,-1.260000,-2.660000,-0.630000,20.34
2050851,0.591944,-0.586088,0.594384,-0.560000,-2.870000,-0.560000,20.34
2050863,0.596824,-0.579744,0.601216,0.770000,-2.730000,-0.490000,20.33
2050873,0.593408,-0.567544,0.604632,0.560000,-2.800000,-0.490000,20.33
2050885,0.594872,-0.577304,0.592920,0.070000,-2.800000,-0.350000,20.34
2050895,0.595360,-0.576816,0.587552,0.210000,-2.800000,-0.420000,20.32
2050906,0.589504,-0.565104,0.589992,-0.210000,-2.800000,-0.630000,20.32
2050917,0.593408,-0.574376,0.593408,-0.700000,-2.660000,-0.700000,20.35
2050928,0.593896,-0.573888,0.589992,-0.350000,-2.590000,-0.630000,20.35
2050940,0.595360,-0.568520,0.584136,-0.630000,-2.380000,-0.490000,20.34
2050951,0.594872,-0.572912,0.587064,-0.280000,-2.100000,-0.630000,20.32
2050962,0.589504,-0.566080,0.588040,-0.630000,-2.100000,-0.560000,20.32
2050973,0.593408,-0.573400,0.589992,-0.560000,-1.890000,-0.490000,20.32
2050984,0.593896,-0.566080,0.585112,-0.210000,-1.540000,-0.420000,20.32
2050995,0.589992,-0.571936,0.587552,-0.070000,-1.890000,-0.350000,20.35
2051006,0.591944,-0.576328,0.594872,0.700000,-1.890000,-0.490000,20.35
2051018,0.594872,-0.566080,0.592920,0.630000,-1.680000,-0.280000,20.36
2051029,0.595360,-0.575352,0.582184,-0.070000,-1.750000,-0.210000,20.38
2051040,0.593408,-0.582184,0.578768,0.490000,-1.680000,-0.350000,20.38
2051051,0.593896,-0.580232,0.580232,1.050000,-1.400000,-0.140000,20.34
2051067,0.593408,-0.578768,0.582184,0.770000,-1.400000,0.000000,20.35
2051079,0.592920,-0.578768,0.587064,1.050000,-1.050000,0.210000,20.35
2051089,0.589992,-0.570960,0.586576,0.630000,-1.050000,0.280000,20.36
2051100,0.589016,-0.575840,0.588528,0.490000,-0.490000,0.280000,20.32
2051111,0.592920,-0.578768,0.590968,1.190000,-0.280000,0.210000,20.32
2051122,0.591456,-0.577792,0.590968,1.680000,-0.140000,0.070000,20.39
2051133,0.594384,-0.577304,0.592432,2.520000,0.000000,0.000000,20.39
2051144,0.590480,-0.565104,0.599752,1.960000,-0.140000,-0.140000,20.35
2051155,0.589992,-0.565592,0.598288,1.050000,-0.280000,-0.070000,20.35
2051166,0.592920,-0.566568,0.599752,0.700000,-0.420000,-0.070000,20.35
2051177,0.590968,-0.570472,0.597800,1.400000,-0.490000,-0.140000,20.37
2051188,0.591456,-0.571936,0.598288,2.380000,-0.490000,-0.210000,20.37
2051199,0.586576,-0.561200,0.593896,2.240000,-0.490000,-0.420000,20.33
2051210,0.589992,-0.567056,0.595848,1.400000,-0.840000,-0.350000,20.33
2051221,0.585600,-0.569496,0.607560,0.700000,-1.190000,-0.210000,20.34
2051232,0.588528,-0.569496,0.613904,0.350000,-1.260000,0.070000,20.34
2051242,0.584624,-0.573888,0.609024,0.910000,-1.470000,0.000000,20.34
2051253,0.585112,-0.583160,0.604632,1.960000,-1.820000,0.000000,20.34
2051264,0.585112,-0.581696,0.608048,2.870000,-2.030000,0.280000,20.34
2051275,0.586576,-0.574376,0.611464,2.100000,-2.450000,0.630000,20.37
2051286,0.583648,-0.568520,0.602192,0.840000,-2.940000,0.840000,20.37
2051297,0.581208,-0.575352,0.597312,-0.700000,-3.500000,0.840000,20.39
2051308,0.586576,-0.592920,0.594872,0.070000,-3.710000,0.770000,20.34
2051319,0.587064,-0.580720,0.598288,0.980000,-3.780000,0.630000,20.34
2051330,0.586576,-0.574864,0.598776,0.490000,-3.990000,0.140000,20.37
2051341,0.590480,-0.590480,0.591456,0.770000,-3.640000,-0.140000,20.37
2051352,0.589504,-0.589016,0.599264,1.330000,-3.430000,-0.420000,20.34
2051363,0.584624,-0.574376,0.605608,1.120000,-3.010000,-0.490000,20.33
2051374,0.584624,-0.572424,0.599752,-0.140000,-2.800000,-0.910000,20.33
2051385,0.589504,-0.576328,0.596824,-0.350000,-2.590000,-1.120000,20.36
2051396,0.588040,-0.579256,0.600240,0.560000,-2.380000,-1.260000,20.36
2051408,0.589992,-0.571936,0.604144,1.050000,-2.170000,-1.330000,20.36
2051419,0.586576,-0.569008,0.603656,1.120000,-2.310000,-1.330000,20.34
2051430,0.586088,-0.573400,0.609512,1.120000,-2.590000,-1.120000,20.34
2051441,0.586576,-0.573888,0.608048,1.540000,-2.800000,-0.980000,20.37
2051452,0.589016,-0.558760,0.589504,1.470000,-3.150000,-0.840000,20.37
2051463,0.589504,-0.573400,0.588528,0.840000,-3.780000,-0.770000,20.38
2051474,0.595360,-0.584136,0.600728,1.470000,-3.850000,-0.490000,20.33
2051485,0.590480,-0.568520,0.601704,1.470000,-3.920000,-0.280000,20.33
2051496,0.590480,-0.569008,0.589504,0.910000,-3.710000,-0.070000,20.36
2051507,0.588528,-0.577792,0.580232,0.630000,-3.500000,-0.280000,20.36
2051518,0.589992,-0.570472,0.584624,0.490000,-3.220000,-0.280000,20.32
2051529,0.591456,-0.571936,0.583648,0.000000,-2.940000,-0.420000,20.32
2051540,0.594384,-0.579256,0.578768,0.140000,-2.450000,-0.210000,20.34
2051551,0.593896,-0.572424,0.579744,0.630000,-2.310000,-0.280000,20.36
2051562,0.590968,-0.569008,0.579744,0.700000,-1.960000,-0.280000,20.36
2051573,0.590968,-0.570472,0.584136,0.560000,-1.680000,-0.210000,20.33
2051584,0.592920,-0.567056,0.590968,0.280000,-1.540000,0.210000,20.33
2051595,0.589992,-0.565592,0.595360,0.000000,-1.400000,0.210000,20.34
2051606,0.593408,-0.568032,0.592920,0.350000,-1.190000,0.350000,20.41
2051617,0.590480,-0.573888,0.590480,1.610000,-1.190000,0.350000,20.41
2051628,0.588528,-0.568032,0.590480,2.240000,-1.050000,0.560000,20.35
2051638,0.589016,-0.563640,0.589016,1.960000,-1.120000,0.560000,20.35
2051650,0.589504,-0.567056,0.593896,1.470000,-1.400000,0.700000,20.38
2051661,0.588040,-0.567056,0.601216,1.260000,-1.470000,0.840000,20.37
2051672,0.586088,-0.562664,0.604632,0.560000,-1.330000,0.910000,20.37
2051683,0.587552,-0.565104,0.604144,0.070000,-1.400000,0.840000,20.35
2051693,0.587552,-0.578280,0.598776,0.700000,-1.260000,1.120000,20.35
2051704,0.587552,-0.578280,0.601216,1.960000,-1.400000,1.050000,20.32
2051715,0.587064,-0.567544,0.607072,2.170000,-1.470000,1.050000,20.32
2051726,0.583160,-0.580232,0.604144,1.680000,-1.680000,1.050000,20.36
2051738,0.584624,-0.579744,0.603656,1.260000,-1.750000,0.980000,20.34
2051749,0.581696,-0.580720,0.604144,0.700000,-2.240000,0.770000,20.34
2051760,0.587064,-0.591456,0.599752,0.770000,-2.520000,0.700000,20.36
2051770,0.583648,-0.590480,0.603168,1.400000,-2.800000,0.490000,20.36
2051781,0.587064,-0.591456,0.604144,1.400000,-2.940000,0.210000,20.36
2051792,0.587064,-0.588528,0.597312,1.610000,-3.150000,0.070000,20.33
2051803,0.584136,-0.584624,0.595848,1.190000,-3.220000,-0.070000,20.33
2051814,0.583648,-0.590480,0.596336,1.120000,-3.080000,-0.280000,20.36
2051825,0.583648,-0.577304,0.597800,0.980000,-2.870000,-0.420000,20.36
2051836,0.586576,-0.577304,0.586576,0.560000,-2.590000,-0.700000,20.36
2051847,0.587064,-0.583648,0.586088,1.050000,-2.380000,-0.910000,20.34
2051859,0.589016,-0.578768,0.607072,1.470000,-2.170000,-1.120000,20.34
2051870,0.585600,-0.568520,0.606584,0.980000,-1.890000,-1.260000,20.39
2051881,0.585112,-0.571936,0.605120,0.560000,-1.890000,-1.260000,20.39
2051892,0.584624,-0.575352,0.597800,1.190000,-1.890000,-1.260000,20.36
2051903,0.587064,-0.566568,0.603168,2.030000,-2.170000,-1.120000,20.35
2051914,0.585112,-0.570960,0.606096,2.100000,-2.590000,-1.120000,20.35
2051925,0.589504,-0.568520,0.606096,1.890000,-2.870000,-0.980000,20.34
2051936,0.583648,-0.567056,0.601216,0.910000,-2.940000,-0.910000,20.34
2051948,0.589992,-0.572424,0.595848,1.330000,-3.220000,-0.980000,20.37
2051959,0.589992,-0.570960,0.598776,1.820000,-3.080000,-1.050000,20.39
2051970,0.589504,-0.576816,0.597312,2.030000,-3.010000,-1.120000,20.39
2051981,0.589016,-0.569008,0.592920,2.100000,-2.800000,-0.910000,20.37
2051992,0.587064,-0.570960,0.589016,1.400000,-2.940000,-1.120000,20.37
2052003,0.588040,-0.576328,0.590968,0.840000,-2.800000,-0.980000,20.35
2052014,0.588040,-0.570472,0.599752,0.000000,-2.940000,-0.840000,20.35
2052025,0.589992,-0.580720,0.598776,0.000000,-2.870000,-0.910000,20.33
2052036,0.593408,-0.572912,0.594872,0.700000,-2.730000,-0.700000,20.35
2052047,0.588040,-0.574376,0.589504,0.910000,-2.870000,-1.190000,20.35
2052058,0.588040,-0.574864,0.587552,1.610000,-2.660000,-1.400000,20.36
2052069,0.584136,-0.570960,0.591456,1.610000,-2.800000,-1.680000,20.36
2052081,0.589992,-0.570960,0.594384,1.330000,-2.800000,-1.400000,20.31
2052097,0.589504,-0.562664,0.597312,1.120000,-2.240000,-1.330000,20.39
2052108,0.588040,-0.563152,0.594872,0.910000,-2.170000,-1.330000,20.34
2052119,0.590968,-0.574376,0.602192,1.260000,-1.680000,-1.120000,20.34
2052131,0.586576,-0.573400,0.609512,1.540000,-1.470000,-1.120000,20.36
2052143,0.588040,-0.574864,0.601216,2.100000,-1.330000,-0.910000,20.36
2052155,0.587064,-0.562664,0.600240,2.100000,-1.400000,-0.840000,20.40
2052168,0.591456,-0.562176,0.599264,1.750000,-1.680000,-0.560000,20.36
2052180,0.592432,-0.562176,0.600728,1.330000,-2.030000,-0.420000,20.36
2052193,0.590968,-0.562664,0.602680,0.980000,-2.240000,-0.210000,20.35
2052206,0.591944,-0.569496,0.607072,1.260000,-2.730000,-0.210000,20.34
2052217,0.590968,-0.571448,0.607560,1.190000,-2.940000,-0.140000,20.34
2052229,0.589504,-0.577792,0.603168,1.260000,-2.800000,0.210000,20.31
2052242,0.587552,-0.571936,0.597312,1.610000,-2.870000,0.280000,20.36
2052254,0.587064,-0.570960,0.590968,1.400000,-2.870000,0.210000,20.36
2052266,0.587064,-0.573888,0.595360,1.050000,-2.660000,0.140000,20.33
2052277,0.586088,-0.571936,0.589016,0.770000,-2.590000,-0.070000,20.33
2052288,0.587552,-0.581208,0.589016,1.190000,-2.660000,-0.280000,20.33
2052299,0.589992,-0.574864,0.597312,1.260000,-2.590000,-0.280000,20.36
2052310,0.590968,-0.574376,0.602680,1.120000,-2.520000,-0.350000,20.36
2052321,0.591944,-0.569496,0.589016,1.050000,-2.240000,-0.350000,20.36
2052332,0.586088,-0.571936,0.593896,0.980000,-2.240000,-0.560000,20.36
2052344,0.588528,-0.567056,0.603656,1.540000,-2.030000,-0.490000,20.36
2052355,0.586088,-0.559248,0.609512,0.910000,-2.170000,-0.770000,20.34
2052366,0.589992,-0.569496,0.611464,1.120000,-1.890000,-0.630000,20.34
2052377,0.588528,-0.571448,0.604632,1.820000,-1.890000,-0.630000,20.34
2052388,0.589016,-0.566568,0.601216,2.240000,-2.100000,-0.630000,20.38
2052399,0.593408,-0.572912,0.600728,3.290000,-2.100000,-0.630000,20.38
2052410,0.591944,-0.569984,0.607072,3.780000,-2.170000,-0.210000,20.34
2052421,0.589504,-0.562664,0.609024,3.150000,-2.310000,-0.140000,20.34
2052432,0.590968,-0.557296,0.602680,1.260000,-2.520000,-0.070000,20.36
2052443,0.589992,-0.565592,0.601216,0.280000,-2.660000,-0.140000,20.40
2052454,0.589504,-0.575840,0.603656,0.700000,-2.730000,-0.210000,20.40
2052466,0.589992,-0.570472,0.599752,2.100000,-2.660000,-0.210000,20.39
2052477,0.588040,-0.571448,0.597800,2.310000,-2.870000,-0.630000,20.39
2052489,0.589504,-0.573888,0.600728,2.660000,-2.800000,-0.490000,20.38
2052500,0.589016,-0.569984,0.595360,2.590000,-2.800000,-0.420000,20.36
2052511,0.586576,-0.568032,0.597312,2.590000,-2.940000,-0.350000,20.36
2052522,0.587064,-0.572424,0.596824,2.170000,-2.870000,-0.350000,20.31
2052533,0.587064,-0.573400,0.599752,1.820000,-2.940000,-0.280000,20.31
2052543,0.589504,-0.571448,0.599264,1.330000,-3.010000,-0.420000,20.34
2052554,0.589016,-0.575840,0.596336,1.400000,-2.660000,-0.350000,20.34
2052565,0.588528,-0.571448,0.595360,1.750000,-2.800000,-0.350000,20.36
2052576,0.589016,-0.569496,0.596336,2.380000,-2.590000,-0.280000,20.37
2052588,0.588528,-0.563640,0.596336,2.590000,-2.450000,-0.490000,20.37
2052599,0.590968,-0.562176,0.601216,2.100000,-2.520000,-0.560000,20.35
2052610,0.591944,-0.562176,0.603656,1.680000,-2.100000,-0.490000,20.35
2052621,0.588040,-0.558760,0.606584,1.190000,-2.240000,-0.700000,20.36
2052632,0.591944,-0.567056,0.608536,1.750000,-2.100000,-0.560000,20.34
2052643,0.589504,-0.564128,0.612440,2.450000,-2.100000,-0.350000,20.34
2052653,0.587064,-0.553392,0.611952,2.170000,-2.590000,-0.910000,20.34
2052665,0.594384,-0.564128,0.609024,2.450000,-2.100000,-0.490000,20.34
2052676,0.587064,-0.557784,0.612440,2.240000,-2.730000,-0.420000,20.34
2052688,0.595360,-0.561688,0.604632,2.380000,-2.520000,-0.280000,20.34
2052699,0.593408,-0.565104,0.597312,2.730000,-2.940000,-0.560000,20.34
2052710,0.593408,-0.568032,0.600728,3.150000,-2.870000,-0.140000,20.36
2052721,0.588040,-0.567056,0.607072,3.360000,-3.150000,-0.280000,20.36
2052732,0.592432,-0.570960,0.603656,3.500000,-2.730000,0.000000,20.35
2052743,0.586576,-0.554856,0.596336,2.380000,-2.870000,-0.210000,20.34
2052755,0.586576,-0.574864,0.595360,1.470000,-2.870000,-0.420000,20.34
2052766,0.586576,-0.573888,0.602192,1.470000,-2.730000,-0.350000,20.38
2052777,0.587552,-0.569008,0.603656,1.190000,-2.660000,-0.420000,20.38
2052788,0.589016,-0.571448,0.593408,1.050000,-2.590000,-0.560000,20.34
2052799,0.589504,-0.578768,0.596336,1.820000,-2.660000,-0.700000,20.38
2052810,0.590968,-0.572424,0.600728,2.310000,-2.660000,-0.630000,20.38
2052821,0.590480,-0.562176,0.600240,2.100000,-2.590000,-0.420000,20.36
2052832,0.587064,-0.559248,0.593896,1.680000,-2.590000,-0.560000,20.36
2052843,0.588040,-0.559248,0.593408,0.770000,-2.450000,-0.560000,20.40
2052854,0.589016,-0.560712,0.597800,0.280000,-2.380000,-0.700000,20.35
2052865,0.590968,-0.561688,0.603656,-0.140000,-1.820000,-0.420000,20.35
2052876,0.591944,-0.561688,0.609512,-0.070000,-1.680000,-0.280000,20.33
2052887,0.587552,-0.560712,0.613416,0.420000,-1.470000,-0.770000,20.33
2052898,0.592432,-0.561200,0.610976,1.120000,-1.190000,-0.700000,20.39
2052909,0.589016,-0.559736,0.611952,1.820000,-1.470000,-0.840000,20.39
2052920,0.590968,-0.556320,0.606584,2.590000,-1.540000,-0.700000,20.37
2052931,0.590480,-0.553392,0.608048,2.590000,-1.960000,-0.420000,20.36
2052942,0.589992,-0.553880,0.620248,1.610000,-2.730000,-0.210000,20.36
2052953,0.589016,-0.550464,0.622688,0.560000,-3.150000,0.210000,20.34
2052964,0.593408,-0.561688,0.616832,0.070000,-3.290000,0.350000,20.34
2052975,0.590480,-0.564616,0.612440,0.840000,-3.570000,0.490000,20.41
2052986,0.590968,-0.567544,0.606584,1.540000,-3.290000,0.420000,20.28
2052998,0.590480,-0.558760,0.605120,1.750000,-3.220000,0.280000,20.28
2053009,0.587552,-0.560224,0.591456,0.560000,-3.150000,0.070000,20.36
2053020,0.587552,-0.574376,0.599264,0.630000,-3.080000,0.070000,20.36
2053032,0.585600,-0.570472,0.610976,1.050000,-2.870000,0.140000,20.32
2053045,0.589504,-0.571936,0.602680,1.470000,-2.590000,0.140000,20.35
2053056,0.588040,-0.571936,0.600728,0.770000,-3.150000,-0.210000,20.35
2053067,0.590480,-0.584624,0.604632,0.980000,-2.940000,-0.350000,20.37
2053078,0.589016,-0.573888,0.606096,0.560000,-3.150000,-0.630000,20.34
2053089,0.594384,-0.576328,0.604632,0.070000,-3.290000,-0.700000,20.34
2053102,0.590480,-0.576328,0.603168,0.420000,-3.360000,-0.770000,20.36
2053114,0.587552,-0.569008,0.610488,0.980000,-3.220000,-0.910000,20.36
2053125,0.579256,-0.567544,0.610488,0.770000,-3.500000,-1.400000,20.34
2053136,0.582184,-0.573400,0.610488,0.770000,-3.570000,-1.820000,20.32
2053147,0.588040,-0.569496,0.613416,0.980000,-3.640000,-1.960000,20.32
2053158,0.594384,-0.573400,0.615856,1.680000,-3.290000,-1.820000,20.38
2053169,0.592920,-0.563640,0.613904,1.890000,-3.290000,-2.100000,20.38
2053181,0.597800,-0.561688,0.603656,1.680000,-3.290000,-2.380000,20.39
2053192,0.595848,-0.564616,0.613416,1.960000,-3.570000,-2.450000,20.33
2053203,0.596824,-0.563640,0.616832,2.240000,-3.640000,-2.590000,20.33
2053214,0.595360,-0.554856,0.618296,2.170000,-3.640000,-2.380000,20.40
2053225,0.591944,-0.549000,0.609024,1.890000,-4.270000,-2.240000,20.40
2053236,0.592920,-0.554856,0.608048,2.100000,-4.620000,-1.820000,20.36
2053247,0.596336,-0.554368,0.605608,2.800000,-4.760000,-1.330000,20.32
2053258,0.595848,-0.546072,0.598288,2.520000,-4.690000,-1.050000,20.32
2053269,0.602680,-0.549488,0.596824,1.890000,-4.620000,-0.700000,20.37
2053280,0.599264,-0.546560,0.598776,0.490000,-4.550000,-0.560000,20.37
2053291,0.599752,-0.550952,0.592432,-1.190000,-4.340000,-0.700000,20.37
2053302,0.598288,-0.558760,0.591456,-1.890000,-3.990000,-1.050000,20.37
2053313,0.599752,-0.564616,0.596336,-1.260000,-3.570000,-1.260000,20.37
2053324,0.595360,-0.559736,0.602192,0.070000,-3.150000,-1.470000,20.36
2053335,0.593896,-0.558272,0.599752,0.980000,-2.520000,-1.470000,20.36
2053346,0.591944,-0.558272,0.597312,0.840000,-2.520000,-1.330000,20.39
2053357,0.598288,-0.555344,0.597800,0.630000,-2.240000,-1.190000,20.39
2053369,0.595360,-0.550952,0.599752,-0.700000,-2.310000,-1.260000,20.39
2053380,0.597312,-0.559248,0.594384,-1.540000,-2.380000,-1.540000,20.32
2053391,0.596824,-0.564128,0.593896,-0.980000,-2.240000,-1.610000,20.32
2053403,0.596824,-0.561200,0.593896,-0.280000,-2.310000,-1.540000,20.40
2053414,0.594872,-0.561688,0.594872,0.000000,-2.520000,-1.400000,20.40
2053425,0.597800,-0.567544,0.594384,-0.070000,-2.310000,-0.910000,20.32
2053437,0.596824,-0.559736,0.594384,-0.420000,-2.730000,-0.980000,20.33
2053449,0.596336,-0.563640,0.599752,-1.400000,-3.010000,-1.400000,20.33
2053460,0.599752,-0.571936,0.596336,-1.540000,-2.730000,-1.750000,20.36
2053472,0.595360,-0.561200,0.589504,-1.190000,-2.380000,-2.030000,20.32
2053483,0.599264,-0.561200,0.592920,-1.540000,-2.170000,-2.170000,20.32
2053494,0.601216,-0.560712,0.604144,-1.610000,-1.820000,-2.100000,20.38
2053505,0.597312,-0.561688,0.599752,-2.450000,-1.680000,-2.170000,20.38
2053516,0.600728,-0.564128,0.595360,-2.100000,-1.820000,-2.310000,20.37
2053527,0.600728,-0.561688,0.593896,-1.610000,-1.960000,-2.520000,20.37
2053539,0.602192,-0.556808,0.592432,-1.680000,-1.960000,-2.240000,20.37
2053550,0.603168,-0.547048,0.592432,-2.590000,-1.540000,-1.820000,20.32
2053561,0.599264,-0.539728,0.594384,-4.270000,-1.890000,-1.260000,20.32
2053572,0.602192,-0.550952,0.588040,-4.480000,-1.680000,-0.490000,20.34
2053584,0.600240,-0.543632,0.590968,-4.200000,-1.750000,-0.490000,20.38
2053595,0.600728,-0.556808,0.596336,-3.220000,-1.330000,-0.420000,20.38
2053606,0.605608,-0.554368,0.593408,-1.330000,-1.330000,0.140000,20.36
2053617,0.598776,-0.543144,0.589992,-0.560000,-1.260000,0.140000,20.36
2053628,0.599264,-0.549488,0.587552,0.210000,-1.190000,0.560000,20.36
2053640,0.598288,-0.552416,0.592920,0.910000,-1.260000,0.980000,20.37
2053650,0.602680,-0.545096,0.588040,1.400000,-1.330000,1.330000,20.37
2053661,0.595848,-0.549976,0.587064,1.960000,-1.050000,1.820000,20.38
2053673,0.596336,-0.553880,0.590480,1.750000,-1.190000,1.820000,20.38
2053684,0.597800,-0.551440,0.589016,1.540000,-1.190000,2.170000,20.39
2053694,0.600728,-0.558272,0.587552,1.540000,-0.770000,2.310000,20.36
2053705,0.597800,-0.558760,0.594872,0.910000,-0.770000,2.170000,20.36
2053716,0.596824,-0.569496,0.601216,0.840000,-0.770000,2.240000,20.36
2053727,0.593408,-0.572424,0.609512,0.910000,-0.840000,2.030000,20.36
2053738,0.589504,-0.585600,0.613416,1.120000,-0.980000,1.820000,20.35
2053749,0.584624,-0.581696,0.618784,1.190000,-0.910000,1.400000,20.35
2053760,0.582184,-0.586576,0.624640,1.190000,-1.400000,0.700000,20.34
2053771,0.585600,-0.586088,0.626592,0.980000,-1.540000,0.700000,20.36
2053782,0.585600,-0.592920,0.634400,1.260000,-2.100000,0.000000,20.36
2053793,0.589016,-0.591456,0.641232,1.890000,-2.450000,-0.350000,20.37
2053804,0.585112,-0.586088,0.639280,2.030000,-3.290000,-0.910000,20.37
2053815,0.587064,-0.585112,0.635864,1.820000,-4.130000,-1.470000,20.35
2053826,0.584136,-0.582672,0.633912,1.470000,-4.970000,-1.820000,20.30
2053837,0.586576,-0.582672,0.630496,1.190000,-5.740000,-1.960000,20.30
2053848,0.590968,-0.587552,0.749080,1.750000,-6.650000,-2.520000,20.38
2053859,0.596824,-0.581208,0.616344,2.240000,-6.930000,-2.660000,20.38
2053870,0.597312,-0.578280,0.607072,2.310000,-7.280000,-3.150000,20.36
2053881,0.599264,-0.577304,0.592920,2.170000,-7.280000,-3.290000,20.33
2053892,0.597312,-0.567056,0.587552,1.400000,-7.280000,-3.430000,20.33
2053905,0.595360,-0.563640,0.586576,0.980000,-7.140000,-3.640000,20.36
2053916,0.598776,-0.564128,0.580232,1.050000,-6.580000,-3.640000,20.36
2053927,0.596824,-0.557296,0.580720,1.120000,-6.370000,-3.640000,20.37
2053938,0.600240,-0.562176,0.579256,1.260000,-6.020000,-3.710000,20.40
2053949,0.603656,-0.559248,0.577304,1.540000,-5.530000,-3.500000,20.40
2053960,0.608048,-0.550952,0.577792,1.960000,-5.460000,-3.290000,20.37
2053971,0.610000,-0.542656,0.566568,2.520000,-5.390000,-2.660000,20.37
2053982,0.605608,-0.552904,0.570960,2.730000,-4.830000,-2.240000,20.35
2053993,0.611464,-0.542168,0.573400,2.380000,-4.690000,-1.960000,20.35
2054004,0.609024,-0.538264,0.566568,2.590000,-4.830000,-1.750000,20.35
2054015,0.613416,-0.549488,0.565592,2.520000,-4.060000,-1.680000,20.43
2054026,0.614880,-0.537776,0.572424,1.960000,-3.500000,-1.260000,20.43
2054037,0.614880,-0.532896,0.575840,1.470000,-2.940000,-1.260000,20.37
2054048,0.615368,-0.535336,0.575352,1.050000,-2.310000,-0.910000,20.37
2054059,0.614392,-0.535336,0.573888,1.400000,-1.750000,-0.560000,20.39
2054070,0.608536,-0.536800,0.578280,1.820000,-1.960000,-0.770000,20.40
2054081,0.615368,-0.541680,0.580720,2.170000,-0.840000,0.700000,20.40
2054092,0.606584,-0.539240,0.590968,2.170000,-0.910000,0.840000,20.35
2054103,0.604144,-0.544120,0.590968,1.960000,-1.120000,0.770000,20.35
2054114,0.607560,-0.549000,0.595848,1.680000,-0.840000,1.680000,20.33
2054126,0.601704,-0.544120,0.598776,0.490000,-1.050000,1.470000,20.42
2054138,0.603656,-0.557296,0.599264,0.000000,-1.400000,1.330000,20.42
2054149,0.611952,-0.564616,0.603168,0.280000,-1.260000,1.610000,20.37
2054160,0.607560,-0.560712,0.608048,0.350000,-1.540000,1.260000,20.37
2054171,0.609512,-0.565592,0.609512,0.630000,-1.330000,1.050000,20.34
2054182,0.601704,-0.565104,0.604632,0.770000,-1.330000,0.630000,20.34
2054193,0.600240,-0.566568,0.601704,1.260000,-1.330000,0.350000,20.34
2054204,0.597800,-0.563640,0.602680,1.750000,-1.330000,0.140000,20.38
2054215,0.597312,-0.559736,0.603656,1.540000,-1.330000,-0.140000,20.38
2054226,0.597312,-0.567056,0.605608,0.980000,-1.540000,-0.280000,20.38
2054237,0.596336,-0.570472,0.605608,1.050000,-1.820000,-0.070000,20.37
2054248,0.594872,-0.568032,0.599752,1.330000,-2.100000,0.000000,20.37
2054259,0.593896,-0.569496,0.597800,1.540000,-2.450000,-0.210000,20.36
2054270,0.599752,-0.570472,0.599752,1.540000,-2.520000,-0.210000,20.36
2054281,0.600728,-0.568032,0.593896,1.330000,-2.660000,-0.210000,20.34
2054292,0.607072,-0.567056,0.589992,1.050000,-2.520000,-0.210000,20.37
2054303,0.604144,-0.568032,0.594872,0.980000,-2.590000,-0.490000,20.37
2054314,0.609512,-0.569008,0.593896,1.470000,-2.380000,-0.700000,20.38
2054325,0.606096,-0.563640,0.591456,1.680000,-2.450000,-0.980000,20.38
2054336,0.606584,-0.558272,0.592920,1.470000,-2.310000,-1.190000,20.36
2054347,0.606584,-0.559736,0.595848,1.470000,-2.100000,-1.260000,20.36
2054358,0.603656,-0.554368,0.593896,1.680000,-2.100000,-1.120000,20.36
2054369,0.600728,-0.553392,0.593408,2.030000,-1.960000,-1.260000,20.33
2054380,0.598776,-0.548512,0.597800,2.030000,-1.960000,-0.910000,20.33
2054391,0.597800,-0.549976,0.593408,1.330000,-1.960000,-1.120000,20.34
2054402,0.599264,-0.551440,0.602192,1.540000,-1.890000,-0.630000,20.34
2054413,0.599752,-0.553392,0.598776,1.890000,-1.960000,-0.350000,20.38
2054424,0.600240,-0.550464,0.598776,2.240000,-1.960000,-0.140000,20.36
2054435,0.605120,-0.555832,0.596824,2.520000,-2.100000,-0.140000,20.36
2054446,0.604144,-0.547048,0.593408,2.590000,-2.030000,-0.140000,20.40
2054457,0.601216,-0.547536,0.597800,1.610000,-2.240000,-0.420000,20.40
2054468,0.605608,-0.561200,0.601216,1.470000,-2.030000,-0.420000,20.34
2054479,0.604144,-0.554368,0.601704,1.540000,-2.100000,-0.490000,20.36
2054490,0.607072,-0.557784,0.597312,1.610000,-2.100000,-0.700000,20.36
2054501,0.605120,-0.560224,0.597312,1.820000,-1.820000,-0.560000,20.37
2054512,0.604632,-0.553880,0.600240,1.960000,-1.820000,-0.420000,20.37
2054523,0.603168,-0.552904,0.598776,1.820000,-1.890000,-0.210000,20.35
2054534,0.600728,-0.551928,0.593896,1.680000,-1.890000,-0.070000,20.38
2054545,0.597312,-0.555344,0.593408,1.470000,-1.820000,0.070000,20.38
2054556,0.599752,-0.549976,0.594872,1.330000,-1.750000,0.000000,20.37
2054567,0.603168,-0.552416,0.599752,0.980000,-1.540000,-0.140000,20.37
2054578,0.606584,-0.555344,0.605608,1.190000,-1.330000,0.140000,20.37
2054589,0.602192,-0.552904,0.603168,1.400000,-1.190000,0.070000,20.37
2054600,0.598776,-0.555832,0.601216,1.680000,-1.330000,0.000000,20.37
2054611,0.600240,-0.553392,0.599752,2.380000,-1.470000,-0.070000,20.32
2054622,0.600728,-0.553880,0.602192,3.360000,-1.680000,-0.140000,20.32
2054633,0.606096,-0.552904,0.609024,3.780000,-1.540000,0.070000,20.36
2054644,0.603168,-0.549000,0.604144,3.920000,-1.610000,-0.140000,20.36
2054655,0.600728,-0.550464,0.604632,3.990000,-1.540000,-0.140000,20.40
2054666,0.599264,-0.545584,0.602192,3.570000,-1.470000,-0.350000,20.39
2054677,0.601704,-0.547048,0.602680,3.430000,-1.400000,-0.140000,20.39
2054689,0.600240,-0.547536,0.603656,3.290000,-1.260000,0.140000,20.37
2054699,0.599264,-0.544120,0.606096,3.360000,-1.260000,0.420000,20.37
2054710,0.600240,-0.538752,0.604144,3.080000,-1.400000,0.700000,20.39
2054721,0.598776,-0.544608,0.604144,2.660000,-1.680000,0.770000,20.35
2054732,0.596824,-0.547048,0.603168,2.240000,-1.750000,0.770000,20.35
2054743,0.606096,-0.553392,0.607072,1.960000,-1.680000,1.190000,20.42
2054754,0.603656,-0.549488,0.609512,1.890000,-1.750000,1.260000,20.42
2054765,0.597312,-0.549976,0.606096,1.750000,-1.610000,1.120000,20.31
2054776,0.598776,-0.555344,0.606096,1.960000,-1.750000,1.190000,20.31
2054787,0.598288,-0.557296,0.610488,1.890000,-1.610000,0.980000,20.37
2054798,0.600240,-0.561200,0.612928,2.170000,-1.540000,0.980000,20.30
2054809,0.598288,-0.555344,0.613904,1.960000,-1.470000,0.910000,20.30
2054820,0.598288,-0.550952,0.610488,1.680000,-1.610000,0.840000,20.38
2054831,0.595360,-0.555344,0.609512,1.400000,-1.540000,0.700000,20.38
2054841,0.592432,-0.560224,0.608536,1.330000,-1.610000,0.700000,20.39
2054852,0.594872,-0.558760,0.607560,1.260000,-1.750000,0.420000,20.37
2054863,0.597800,-0.562664,0.610000,1.540000,-1.890000,0.070000,20.37
2054874,0.599264,-0.567056,0.609512,2.240000,-2.030000,-0.210000,20.37
2054885,0.600240,-0.568032,0.610976,3.220000,-2.100000,-0.420000,20.37
2054896,0.600728,-0.564616,0.612440,3.430000,-2.030000,-0.630000,20.36
2054907,0.594872,-0.557296,0.611464,3.360000,-1.890000,-0.770000,20.37
2054918,0.592920,-0.551928,0.610976,2.310000,-2.030000,-0.910000,20.37
2054929,0.595360,-0.549976,0.611464,1.960000,-2.100000,-1.050000,20.39
2054940,0.595360,-0.548512,0.615368,1.260000,-2.170000,-1.050000,20.39
2054951,0.597800,-0.554856,0.615856,1.610000,-2.170000,-0.910000,20.39
2054962,0.594384,-0.548024,0.613904,2.100000,-2.310000,-0.840000,20.39
2054973,0.596336,-0.548512,0.612928,2.520000,-2.660000,-0.980000,20.38
2054984,0.596824,-0.548512,0.614392,2.730000,-2.590000,-0.700000,20.38
2054995,0.597312,-0.541680,0.613416,2.520000,-2.730000,-0.490000,20.38
2055006,0.596824,-0.545096,0.614392,2.800000,-2.870000,-0.280000,20.41
2055017,0.595848,-0.545584,0.610488,2.730000,-2.940000,-0.140000,20.41
2055028,0.597800,-0.543144,0.610488,3.430000,-2.870000,0.000000,20.38
2055039,0.598776,-0.546072,0.610488,3.500000,-2.940000,-0.070000,20.39
2055050,0.600728,-0.544120,0.613416,3.640000,-2.730000,0.210000,20.39
2055061,0.596824,-0.540704,0.609512,2.800000,-2.660000,0.280000,20.35
2055072,0.598288,-0.544120,0.604144,2.030000,-2.660000,0.490000,20.35
2055083,0.592920,-0.546560,0.604144,0.770000,-2.870000,0.210000,20.35
2055094,0.596336,-0.551928,0.612928,0.420000,-3.080000,0.210000,20.39
2055105,0.598776,-0.559248,0.612440,0.840000,-3.220000,0.000000,20.39
2055116,0.595848,-0.560712,0.616344,1.750000,-3.150000,0.000000,20.38
2055127,0.593896,-0.552416,0.614392,1.960000,-3.360000,-0.210000,20.38
2055139,0.596336,-0.554368,0.618296,1.820000,-3.150000,-0.210000,20.37
2055150,0.592432,-0.557784,0.619760,1.610000,-3.360000,-0.420000,20.37
2055161,0.597800,-0.553392,0.620736,1.120000,-3.220000,-0.420000,20.37
2055172,0.592432,-0.548024,0.621712,0.000000,-3.360000,-0.560000,20.36
2055183,0.598288,-0.553392,0.621224,-0.350000,-3.570000,-0.770000,20.36
2055194,0.600240,-0.555344,0.617320,-0.070000,-3.710000,-0.980000,20.40
2055205,0.596824,-0.553392,0.617320,0.140000,-4.060000,-1.120000,20.33
2055216,0.597312,-0.557784,0.612928,0.350000,-4.200000,-1.400000,20.33
2055227,0.601216,-0.557296,0.607560,0.630000,-4.270000,-1.330000,20.36
2055238,0.600240,-0.552904,0.608048,0.560000,-4.410000,-1.330000,20.36
2055249,0.598776,-0.549976,0.606584,0.560000,-4.480000,-1.400000,20.38
2055260,0.597312,-0.549000,0.603168,0.210000,-4.410000,-1.470000,20.38
2055271,0.601704,-0.545096,0.603656,-0.420000,-4.200000,-1.610000,20.36
2055282,0.602192,-0.546560,0.601216,-1.330000,-3.850000,-1.820000,20.38
2055293,0.601216,-0.553880,0.600240,-1.190000,-3.570000,-1.890000,20.38
2055305,0.604144,-0.552416,0.597312,-0.560000,-3.500000,-1.890000,20.35
2055316,0.598776,-0.544608,0.594384,-0.140000,-3.430000,-1.750000,20.35
2055327,0.601216,-0.542168,0.594384,-0.700000,-3.150000,-1.750000,20.38
2055338,0.600728,-0.544608,0.595848,-1.120000,-2.870000,-1.330000,20.34
2055349,0.603168,-0.543144,0.598288,-0.840000,-2.800000,-1.260000,20.34
2055360,0.607072,-0.546072,0.599752,0.070000,-2.590000,-1.260000,20.40
2055371,0.606096,-0.545584,0.600240,0.840000,-2.310000,-1.260000,20.40
2055382,0.609512,-0.533384,0.595848,0.630000,-2.030000,-0.840000,20.40
2055393,0.603656,-0.533384,0.594384,-0.140000,-1.960000,-0.700000,20.35
2055404,0.606584,-0.533872,0.600728,-1.260000,-1.960000,-0.210000,20.35
2055415,0.605608,-0.536312,0.604144,-1.400000,-1.890000,0.000000,20.38
2055426,0.604144,-0.544120,0.606096,-0.770000,-2.100000,0.210000,20.38
2055437,0.604144,-0.547536,0.609024,0.420000,-2.100000,0.420000,20.36
2055448,0.604144,-0.544120,0.606096,0.980000,-2.170000,0.630000,20.37
2055459,0.602680,-0.543632,0.601216,1.120000,-2.100000,0.770000,20.37
2055470,0.601704,-0.545584,0.595848,1.330000,-2.030000,0.910000,20.34
2055481,0.602192,-0.544120,0.599752,1.400000,-2.030000,0.980000,20.34
2055492,0.598776,-0.545096,0.604632,0.840000,-2.030000,0.910000,20.40
2055503,0.605608,-0.556320,0.606096,0.910000,-1.820000,1.050000,20.40
2055514,0.601216,-0.556808,0.604632,1.260000,-1.820000,0.980000,20.41
2055524,0.598288,-0.555832,0.607560,1.260000,-1.820000,0.910000,20.36
2055535,0.599752,-0.554368,0.606584,0.770000,-1.750000,0.560000,20.36
2055546,0.596824,-0.558272,0.608048,0.700000,-1.890000,0.420000,20.37
2055557,0.600240,-0.556320,0.614392,0.840000,-1.890000,0.140000,20.37
2055568,0.600728,-0.554856,0.617320,0.700000,-1.890000,0.000000,20.43
2055579,0.597800,-0.558760,0.615368,0.840000,-2.030000,-0.140000,20.36
2055590,0.597800,-0.560224,0.620736,1.120000,-2.310000,-0.140000,20.36
2055601,0.597800,-0.555344,0.623664,0.910000,-2.660000,-0.350000,20.36
2055612,0.598288,-0.551928,0.617808,0.070000,-2.870000,-0.490000,20.36
2055623,0.599752,-0.561200,0.617320,0.210000,-3.010000,-0.630000,20.37
2055634,0.600240,-0.556808,0.620736,0.490000,-3.080000,-0.700000,20.37
2055645,0.599752,-0.553392,0.617808,0.770000,-3.220000,-0.840000,20.35
2055656,0.597312,-0.551928,0.608048,0.980000,-3.290000,-0.910000,20.39
2055667,0.598288,-0.554368,0.609024,1.120000,-3.430000,-0.980000,20.39
2055678,0.599752,-0.551928,0.612928,1.050000,-3.640000,-1.050000,20.39
2055689,0.600728,-0.550464,0.609024,0.490000,-3.710000,-0.980000,20.39
2055700,0.600728,-0.553880,0.605120,0.350000,-3.710000,-1.050000,20.35
2055711,0.598288,-0.550952,0.601704,0.840000,-3.850000,-1.120000,20.34
2055722,0.600728,-0.547048,0.600240,0.840000,-3.780000,-1.050000,20.34
2055733,0.602192,-0.545096,0.600728,0.420000,-3.640000,-1.120000,20.41
2055744,0.602192,-0.549488,0.603168,0.350000,-3.500000,-0.910000,20.41
2055755,0.599752,-0.549000,0.601216,0.490000,-3.220000,-0.840000,20.38
2055766,0.598776,-0.547536,0.597800,0.630000,-3.220000,-1.120000,20.37
2055777,0.604632,-0.551928,0.603656,0.840000,-3.150000,-0.980000,20.37
2055788,0.600728,-0.549000,0.609024,0.840000,-3.150000,-1.190000,20.37
2055799,0.604144,-0.546560,0.604632,0.420000,-3.080000,-1.120000,20.37
2055810,0.602680,-0.548512,0.602680,0.490000,-3.080000,-1.050000,20.42
2055821,0.606096,-0.546560,0.602192,0.700000,-3.010000,-0.980000,20.42
2055832,0.604632,-0.547048,0.604632,0.980000,-3.220000,-0.840000,20.37
2055843,0.606584,-0.546560,0.604632,1.330000,-3.290000,-0.630000,20.39
2055854,0.602680,-0.541680,0.603656,1.540000,-3.430000,-0.630000,20.39
2055865,0.605120,-0.547048,0.605608,1.470000,-3.430000,-0.630000,20.36
2055876,0.604144,-0.546072,0.610488,1.400000,-3.430000,-0.630000,20.36
2055887,0.602680,-0.546072,0.609512,0.980000,-3.360000,-0.630000,20.40
2055898,0.604632,-0.547536,0.604632,0.910000,-3.290000,-0.630000,20.37
2055908,0.601704,-0.547536,0.603656,0.560000,-3.360000,-0.420000,20.37
2055919,0.600728,-0.548512,0.600728,0.770000,-3.430000,-0.490000,20.38
2055930,0.604632,-0.550464,0.600240,0.910000,-3.430000,-0.350000,20.38
2055941,0.603656,-0.551928,0.598288,1.330000,-3.500000,-0.210000,20.39
2055952,0.610000,-0.549488,0.597312,1.260000,-3.360000,-0.350000,20.38
2055963,0.607072,-0.551928,0.593896,1.260000,-3.150000,-0.560000,20.38
2055974,0.610000,-0.549976,0.594872,1.330000,-3.080000,-0.560000,20.41
2055985,0.607072,-0.549976,0.591944,1.190000,-2.730000,-0.700000,20.41
2055996,0.606584,-0.550464,0.592432,1.330000,-2.380000,-0.700000,20.41
2056007,0.606584,-0.544120,0.596824,1.330000,-2.240000,-0.700000,20.41
2056018,0.603656,-0.539728,0.598288,0.560000,-2.100000,-0.630000,20.38
2056029,0.606096,-0.543632,0.596824,0.280000,-1.960000,-0.350000,20.36
2056040,0.607560,-0.542168,0.597312,0.350000,-1.890000,-0.280000,20.36
2056051,0.607072,-0.541192,0.604632,0.630000,-2.030000,-0.420000,20.35
2056062,0.609024,-0.547048,0.604632,1.190000,-1.750000,-0.140000,20.35
2056073,0.606584,-0.543632,0.607072,1.540000,-1.680000,0.000000,20.37
2056083,0.604632,-0.541192,0.610000,1.470000,-1.890000,0.000000,20.35
2056094,0.601704,-0.540216,0.611952,0.980000,-1.750000,0.280000,20.35
2056106,0.600728,-0.542656,0.610488,0.350000,-2.170000,0.420000,20.41
2056117,0.601216,-0.549488,0.604632,0.350000,-2.380000,0.490000,20.41
2056128,0.602680,-0.556320,0.610488,1.050000,-2.590000,0.350000,20.37
2056139,0.602680,-0.553392,0.611952,1.330000,-2.800000,0.280000,20.37
2056149,0.602680,-0.560224,0.614392,1.260000,-2.940000,-0.070000,20.37
2056165,0.609024,-0.549976,0.605608,0.980000,-2.730000,-0.210000,20.40
2056176,0.607072,-0.568032,0.603168,0.980000,-2.870000,-0.280000,20.34
2056187,0.597312,-0.555344,0.599264,0.770000,-3.010000,-0.560000,20.34
2056198,0.603656,-0.555832,0.601216,0.420000,-3.010000,-0.700000,20.37
2056208,0.599752,-0.550952,0.604632,-0.210000,-3.150000,-0.910000,20.37
2056219,0.606584,-0.562664,0.598776,0.070000,-2.870000,-0.980000,20.38
2056230,0.605120,-0.557784,0.598776,0.560000,-2.800000,-1.190000,20.38
2056241,0.604632,-0.556320,0.602680,0.840000,-2.730000,-1.400000,20.39
2056252,0.607072,-0.551440,0.599264,0.840000,-2.590000,-1.540000,20.36
2056263,0.605608,-0.552416,0.599752,1.120000,-2.590000,-1.820000,20.36
2056275,0.610488,-0.542168,0.599264,1.330000,-2.590000,-1.680000,20.39
2056286,0.607560,-0.548024,0.601704,1.120000,-2.590000,-1.540000,20.39
2056297,0.604632,-0.534848,0.602680,0.210000,-2.590000,-1.190000,20.40
2056308,0.607560,-0.543632,0.601704,-0.420000,-2.730000,-1.050000,20.39
2056319,0.607072,-0.544120,0.597312,-0.700000,-2.870000,-0.770000,20.39
2056330,0.609024,-0.548024,0.603168,0.000000,-2.730000,-0.840000,20.39
2056341,0.606096,-0.545096,0.600240,0.980000,-2.730000,-0.770000,20.39
2056352,0.608048,-0.543144,0.602680,1.330000,-2.450000,-0.490000,20.38
2056363,0.609024,-0.537288,0.596824,1.190000,-2.310000,-0.210000,20.35
2056374,0.605608,-0.538264,0.597312,0.490000,-2.450000,-0.070000,20.35
2056385,0.607560,-0.543632,0.596824,0.070000,-2.380000,0.140000,20.39
2056396,0.607072,-0.544120,0.599264,0.280000,-2.450000,0.140000,20.39
2056407,0.606584,-0.545096,0.603168,0.350000,-2.520000,0.140000,20.38
2056418,0.607560,-0.546072,0.606096,0.700000,-2.170000,0.210000,20.38
2056429,0.608048,-0.547536,0.600240,0.980000,-2.240000,0.070000,20.32
2056439,0.607560,-0.548512,0.603656,0.980000,-1.960000,0.140000,20.36
2056450,0.605120,-0.545584,0.602680,1.190000,-1.960000,-0.070000,20.36
2056461,0.604632,-0.549976,0.602680,1.540000,-2.030000,-0.070000,20.37
2056472,0.601704,-0.549488,0.600728,1.960000,-2.100000,-0.140000,20.37
2056483,0.605120,-0.544608,0.606096,2.030000,-2.310000,0.000000,20.39
2056494,0.605608,-0.543144,0.604632,1.470000,-2.450000,0.140000,20.37
2056505,0.608536,-0.548024,0.600240,1.260000,-2.450000,0.140000,20.37
2056515,0.608536,-0.546560,0.596824,1.610000,-2.310000,0.210000,20.37
2056526,0.606096,-0.548024,0.600728,1.750000,-2.100000,0.210000,20.37
2056537,0.607560,-0.547536,0.600240,1.890000,-1.890000,0.210000,20.35
2056548,0.604144,-0.546072,0.603168,1.820000,-1.750000,0.280000,20.35
2056558,0.604632,-0.548512,0.601704,1.540000,-1.960000,0.280000,20.40
2056569,0.605608,-0.551440,0.601704,1.610000,-1.890000,0.420000,20.36
2056580,0.607072,-0.545584,0.605120,1.890000,-2.030000,0.420000,20.36
2056591,0.606584,-0.544120,0.602192,1.120000,-2.030000,0.420000,20.38
2056602,0.606096,-0.552904,0.604632,1.260000,-2.170000,0.420000,20.38
2056613,0.608048,-0.549976,0.609512,1.400000,-2.100000,0.350000,20.37
2056623,0.603168,-0.547048,0.607560,1.190000,-1.960000,0.280000,20.37
2056634,0.604144,-0.548512,0.601704,1.050000,-2.170000,0.000000,20.36
2056645,0.603656,-0.553880,0.610000,1.470000,-2.100000,0.070000,20.36
2056656,0.602680,-0.545584,0.612928,1.820000,-2.030000,0.210000,20.36
2056666,0.602192,-0.545584,0.607560,2.100000,-2.030000,0.140000,20.37
2056677,0.605608,-0.547536,0.606584,1.890000,-2.030000,0.210000,20.37
2056688,0.603656,-0.548024,0.608536,1.540000,-2.240000,0.000000,20.39
2056699,0.603168,-0.549000,0.610976,1.120000,-2.100000,0.000000,20.35
2056710,0.602192,-0.548024,0.611952,0.840000,-2.170000,0.140000,20.35
2056720,0.599264,-0.551928,0.603656,0.840000,-2.310000,-0.140000,20.47
2056731,0.600728,-0.557296,0.608536,1.400000,-2.310000,-0.140000,20.47
2056742,0.600728,-0.554368,0.612440,1.540000,-2.520000,-0.280000,20.39
2056753,0.602680,-0.553392,0.612928,1.470000,-2.730000,-0.280000,20.39
2056764,0.601704,-0.551440,0.610488,1.260000,-2.800000,-0.490000,20.43
2056775,0.603656,-0.553880,0.613904,0.770000,-2.870000,-0.560000,20.37
2056786,0.603656,-0.552904,0.614392,0.770000,-2.940000,-0.630000,20.37
2056797,0.602680,-0.550952,0.614392,0.630000,-3.220000,-0.770000,20.37
2056808,0.604144,-0.551440,0.611952,0.490000,-3.220000,-0.910000,20.37
2056819,0.602192,-0.554368,0.611952,0.350000,-3.500000,-1.050000,20.39
2056830,0.602192,-0.550952,0.611464,0.420000,-3.640000,-0.980000,20.41
2056841,0.603168,-0.550464,0.610488,0.140000,-3.710000,-1.190000,20.41
2056852,0.604632,-0.555344,0.605608,0.280000,-3.570000,-1.120000,20.37
2056863,0.603656,-0.547536,0.606584,0.560000,-3.710000,-1.330000,20.37
2056874,0.604632,-0.545584,0.603656,0.140000,-3.850000,-1.470000,20.37
2056885,0.605608,-0.554856,0.599752,0.070000,-3.780000,-1.400000,20.38
2056896,0.606584,-0.547536,0.600728,0.420000,-3.640000,-1.400000,20.38
2056906,0.604632,-0.547048,0.600728,0.560000,-3.710000,-1.540000,20.37
2056917,0.609512,-0.550952,0.600728,0.770000,-3.500000,-1.610000,20.37
2056928,0.607072,-0.545096,0.602192,0.420000,-3.430000,-1.470000,20.43
2056939,0.610000,-0.543632,0.601704,0.000000,-3.360000,-1.470000,20.43
2056950,0.605608,-0.546072,0.597312,-0.350000,-3.430000,-1.540000,20.38
2056961,0.605608,-0.546072,0.600728,0.000000,-3.360000,-1.610000,20.40
2056971,0.605120,-0.543144,0.598776,0.070000,-3.360000,-1.470000,20.40
2056982,0.608048,-0.544608,0.605608,0.070000,-3.360000,-1.330000,20.38
2056993,0.610488,-0.541680,0.605608,0.000000,-3.500000,-1.190000,20.38
2057004,0.610976,-0.543632,0.605608,0.140000,-3.500000,-1.050000,20.40
2057015,0.607560,-0.539240,0.604632,0.070000,-3.430000,-0.980000,20.40
2057026,0.609512,-0.546072,0.598776,0.140000,-3.500000,-1.050000,20.38
2057036,0.608048,-0.540216,0.597312,0.630000,-3.500000,-0.840000,20.36
2057047,0.610000,-0.539728,0.598776,0.560000,-3.500000,-0.630000,20.36
2057058,0.610976,-0.538752,0.599752,0.140000,-3.430000,-0.560000,20.42
2057069,0.607560,-0.541192,0.599264,-0.140000,-3.500000,-0.560000,20.42
2057080,0.614880,-0.549000,0.596336,0.140000,-3.220000,-0.280000,20.41
2057091,0.611464,-0.544120,0.594384,0.350000,-3.150000,-0.560000,20.38
2057102,0.611952,-0.543632,0.595360,0.420000,-2.870000,-0.630000,20.38
2057113,0.611952,-0.542168,0.593896,0.350000,-2.660000,-0.700000,20.36
2057124,0.611464,-0.543632,0.594384,0.210000,-2.520000,-0.560000,20.36
2057135,0.610488,-0.544120,0.592432,0.910000,-2.310000,-0.350000,20.43
2057146,0.611952,-0.542656,0.594384,1.190000,-2.380000,-0.210000,20.43
2057157,0.611464,-0.541680,0.593408,1.050000,-2.170000,-0.070000,20.39
2057167,0.611952,-0.541680,0.590968,0.700000,-2.100000,-0.070000,20.39
2057180,0.608536,-0.548512,0.597800,0.630000,-2.100000,-0.070000,20.39
2057194,0.610976,-0.548024,0.603656,0.980000,-2.030000,-0.070000,20.38
2057205,0.611464,-0.545584,0.600728,1.120000,-2.030000,0.070000,20.38
2057216,0.607560,-0.543632,0.603168,0.700000,-2.100000,0.210000,20.38
2057227,0.610976,-0.545096,0.603168,0.420000,-2.240000,0.280000,20.37
2057238,0.608536,-0.544120,0.604144,0.350000,-2.240000,0.350000,20.37
2057249,0.610488,-0.548512,0.602192,0.630000,-2.450000,0.350000,20.35
2057259,0.610000,-0.549976,0.601704,1.050000,-2.310000,0.490000,20.40
2057270,0.609024,-0.549976,0.607560,1.190000,-2.450000,0.420000,20.40
2057281,0.606096,-0.547536,0.606096,1.050000,-2.520000,0.210000,20.37
2057292,0.610488,-0.550464,0.605608,0.770000,-2.450000,0.070000,20.37
2057302,0.606584,-0.553392,0.605120,0.980000,-2.450000,-0.140000,20.40
2057313,0.610000,-0.548024,0.605120,1.260000,-2.380000,-0.280000,20.40
2057324,0.609024,-0.547048,0.601216,0.910000,-2.450000,-0.350000,20.38
2057335,0.611464,-0.550464,0.604632,0.700000,-2.520000,-0.210000,20.39
2057346,0.606096,-0.548024,0.604144,0.490000,-2.730000,-0.210000,20.39
2057356,0.605120,-0.548024,0.607560,0.420000,-2.800000,-0.280000,20.39
2057367,0.605608,-0.549976,0.602192,0.490000,-2.800000,-0.420000,20.39
2057378,0.608048,-0.552904,0.601216,1.050000,-2.940000,-0.420000,20.40
2057389,0.611464,-0.549000,0.604144,1.190000,-2.940000,-0.420000,20.37
2057400,0.610000,-0.547048,0.602192,0.980000,-3.010000,-0.350000,20.37
2057411,0.608536,-0.546072,0.599264,0.560000,-3.010000,-0.280000,20.38
2057422,0.606584,-0.548512,0.599752,0.420000,-3.290000,-0.280000,20.38
2057433,0.609024,-0.549000,0.599752,0.280000,-3.150000,-0.280000,20.42
2057443,0.609024,-0.549976,0.598776,0.000000,-3.290000,-0.420000,20.42
2057454,0.610488,-0.550952,0.600728,0.140000,-3.220000,-0.350000,20.36
2057465,0.610488,-0.551928,0.599264,0.560000,-3.360000,-0.420000,20.37
2057476,0.610976,-0.546072,0.597800,0.770000,-3.080000,-0.350000,20.37
2057487,0.610000,-0.541680,0.591944,0.560000,-3.220000,-0.490000,20.37
2057498,0.610488,-0.549000,0.593896,0.560000,-3.010000,-0.420000,20.37
2057509,0.610976,-0.546072,0.598288,0.840000,-2.940000,-0.350000,20.43
2057520,0.610488,-0.545096,0.597312,0.840000,-3.010000,-0.420000,20.40
2057531,0.610976,-0.549488,0.593408,1.120000,-2.800000,-0.350000,20.40
2057542,0.610976,-0.548024,0.594384,1.750000,-2.660000,-0.420000,20.41
2057553,0.608536,-0.542168,0.593896,1.400000,-2.730000,-0.420000,20.41
2057564,0.610976,-0.540216,0.592920,0.700000,-2.520000,-0.350000,20.39
2057575,0.610976,-0.545584,0.591944,0.560000,-2.450000,-0.350000,20.39
2057586,0.610488,-0.547048,0.594872,1.050000,-2.240000,-0.070000,20.40
2057597,0.610976,-0.541192,0.596336,1.330000,-2.240000,-0.140000,20.37
2057607,0.610976,-0.540216,0.593896,1.050000,-2.170000,-0.140000,20.37
2057618,0.609024,-0.549488,0.595848,1.050000,-2.100000,0.070000,20.37
2057629,0.610488,-0.545584,0.598776,1.400000,-2.310000,0.000000,20.37
2057639,0.612928,-0.547536,0.601216,1.330000,-2.170000,0.140000,20.38
2057650,0.612928,-0.545096,0.600728,1.050000,-2.100000,0.140000,20.36
2057661,0.611464,-0.548024,0.597800,0.840000,-2.170000,0.070000,20.36
2057672,0.609512,-0.548024,0.599264,1.050000,-2.100000,0.210000,20.38
2057683,0.608536,-0.545584,0.601216,0.910000,-2.170000,0.210000,20.38
2057693,0.608536,-0.544608,0.603168,0.490000,-2.170000,0.350000,20.40
2057704,0.610488,-0.549000,0.598288,0.140000,-2.100000,0.280000,20.40
2057715,0.609512,-0.549488,0.604144,0.630000,-2.170000,0.210000,20.39
2057726,0.610976,-0.547536,0.601704,0.700000,-2.170000,-0.070000,20.37
2057737,0.610488,-0.554856,0.599264,0.630000,-2.100000,-0.140000,20.37
2057748,0.609512,-0.555832,0.601704,1.260000,-2.100000,-0.210000,20.40
2057759,0.609512,-0.551440,0.606096,1.050000,-2.240000,-0.280000,20.40
2057770,0.609024,-0.552416,0.603656,0.700000,-2.310000,-0.420000,20.41
2057781,0.605608,-0.551440,0.601704,0.700000,-2.380000,-0.560000,20.35
2057792,0.609024,-0.550464,0.600728,0.840000,-2.310000,-0.700000,20.35
2057802,0.610000,-0.550464,0.600240,0.910000,-2.170000,-0.630000,20.37
2057813,0.609024,-0.549488,0.601216,0.980000,-2.170000,-0.630000,20.37
2057824,0.607560,-0.545096,0.597800,1.050000,-2.310000,-0.630000,20.38
2057835,0.607560,-0.548024,0.597800,0.840000,-2.450000,-0.560000,20.38
2057846,0.611464,-0.549000,0.598288,0.490000,-2.310000,-0.630000,20.37
2057857,0.608536,-0.542168,0.599752,0.280000,-2.450000,-0.350000,20.40
2057868,0.610000,-0.545584,0.598776,0.210000,-2.660000,-0.490000,20.40
2057878,0.610976,-0.552416,0.599752,0.840000,-2.730000,-0.420000,20.39
2057889,0.611952,-0.548512,0.602192,1.190000,-2.800000,-0.560000,20.39
2057900,0.611464,-0.546560,0.601216,0.840000,-2.800000,-0.560000,20.39
2057911,0.611952,-0.549000,0.600240,0.980000,-2.590000,-0.280000,20.41
2057922,0.609512,-0.543144,0.594872,0.980000,-2.590000,-0.420000,20.41
2057933,0.607560,-0.545584,0.592920,0.980000,-2.520000,-0.280000,20.34
2057944,0.610488,-0.545096,0.594384,0.700000,-2.380000,-0.140000,20.34
2057955,0.609512,-0.540704,0.594872,0.560000,-2.380000,0.070000,20.37
2057965,0.611464,-0.541680,0.593408,0.350000,-2.380000,0.070000,20.37
2057976,0.612440,-0.547048,0.592920,0.770000,-2.310000,0.070000,20.41
2057987,0.609512,-0.548024,0.599752,1.330000,-2.240000,0.210000,20.39
2057998,0.610000,-0.544608,0.593896,1.540000,-2.100000,0.070000,20.39
2058008,0.609512,-0.545096,0.592920,1.260000,-2.030000,0.210000,20.41
2058019,0.607560,-0.547536,0.599752,1.260000,-1.890000,0.140000,20.41
2058030,0.608048,-0.544608,0.600240,0.910000,-1.960000,0.280000,20.41
2058041,0.608048,-0.547536,0.602192,0.700000,-2.030000,0.210000,20.41
2058051,0.608048,-0.550952,0.605608,1.050000,-2.170000,0.280000,20.41
2058062,0.611464,-0.549488,0.610488,0.910000,-2.240000,0.140000,20.37
2058073,0.609512,-0.550952,0.608048,0.980000,-2.380000,0.140000,20.37
2058084,0.609512,-0.552904,0.604632,0.910000,-2.520000,-0.070000,20.38
2058094,0.610000,-0.553880,0.607072,1.260000,-2.660000,-0.140000,20.38
2058105,0.608536,-0.549976,0.610000,1.050000,-2.590000,-0.210000,20.38
2058116,0.604632,-0.551928,0.608536,0.770000,-2.800000,-0.210000,20.38
2058127,0.609024,-0.551928,0.601704,0.560000,-2.800000,-0.280000,20.37
2058138,0.606584,-0.551928,0.602192,0.490000,-2.870000,-0.420000,20.35
2058149,0.607560,-0.553392,0.600240,0.350000,-2.940000,-0.490000,20.35
2058160,0.609512,-0.556320,0.598776,0.770000,-2.940000,-0.560000,20.37
2058171,0.609512,-0.552416,0.597312,1.190000,-2.730000,-0.700000,20.37
2058182,0.611464,-0.550952,0.593896,1.260000,-2.800000,-0.770000,20.40
2058193,0.610000,-0.551928,0.593896,1.330000,-2.660000,-0.910000,20.41
2058205,0.609512,-0.545584,0.592920,1.050000,-2.520000,-0.910000,20.41
2058216,0.610000,-0.549488,0.590480,1.050000,-2.590000,-1.120000,20.40
2058227,0.608048,-0.545584,0.596824,1.050000,-2.520000,-0.910000,20.40
2058238,0.608048,-0.545584,0.595848,0.630000,-2.450000,-0.910000,20.43
2058249,0.611464,-0.545584,0.596336,0.630000,-2.380000,-0.700000,20.36
2058260,0.610000,-0.547048,0.597312,0.630000,-2.310000,-0.560000,20.36
2058271,0.611464,-0.543632,0.599264,0.840000,-2.380000,-0.630000,20.37
2058282,0.609512,-0.546072,0.599752,0.700000,-2.310000,-0.560000,20.37
2058293,0.609024,-0.543632,0.600728,0.770000,-2.310000,-0.350000,20.40
2058304,0.610000,-0.543144,0.597800,0.770000,-2.380000,-0.420000,20.36
2058315,0.610488,-0.547048,0.600728,0.910000,-2.380000,-0.350000,20.36
2058326,0.609512,-0.539728,0.604144,0.420000,-2.450000,-0.350000,20.40
2058337,0.609024,-0.547048,0.603168,-0.070000,-2.590000,-0.210000,20.40
2058348,0.611464,-0.549976,0.603168,-0.070000,-2.590000,-0.210000,20.36
2058359,0.607560,-0.549000,0.604144,0.280000,-2.660000,-0.350000,20.40
2058370,0.612928,-0.550952,0.606096,0.630000,-2.590000,-0.280000,20.40
2058381,0.610488,-0.546072,0.601704,0.420000,-2.450000,-0.280000,20.44
2058392,0.605608,-0.546560,0.597312,-0.070000,-2.660000,-0.490000,20.44
2058402,0.604632,-0.552904,0.601216,0.210000,-2.730000,-0.560000,20.43
2058413,0.609512,-0.551928,0.603656,0.840000,-2.800000,-0.420000,20.43
2058424,0.610000,-0.548024,0.605120,1.470000,-2.940000,-0.350000,20.41
2058435,0.607560,-0.555344,0.597800,1.540000,-2.940000,-0.840000,20.38
2058446,0.614392,-0.546560,0.599264,1.470000,-2.870000,-0.420000,20.38
2058457,0.609512,-0.545096,0.597312,0.700000,-2.940000,-0.770000,20.39
2058468,0.610488,-0.548024,0.596336,0.490000,-2.800000,-0.630000,20.39
2058479,0.609024,-0.551440,0.599264,0.490000,-2.730000,-0.770000,20.41
2058489,0.611952,-0.546560,0.601216,0.630000,-2.660000,-0.560000,20.41
2058500,0.609512,-0.545096,0.595848,0.420000,-2.730000,-0.630000,20.40
2058511,0.612440,-0.546560,0.594384,0.210000,-2.800000,-0.490000,20.42
2058522,0.610488,-0.549000,0.596824,0.630000,-2.730000,-0.420000,20.42
2058533,0.611464,-0.547536,0.597800,1.120000,-2.660000,-0.420000,20.35
2058544,0.614392,-0.543632,0.595848,1.260000,-2.660000,-0.490000,20.35
2058555,0.613904,-0.543632,0.598776,1.050000,-2.590000,-0.420000,20.41
2058566,0.610976,-0.543632,0.601216,0.980000,-2.590000,-0.140000,20.41
2058577,0.610976,-0.543144,0.597312,0.700000,-2.520000,0.000000,20.41
2058587,0.607072,-0.539240,0.596824,0.140000,-2.660000,0.000000,20.37
2058598,0.609512,-0.551928,0.595360,0.210000,-2.800000,-0.140000,20.37
2058609,0.613416,-0.551440,0.598288,0.910000,-2.590000,-0.070000,20.38
2058620,0.613904,-0.543144,0.596336,1.190000,-2.520000,0.070000,20.38
2058631,0.614880,-0.546072,0.592432,1.260000,-2.450000,0.000000,20.42
2058642,0.610488,-0.547536,0.590480,1.400000,-2.240000,0.070000,20.39
2058652,0.610976,-0.547536,0.595360,1.750000,-2.240000,0.280000,20.39
2058663,0.609024,-0.541192,0.593408,1.470000,-2.240000,0.210000,20.39
2058674,0.608536,-0.546560,0.595848,1.190000,-2.240000,0.280000,20.39
2058685,0.608536,-0.548024,0.598288,1.260000,-2.170000,0.280000,20.42
2058696,0.610000,-0.547048,0.598288,1.190000,-2.100000,0.280000,20.37
2058707,0.611464,-0.547536,0.595360,0.980000,-2.030000,0.140000,20.37
2058717,0.608536,-0.549000,0.597800,0.840000,-2.030000,0.140000,20.47
2058729,0.610488,-0.549976,0.600240,0.840000,-2.030000,0.070000,20.47
2058740,0.610488,-0.547536,0.603656,1.050000,-2.030000,0.210000,20.40
2058751,0.610000,-0.546560,0.600240,1.400000,-2.030000,0.140000,20.40
2058762,0.609024,-0.549000,0.598776,1.820000,-2.100000,0.140000,20.37
2058773,0.610488,-0.546072,0.598776,1.960000,-2.240000,0.210000,20.39
2058784,0.609512,-0.542656,0.594384,1.680000,-2.240000,0.420000,20.39
2058795,0.610488,-0.543632,0.598288,1.190000,-2.240000,0.350000,20.41
2058806,0.611464,-0.545584,0.600728,1.050000,-2.170000,0.490000,20.41
2058817,0.609512,-0.548512,0.603168,1.260000,-2.170000,0.420000,20.44
2058828,0.606584,-0.549000,0.603656,1.750000,-2.030000,0.490000,20.37
2058838,0.606584,-0.547536,0.602680,1.610000,-2.030000,0.350000,20.37
2058849,0.606584,-0.550464,0.603656,1.470000,-1.890000,0.420000,20.39
2058860,0.604632,-0.549000,0.600240,1.610000,-2.170000,0.350000,20.39
2058871,0.607072,-0.548024,0.602192,1.260000,-2.380000,0.420000,20.43
2058882,0.606096,-0.555344,0.606096,1.330000,-2.450000,0.420000,20.37
2058893,0.607560,-0.555344,0.608048,1.470000,-2.380000,0.420000,20.37
2058904,0.607072,-0.553392,0.600728,1.750000,-2.520000,0.140000,20.42
2058915,0.602680,-0.552416,0.597800,1.400000,-2.520000,0.070000,20.42
2058925,0.608048,-0.555344,0.599752,1.120000,-2.520000,-0.070000,20.37
2058937,0.609512,-0.553392,0.602192,1.260000,-2.590000,-0.280000,20.37
2058948,0.606584,-0.553392,0.602680,1.540000,-2.520000,-0.280000,20.42
2058958,0.610488,-0.552904,0.601216,1.610000,-2.520000,-0.210000,20.37
2058969,0.606584,-0.546072,0.600728,0.910000,-2.450000,-0.350000,20.37
2058981,0.608048,-0.549976,0.599264,0.490000,-2.520000,-0.350000,20.41
2058992,0.605608,-0.549488,0.602680,0.770000,-2.590000,-0.420000,20.41
2059003,0.607560,-0.548512,0.606584,1.050000,-2.590000,-0.490000,20.43
2059013,0.608048,-0.548512,0.606584,1.120000,-2.590000,-0.700000,20.37
2059025,0.606096,-0.549976,0.605608,1.260000,-2.520000,-0.840000,20.37
2059036,0.609024,-0.550464,0.601704,1.750000,-2.380000,-0.840000,20.44
2059047,0.609024,-0.549488,0.601704,1.890000,-2.520000,-0.910000,20.44
2059058,0.610488,-0.547048,0.603168,1.680000,-2.730000,-0.840000,20.45
2059069,0.610000,-0.545096,0.600728,0.910000,-2.730000,-0.700000,20.39
2059080,0.608536,-0.548024,0.600728,0.700000,-2.800000,-0.840000,20.39
2059091,0.606584,-0.546072,0.596336,0.910000,-2.520000,-0.980000,20.45
2059102,0.608536,-0.544120,0.597312,1.120000,-2.450000,-0.980000,20.45
2059113,0.608536,-0.544120,0.602680,1.260000,-2.520000,-1.050000,20.41
2059124,0.608536,-0.546072,0.601704,0.910000,-2.240000,-1.050000,20.37
2059135,0.608536,-0.543632,0.600728,0.770000,-2.380000,-0.840000,20.37
2059146,0.608048,-0.545096,0.603656,0.840000,-2.450000,-0.770000,20.37
2059157,0.611952,-0.544608,0.604632,0.910000,-2.590000,-0.560000,20.37
2059168,0.610488,-0.543144,0.603168,0.910000,-2.730000,-0.420000,20.38
2059179,0.610000,-0.544120,0.602680,0.840000,-2.800000,-0.280000,20.38
2059190,0.613416,-0.545096,0.598776,1.190000,-2.800000,-0.210000,20.36
2059201,0.608536,-0.544120,0.601216,1.610000,-2.660000,-0.210000,20.39
2059212,0.610976,-0.542168,0.602680,1.400000,-2.730000,-0.140000,20.39
2059223,0.610488,-0.540704,0.601704,0.700000,-2.800000,-0.070000,20.42
2059236,0.610000,-0.541680,0.597800,0.490000,-2.590000,-0.140000,20.42
2059247,0.610976,-0.548512,0.597800,0.630000,-2.660000,-0.140000,20.37
2059258,0.612440,-0.549488,0.601704,1.190000,-2.520000,-0.210000,20.37
2059269,0.610488,-0.549000,0.601216,1.610000,-2.450000,-0.140000,20.37
2059280,0.610976,-0.549000,0.597800,1.680000,-2.380000,-0.280000,20.43
2059291,0.607560,-0.548512,0.598288,1.890000,-2.380000,-0.350000,20.43
2059302,0.608536,-0.545096,0.600728,1.610000,-2.380000,-0.350000,20.41
2059313,0.606584,-0.547048,0.601216,1.120000,-2.380000,-0.350000,20.40
2059324,0.609512,-0.546072,0.599752,0.560000,-2.380000,-0.210000,20.40
2059335,0.607560,-0.546072,0.600728,0.280000,-2.520000,-0.420000,20.45
2059346,0.611464,-0.553392,0.601704,0.560000,-2.520000,-0.490000,20.45
2059357,0.611952,-0.551928,0.602680,0.770000,-2.450000,-0.490000,20.43
2059368,0.609512,-0.548024,0.598776,0.980000,-2.520000,-0.490000,20.42
2059379,0.610000,-0.545584,0.595360,0.980000,-2.450000,-0.630000,20.42
2059390,0.609024,-0.544608,0.599264,0.700000,-2.520000,-0.630000,20.41
2059401,0.612440,-0.544608,0.602680,0.630000,-2.380000,-0.490000,20.41
2059412,0.609512,-0.542656,0.597312,0.560000,-2.520000,-0.630000,20.43
2059423,0.611464,-0.542168,0.593896,0.280000,-2.310000,-0.490000,20.37
2059434,0.610000,-0.544608,0.594872,0.210000,-2.240000,-0.560000,20.37
2059445,0.608536,-0.539728,0.598776,-0.070000,-2.100000,-0.420000,20.39
2059457,0.610488,-0.542656,0.604144,0.000000,-2.170000,-0.280000,20.39
2059468,0.610976,-0.547536,0.601216,0.420000,-2.030000,0.070000,20.43
2059479,0.606584,-0.540704,0.598776,0.700000,-2.030000,0.000000,20.43
2059489,0.608536,-0.542656,0.602680,0.350000,-2.100000,-0.070000,20.40
2059501,0.608048,-0.545096,0.600240,0.420000,-2.240000,-0.070000,20.36
2059512,0.610000,-0.548512,0.599264,0.700000,-2.170000,0.000000,20.36
2059523,0.606096,-0.546072,0.606096,0.770000,-2.240000,0.070000,20.38
2059534,0.606584,-0.546072,0.608048,0.630000,-2.240000,0.000000,20.38
2059544,0.607072,-0.551440,0.602680,0.210000,-2.170000,0.210000,20.40
2059555,0.605608,-0.549976,0.602192,0.210000,-2.310000,0.070000,20.37
2059566,0.607072,-0.552904,0.603656,0.140000,-2.450000,-0.140000,20.37
2059577,0.609512,-0.551928,0.600240,0.560000,-2.660000,-0.280000,20.38
2059588,0.610488,-0.551928,0.596336,1.050000,-2.590000,-0.560000,20.38
2059599,0.609024,-0.548512,0.605608,0.910000,-2.520000,-0.630000,20.41
2059610,0.609512,-0.549000,0.606096,0.280000,-2.450000,-0.350000,20.41
2059621,0.605120,-0.549976,0.601216,-0.210000,-2.310000,-0.140000,20.41
2059632,0.609024,-0.545584,0.598776,-0.210000,-1.890000,0.420000,20.39
2059643,0.605120,-0.541192,0.593896,-0.770000,-2.030000,0.910000,20.39
2059654,0.614392,-0.561688,0.606584,0.770000,-1.820000,0.770000,20.39
2059665,0.607560,-0.534360,0.625128,1.050000,-1.820000,1.050000,20.39
2059676,0.604144,-0.541680,0.621712,-0.140000,-2.100000,1.260000,20.41
2059687,0.614392,-0.561200,0.608048,3.150000,-1.190000,0.910000,20.40
2059699,0.601704,-0.541192,0.585600,4.760000,-1.470000,-0.770000,20.40
2059710,0.610488,-0.522648,0.579744,4.200000,-1.540000,-0.210000,20.41
2059721,0.607072,-0.540704,0.575352,3.430000,-1.820000,-1.470000,20.41
2059732,0.613904,-0.551928,0.576328,2.240000,-1.680000,-0.700000,20.40
2059743,0.611464,-0.549976,0.579744,1.260000,-1.960000,-0.980000,20.36
2059755,0.609512,-0.543144,0.587552,0.420000,-1.680000,-1.120000,20.36
2059766,0.610488,-0.550952,0.599264,0.070000,-1.820000,-1.120000,20.43
2059777,0.607560,-0.553392,0.614392,0.000000,-1.960000,-1.190000,20.43
2059788,0.606584,-0.549488,0.630496,-0.420000,-2.100000,-0.700000,20.38
2059799,0.603656,-0.544120,0.636352,-0.980000,-2.730000,-0.280000,20.41
2059810,0.602680,-0.544120,0.626592,-1.400000,-3.080000,-0.210000,20.41
2059822,0.601216,-0.546072,0.628544,-0.770000,-3.500000,-0.280000,20.38
2059833,0.606584,-0.543632,0.607560,-0.840000,-3.640000,-0.280000,20.38
2059844,0.605120,-0.547048,0.601216,-0.840000,-3.780000,-0.910000,20.36
2059855,0.611952,-0.547048,0.606584,-1.120000,-4.060000,-0.770000,20.39
2059866,0.608048,-0.546560,0.598288,-1.610000,-4.130000,-0.840000,20.39
2059877,0.609024,-0.555832,0.594872,-1.120000,-4.060000,-0.980000,20.41
2059888,0.610000,-0.549000,0.608048,-1.540000,-4.200000,-0.840000,20.41
2059899,0.608536,-0.546560,0.623664,-2.380000,-4.760000,-0.630000,20.41
2059910,0.609512,-0.552904,0.623176,-2.450000,-4.970000,-0.770000,20.36
2059921,0.607072,-0.546560,0.618784,-2.660000,-5.040000,-0.630000,20.36
2059932,0.606584,-0.553392,0.612440,-2.380000,-5.040000,-0.490000,20.41
2059943,0.609512,-0.546560,0.593896,-2.590000,-4.620000,-0.490000,20.41
2059955,0.610976,-0.545096,0.580232,-2.240000,-4.480000,-0.630000,20.40
2059966,0.610000,-0.551440,0.580232,-2.660000,-4.410000,-0.840000,20.35
2059977,0.616344,-0.554368,0.574864,-1.890000,-3.780000,-0.630000,20.35
2059988,0.610976,-0.561200,0.569984,-1.050000,-3.780000,-0.840000,20.44
2059999,0.618296,-0.557296,0.574376,-0.350000,-3.150000,-0.700000,20.44
2060010,0.611952,-0.549976,0.582184,-0.560000,-2.940000,-0.980000,20.41
2060022,0.616344,-0.546072,0.586576,-1.400000,-2.940000,-0.630000,20.40
2060033,0.611952,-0.545584,0.587552,-1.470000,-2.870000,-0.700000,20.40
2060044,0.615368,-0.553880,0.586088,-0.910000,-2.590000,-0.700000,20.43
2060056,0.613416,-0.548024,0.589992,-0.210000,-2.520000,-0.840000,20.43
2060067,0.612440,-0.547048,0.593896,0.140000,-2.730000,-0.910000,20.43
2060078,0.616832,-0.553392,0.592432,0.770000,-2.590000,-0.840000,20.45
2060089,0.613416,-0.545584,0.592920,1.190000,-2.450000,-0.630000,20.45
2060100,0.612440,-0.541192,0.584136,1.120000,-2.520000,-0.700000,20.42
2060111,0.613904,-0.546072,0.587064,0.700000,-2.450000,-0.490000,20.42
2060122,0.614880,-0.547048,0.599752,0.910000,-2.450000,-0.140000,20.41
2060133,0.613904,-0.546072,0.598288,1.120000,-2.380000,0.000000,20.41
2060144,0.614880,-0.550952,0.595360,1.820000,-2.450000,0.000000,20.41
2060155,0.614880,-0.553392,0.592432,2.450000,-2.380000,0.280000,20.43
2060166,0.611952,-0.543632,0.588040,2.170000,-2.450000,0.280000,20.43
2060177,0.611952,-0.550952,0.590480,1.820000,-2.520000,0.210000,20.42
2060188,0.610976,-0.549488,0.596824,1.680000,-2.450000,0.420000,20.42
2060199,0.610976,-0.544120,0.594872,0.980000,-2.310000,0.560000,20.35
2060210,0.612928,-0.551928,0.589992,0.560000,-2.520000,0.350000,20.40
2060221,0.616344,-0.558760,0.585112,0.910000,-2.520000,0.630000,20.40
2060232,0.613904,-0.553880,0.585112,1.260000,-2.310000,0.560000,20.38
2060243,0.612928,-0.553880,0.586576,1.190000,-2.450000,0.420000,20.38
2060257,0.612928,-0.559736,0.592432,1.260000,-2.170000,0.210000,20.46
2060268,0.613416,-0.553392,0.588528,1.330000,-1.820000,0.280000,20.45
2060279,0.610000,-0.546072,0.588528,0.490000,-1.820000,0.280000,20.45
2060290,0.614392,-0.559248,0.589992,0.420000,-1.680000,0.140000,20.41
2060301,0.611464,-0.555832,0.595848,0.700000,-1.470000,0.140000,20.38
2060312,0.612440,-0.551928,0.595848,0.700000,-1.330000,0.140000,20.38
2060323,0.609512,-0.556320,0.596824,0.770000,-1.540000,0.000000,20.44
2060334,0.608048,-0.557784,0.594384,1.330000,-1.820000,-0.280000,20.44
2060345,0.613904,-0.552904,0.599752,1.750000,-1.750000,0.070000,20.41
2060355,0.605608,-0.549976,0.596824,1.400000,-2.030000,-0.210000,20.41
2060367,0.612440,-0.556320,0.600728,1.470000,-2.240000,-0.070000,20.41
2060378,0.610976,-0.550464,0.600728,2.030000,-2.170000,-0.070000,20.44
2060389,0.607560,-0.544608,0.601704,1.680000,-2.310000,-0.210000,20.44
2060400,0.608536,-0.548024,0.600728,1.120000,-2.520000,-0.210000,20.40
2060411,0.612928,-0.553392,0.596824,1.050000,-2.380000,0.000000,20.40
2060422,0.609512,-0.552904,0.595360,1.330000,-2.450000,-0.350000,20.45
2060433,0.611464,-0.553880,0.596336,1.540000,-2.520000,-0.350000,20.41
2060444,0.607560,-0.543144,0.604632,0.840000,-2.660000,-0.280000,20.41
2060455,0.610488,-0.558272,0.598288,1.050000,-2.660000,-0.350000,20.40
2060466,0.607560,-0.554368,0.593408,1.610000,-2.590000,-0.350000,20.40
2060478,0.609512,-0.544608,0.600240,0.980000,-2.870000,-0.560000,20.44
2060489,0.614392,-0.555344,0.605120,1.400000,-2.660000,-0.700000,20.43
2060500,0.611464,-0.552904,0.603656,1.470000,-2.660000,-0.490000,20.43
2060511,0.610000,-0.548024,0.601216,1.330000,-2.870000,-0.630000,20.46
2060522,0.611952,-0.549000,0.599264,1.190000,-2.800000,-0.560000,20.46
2060534,0.610000,-0.547048,0.593408,0.980000,-2.940000,-0.490000,20.41
2060545,0.610976,-0.549976,0.588040,0.910000,-3.080000,-0.350000,20.37
2060556,0.610488,-0.550464,0.598776,1.400000,-3.010000,-0.490000,20.37
2060567,0.613416,-0.550952,0.594872,1.470000,-2.940000,-0.350000,20.40
2060579,0.612928,-0.550952,0.586088,1.540000,-2.730000,-0.490000,20.40
2060590,0.614392,-0.549000,0.586576,1.750000,-2.730000,-0.490000,20.44
2060601,0.611464,-0.546560,0.591944,1.540000,-2.590000,-0.490000,20.39
2060612,0.611464,-0.544608,0.589016,1.120000,-2.520000,-0.280000,20.39
2060623,0.611464,-0.549488,0.589992,1.120000,-2.520000,-0.210000,20.43
2060635,0.612928,-0.551928,0.594872,1.330000,-2.520000,-0.140000,20.43
2060646,0.611952,-0.550464,0.593408,1.750000,-2.310000,-0.070000,20.39
2060657,0.613416,-0.552904,0.591944,2.240000,-2.380000,-0.070000,20.45
2060668,0.611464,-0.546560,0.592920,2.310000,-2.310000,-0.070000,20.45
2060679,0.611952,-0.545096,0.596824,1.820000,-2.380000,-0.070000,20.42
2060690,0.611464,-0.544120,0.595360,1.470000,-2.380000,-0.070000,20.42
2060701,0.611952,-0.552416,0.593896,1.470000,-2.380000,-0.070000,20.50
2060712,0.611952,-0.549488,0.596336,1.330000,-2.450000,0.070000,20.41
2060724,0.611952,-0.552904,0.594872,1.470000,-2.380000,-0.070000,20.41
2060735,0.612440,-0.551928,0.598776,1.680000,-2.520000,-0.070000,20.41
2060746,0.610976,-0.553880,0.599752,1.960000,-2.450000,-0.210000,20.41
2060757,0.611952,-0.553392,0.598776,2.030000,-2.380000,-0.350000,20.42
2060768,0.609024,-0.552904,0.599264,1.820000,-2.450000,-0.280000,20.43
2060779,0.610000,-0.547048,0.598776,1.260000,-2.730000,-0.560000,20.43
2060790,0.612440,-0.553392,0.596824,0.980000,-2.590000,-0.490000,20.42
2060801,0.608048,-0.552904,0.598288,1.260000,-2.660000,-0.560000,20.42
2060812,0.606096,-0.550952,0.598776,1.260000,-2.730000,-0.700000,20.43
2060823,0.609512,-0.551928,0.597800,1.470000,-2.660000,-0.700000,20.41
2060834,0.610488,-0.548512,0.591456,1.680000,-2.590000,-0.700000,20.41
2060845,0.609512,-0.550952,0.592432,1.820000,-2.800000,-0.630000,20.39
2060856,0.610976,-0.546560,0.601216,1.820000,-2.870000,-0.700000,20.39
2060867,0.615856,-0.545584,0.591944,1.400000,-2.800000,-0.630000,20.42
2060879,0.612928,-0.542656,0.591456,0.980000,-2.800000,-0.490000,20.37
2060889,0.611952,-0.549976,0.596824,1.190000,-2.870000,-0.770000,20.37
2060900,0.613416,-0.543632,0.597312,1.260000,-2.660000,-0.420000,20.43
2060911,0.612440,-0.541680,0.597800,0.560000,-2.590000,-0.420000,20.43
2060923,0.615856,-0.542168,0.596336,0.560000,-2.660000,-0.420000,20.39
2060934,0.614392,-0.548512,0.590968,1.120000,-2.170000,-0.210000,20.39
2060945,0.611952,-0.542168,0.594872,1.190000,-2.170000,-0.210000,20.39
2060956,0.612440,-0.543144,0.597800,1.050000,-2.240000,-0.070000,20.44
2060967,0.613904,-0.544608,0.594872,1.120000,-2.100000,0.070000,20.44
2060978,0.611464,-0.548024,0.595360,1.400000,-2.100000,0.140000,20.40
2060989,0.612928,-0.546560,0.592920,1.820000,-1.960000,0.210000,20.40
2061000,0.611952,-0.543632,0.586088,1.400000,-2.100000,0.280000,20.39
2061011,0.614880,-0.545584,0.591944,1.190000,-2.030000,0.280000,20.39
2061022,0.612440,-0.543632,0.591944,0.560000,-2.030000,0.140000,20.39
2061033,0.612440,-0.548024,0.594872,0.350000,-1.890000,0.140000,20.43
2061044,0.610976,-0.554368,0.593896,1.120000,-1.680000,-0.070000,20.43
2061055,0.612440,-0.552416,0.595360,1.750000,-1.540000,-0.070000,20.46
2061066,0.610000,-0.550952,0.599264,1.820000,-1.470000,0.070000,20.41
2061077,0.612440,-0.547536,0.598776,1.470000,-1.540000,0.070000,20.41
2061088,0.610488,-0.548512,0.594872,1.050000,-1.680000,0.000000,20.41
2061098,0.610488,-0.549976,0.601704,1.050000,-1.820000,-0.070000,20.41
2061109,0.609024,-0.550464,0.605608,1.120000,-2.030000,-0.070000,20.42
2061120,0.609512,-0.548512,0.604632,0.910000,-2.030000,0.000000,20.42
2061131,0.608536,-0.546560,0.606584,0.630000,-2.170000,0.000000,20.37
2061142,0.610488,-0.549000,0.608536,0.560000,-2.380000,0.000000,20.40
2061153,0.608536,-0.548512,0.603656,0.560000,-2.450000,-0.070000,20.40
2061164,0.610000,-0.549000,0.604632,0.700000,-2.660000,-0.140000,20.41
2061175,0.611952,-0.551440,0.604632,0.700000,-2.660000,-0.350000,20.41
2061186,0.611464,-0.547048,0.603656,0.840000,-2.590000,-0.420000,20.41
2061197,0.609512,-0.547048,0.600728,0.840000,-2.590000,-0.350000,20.41
2061208,0.607072,-0.545584,0.592432,0.910000,-2.590000,-0.350000,20.41
2061219,0.609024,-0.541192,0.593896,0.560000,-2.660000,-0.420000,20.39
2061230,0.610976,-0.547048,0.593408,0.140000,-2.730000,-0.280000,20.39
2061241,0.609024,-0.548024,0.600728,-0.280000,-2.870000,-0.280000,20.40
2061252,0.611952,-0.550952,0.599264,-0.560000,-2.940000,-0.210000,20.40
2061269,0.612928,-0.551928,0.596336,0.350000,-2.660000,-0.280000,20.40
2061281,0.610976,-0.548512,0.596336,0.840000,-2.660000,-0.140000,20.43
2061292,0.612440,-0.544120,0.595360,0.700000,-2.660000,-0.140000,20.40
2061303,0.610000,-0.542168,0.601216,0.490000,-2.730000,-0.140000,20.40
2061313,0.613904,-0.541192,0.589992,-0.560000,-2.590000,0.350000,20.44
2061324,0.608048,-0.550952,0.593896,-0.280000,-2.870000,0.280000,20.44
2061335,0.613416,-0.550952,0.591456,0.070000,-2.450000,0.420000,20.42
2061346,0.610976,-0.555832,0.589504,0.280000,-2.380000,0.700000,20.39
2061357,0.611952,-0.549976,0.595360,0.280000,-2.100000,1.190000,20.39
2061368,0.609512,-0.544608,0.594384,0.210000,-2.030000,1.120000,20.41
2061379,0.612928,-0.569008,0.589504,0.700000,-1.400000,1.960000,20.41
2061390,0.612440,-0.540216,0.595848,1.190000,-1.260000,1.960000,20.43
2061402,0.605120,-0.536800,0.603656,0.420000,-1.750000,1.400000,20.43
2061413,0.614880,-0.553880,0.603656,1.470000,-1.540000,1.050000,20.43
2061423,0.604632,-0.552416,0.593408,1.470000,-1.890000,0.630000,20.41
2061435,0.609024,-0.551440,0.594872,1.610000,-1.890000,0.350000,20.41
2061446,0.604632,-0.554368,0.599264,1.680000,-1.890000,0.280000,20.45
2061457,0.611952,-0.553880,0.600240,1.890000,-1.750000,0.490000,20.45
2061468,0.605608,-0.547536,0.596336,1.330000,-1.960000,0.420000,20.43
2061479,0.604632,-0.551440,0.591944,1.540000,-1.960000,0.280000,20.43
2061489,0.602680,-0.546560,0.592432,1.190000,-2.170000,0.000000,20.43
2061500,0.610000,-0.559248,0.596336,1.610000,-2.240000,-0.140000,20.44
2061511,0.610976,-0.549000,0.609512,2.240000,-2.450000,0.210000,20.44
2061522,0.609024,-0.543632,0.607072,1.680000,-2.660000,0.000000,20.37
2061533,0.609024,-0.547536,0.602192,1.540000,-2.590000,-0.210000,20.38
2061545,0.610488,-0.549976,0.606584,1.610000,-2.940000,-0.280000,20.38
2061556,0.607560,-0.546560,0.615856,1.120000,-3.080000,-0.140000,20.43
2061567,0.606584,-0.548024,0.606584,0.700000,-2.940000,-0.140000,20.43
2061578,0.604144,-0.552416,0.596336,0.980000,-2.730000,-0.210000,20.44
2061589,0.609024,-0.562664,0.596824,2.100000,-2.590000,-0.210000,20.37
2061600,0.607072,-0.544120,0.597312,2.380000,-2.450000,-0.210000,20.37
2061611,0.607072,-0.546560,0.589992,1.260000,-2.240000,-0.490000,20.41
2061622,0.605608,-0.553880,0.593408,1.470000,-2.310000,-0.350000,20.41
2061633,0.608048,-0.548512,0.594384,1.470000,-2.520000,-0.420000,20.41
2061644,0.606584,-0.549976,0.599264,1.260000,-2.660000,-0.490000,20.37
2061655,0.611464,-0.556320,0.602680,1.190000,-2.730000,-0.490000,20.37
2061666,0.608536,-0.549488,0.604144,1.120000,-2.730000,-0.700000,20.39
2061677,0.608536,-0.557784,0.600728,1.540000,-2.660000,-1.050000,20.39
2061688,0.609024,-0.553880,0.599752,2.380000,-2.240000,-0.980000,20.40
2061699,0.606096,-0.552416,0.589504,2.730000,-2.170000,-1.190000,20.39
2061711,0.608048,-0.550952,0.586088,3.010000,-1.890000,-1.050000,20.39
2061722,0.607072,-0.540704,0.596336,1.960000,-2.030000,-0.700000,20.40
2061733,0.607560,-0.536800,0.595360,0.770000,-2.240000,-0.490000,20.40
2061744,0.608536,-0.549488,0.591944,1.120000,-2.310000,-0.350000,20.43
2061755,0.607072,-0.551440,0.594872,1.820000,-2.310000,-0.490000,20.43
2061766,0.609512,-0.543632,0.609512,1.750000,-2.590000,-0.490000,20.39
2061777,0.612440,-0.544120,0.606584,1.470000,-2.380000,-0.280000,20.39
2061788,0.608048,-0.539240,0.609512,1.050000,-2.520000,-0.210000,20.39
2061799,0.608536,-0.546560,0.608048,1.190000,-2.800000,-0.350000,20.46
2061810,0.610976,-0.546072,0.611464,1.750000,-2.590000,-0.070000,20.46
2061821,0.607072,-0.541192,0.607072,1.820000,-2.590000,0.140000,20.43
2061832,0.610488,-0.539240,0.599752,1.610000,-2.660000,0.070000,20.39
2061843,0.608536,-0.552904,0.594384,2.100000,-2.520000,0.070000,20.39
2061854,0.610976,-0.544120,0.592432,1.890000,-2.520000,0.070000,20.45
2061865,0.609024,-0.545096,0.588040,1.330000,-2.380000,-0.140000,20.45
2061876,0.609512,-0.552416,0.592432,1.540000,-2.240000,-0.140000,20.41
2061887,0.607560,-0.548024,0.599752,1.750000,-2.240000,-0.140000,20.38
2061898,0.608048,-0.546072,0.604144,1.400000,-2.170000,-0.070000,20.38
2061909,0.606096,-0.549976,0.598776,1.050000,-2.310000,0.000000,20.37
2061920,0.606584,-0.550952,0.604144,1.120000,-2.380000,0.070000,20.37
2061931,0.608048,-0.549488,0.610000,1.260000,-2.450000,0.000000,20.41
2061942,0.608536,-0.550952,0.609512,1.470000,-2.380000,-0.210000,20.42
2061953,0.608048,-0.544120,0.602680,0.980000,-2.450000,-0.070000,20.42
2061964,0.607072,-0.551928,0.607560,1.050000,-2.660000,-0.210000,20.41
2061975,0.610488,-0.549976,0.608048,1.330000,-2.660000,-0.140000,20.41
2061986,0.609024,-0.548024,0.607072,0.840000,-2.800000,-0.280000,20.42
2061997,0.605120,-0.549976,0.607072,0.770000,-3.010000,-0.350000,20.42
2062008,0.607072,-0.550464,0.604632,1.190000,-3.010000,-0.350000,20.44
2062019,0.607560,-0.549976,0.602680,1.400000,-3.080000,-0.630000,20.40
2062030,0.608048,-0.551440,0.606096,1.120000,-3.290000,-0.770000,20.40
2062041,0.610488,-0.551440,0.606584,1.260000,-3.080000,-0.700000,20.43
2062054,0.610488,-0.550952,0.603656,1.190000,-3.010000,-0.770000,20.42
2062065,0.607072,-0.550952,0.591944,1.050000,-3.010000,-0.980000,20.42
2062076,0.607560,-0.551928,0.593408,1.400000,-2.940000,-1.050000,20.41
2062087,0.607560,-0.551440,0.598776,1.400000,-2.870000,-0.910000,20.41
2062098,0.607072,-0.546560,0.598288,1.120000,-2.940000,-0.910000,20.40
2062110,0.608536,-0.541192,0.593896,0.770000,-2.800000,-0.630000,20.40
2062121,0.613416,-0.542656,0.598288,0.840000,-2.800000,-0.630000,20.41
2062132,0.609024,-0.547536,0.596824,0.560000,-2.660000,-0.770000,20.44
2062144,0.612928,-0.543144,0.590968,0.980000,-2.380000,-0.350000,20.44
2062155,0.609024,-0.544608,0.590968,1.260000,-2.450000,-0.700000,20.42
2062166,0.612928,-0.547536,0.595360,1.890000,-2.100000,-0.490000,20.42
2062177,0.612928,-0.533872,0.596336,1.680000,-1.750000,0.000000,20.43
2062188,0.611464,-0.537288,0.590480,1.400000,-1.960000,-0.070000,20.42
2062199,0.611464,-0.537288,0.600240,0.910000,-1.750000,0.210000,20.42
2062210,0.608048,-0.533384,0.600728,-0.070000,-1.820000,0.420000,20.43
2062221,0.610976,-0.545584,0.607560,-0.070000,-1.960000,0.350000,20.43
2062232,0.610976,-0.547048,0.608048,0.700000,-1.890000,0.280000,20.39
2062243,0.611464,-0.551440,0.613904,1.470000,-2.030000,0.280000,20.46
2062255,0.606584,-0.546560,0.612440,1.750000,-2.240000,0.070000,20.46
2062266,0.606584,-0.544608,0.609024,1.470000,-2.590000,0.280000,20.44
2062281,0.609512,-0.548024,0.608048,1.330000,-2.800000,0.280000,20.39
2062292,0.608536,-0.546560,0.603168,1.120000,-2.730000,0.280000,20.39
2062304,0.610488,-0.555344,0.595848,1.120000,-3.010000,0.000000,20.45
2062315,0.610488,-0.548024,0.596336,0.910000,-2.730000,-0.280000,20.45
2062326,0.610000,-0.553880,0.589992,0.700000,-2.310000,-0.280000,20.45
2062337,0.607560,-0.554856,0.596336,1.190000,-2.240000,-0.490000,20.43
2062348,0.607560,-0.547048,0.596336,1.470000,-2.030000,-0.490000,20.43
2062359,0.608048,-0.548024,0.596336,1.400000,-1.750000,-0.560000,20.46
2062370,0.608536,-0.542656,0.597312,1.400000,-1.750000,-0.420000,20.46
2062381,0.609512,-0.545096,0.600728,1.330000,-1.680000,-0.210000,20.41
2062392,0.608048,-0.542168,0.600240,1.120000,-1.890000,-0.210000,20.41
2062403,0.611464,-0.536800,0.602192,0.490000,-2.100000,0.070000,20.41
2062415,0.609512,-0.545584,0.609024,0.070000,-2.100000,0.140000,20.43
2062425,0.609512,-0.547048,0.606584,0.350000,-2.170000,0.070000,20.43
2062436,0.608048,-0.547536,0.609024,0.980000,-2.240000,0.140000,20.41
2062447,0.608536,-0.546072,0.609512,1.330000,-2.100000,0.070000,20.37
2062458,0.606584,-0.547536,0.611952,1.260000,-2.100000,0.000000,20.37
2062469,0.606096,-0.544120,0.610976,1.050000,-2.170000,0.140000,20.46
2062480,0.606584,-0.548024,0.608536,1.400000,-2.310000,0.210000,20.46
2062491,0.605608,-0.548512,0.606584,1.680000,-2.450000,-0.070000,20.48
2062502,0.607560,-0.551440,0.611464,2.030000,-2.730000,0.000000,20.39
2062513,0.604632,-0.541680,0.605608,1.470000,-2.870000,-0.140000,20.39
2062524,0.609512,-0.550464,0.605120,1.540000,-2.870000,-0.070000,20.44
2062535,0.607560,-0.548024,0.602680,1.960000,-2.870000,-0.210000,20.44
2062546,0.610000,-0.544120,0.604144,2.240000,-3.010000,-0.070000,20.43
2062557,0.608048,-0.552416,0.601704,2.380000,-2.870000,-0.350000,20.43
2062569,0.605608,-0.549488,0.595360,2.590000,-2.870000,-0.490000,20.42
2062580,0.608536,-0.549488,0.603656,2.730000,-2.940000,-0.560000,20.43
2062591,0.608536,-0.544120,0.604632,2.520000,-2.590000,-0.490000,20.43
2062602,0.606096,-0.547536,0.601216,2.380000,-2.520000,-0.420000,20.43
2062613,0.606584,-0.545096,0.598288,2.310000,-2.450000,-0.490000,20.43
2062624,0.609024,-0.543144,0.597800,2.100000,-2.450000,-0.350000,20.37
2062635,0.609512,-0.544120,0.601704,1.750000,-2.590000,-0.490000,20.43
2062646,0.608048,-0.551440,0.604144,1.960000,-2.450000,-0.560000,20.43
2062657,0.609024,-0.543144,0.608536,1.680000,-2.450000,-0.420000,20.43
2062668,0.607560,-0.543632,0.608048,0.980000,-2.590000,-0.630000,20.43
2062679,0.609512,-0.551440,0.606584,1.330000,-2.450000,-0.420000,20.39
2062690,0.606584,-0.547536,0.605120,1.960000,-2.520000,-0.420000,20.44
2062701,0.609512,-0.541680,0.608048,2.450000,-2.520000,-0.280000,20.44
2062712,0.607560,-0.543144,0.601216,2.520000,-2.660000,-0.630000,20.48
2062723,0.609512,-0.542656,0.600240,2.310000,-2.450000,-0.350000,20.48
2062735,0.607072,-0.536312,0.598776,2.240000,-2.520000,-0.560000,20.44
2062746,0.610488,-0.546072,0.601704,1.890000,-2.590000,-0.560000,20.41
2062757,0.607560,-0.547048,0.610000,2.310000,-2.450000,-0.490000,20.41
2062768,0.609024,-0.537776,0.600728,2.030000,-2.310000,-0.280000,20.44
2062779,0.605608,-0.546072,0.597800,2.170000,-2.450000,-0.420000,20.44
2062790,0.611464,-0.544608,0.606096,2.170000,-2.520000,-0.350000,20.44
2062801,0.610000,-0.538264,0.606584,1.750000,-2.590000,-0.350000,20.44
2062812,0.608048,-0.545584,0.604632,1.820000,-2.240000,-0.280000,20.44
2062824,0.605608,-0.542168,0.604144,1.750000,-2.450000,-0.280000,20.45
2062834,0.609024,-0.540704,0.605608,1.260000,-2.450000,-0.210000,20.45
2062845,0.605608,-0.543144,0.601216,1.470000,-2.450000,0.000000,20.39
2062856,0.606096,-0.547048,0.605120,1.820000,-2.520000,-0.350000,20.39
2062867,0.613904,-0.541680,0.607072,2.030000,-2.310000,-0.070000,20.45
2062879,0.611952,-0.539240,0.603168,1.540000,-2.240000,-0.280000,20.46
2062890,0.612440,-0.540216,0.599752,0.770000,-2.170000,-0.280000,20.46
2062901,0.606096,-0.547048,0.599752,0.910000,-2.100000,-0.560000,20.42
2062912,0.609512,-0.540704,0.602192,1.260000,-1.960000,-0.280000,20.42
2062923,0.607072,-0.539728,0.602680,1.400000,-2.170000,-0.280000,20.39
2062934,0.610000,-0.541192,0.600728,1.610000,-1.890000,-0.140000,20.40
2062945,0.609024,-0.538752,0.602680,1.260000,-1.820000,0.000000,20.40
2062956,0.609512,-0.538752,0.608048,0.700000,-1.750000,-0.070000,20.44
2062967,0.608536,-0.543144,0.606584,0.280000,-1.820000,-0.420000,20.44
2062978,0.608536,-0.546560,0.614392,1.120000,-1.540000,-0.350000,20.45
2062989,0.605120,-0.545096,0.615368,2.030000,-1.540000,-0.420000,20.41
2063001,0.603656,-0.537288,0.614880,1.820000,-1.680000,-0.420000,20.41
2063012,0.601216,-0.538752,0.614392,1.330000,-2.030000,-0.140000,20.46
2063023,0.603656,-0.543632,0.619760,0.910000,-2.380000,0.070000,20.46
2063034,0.606096,-0.538752,0.620248,0.350000,-2.590000,0.070000,20.41
2063045,0.607560,-0.540216,0.620248,-0.350000,-3.010000,0.070000,20.43
2063056,0.607560,-0.553880,0.616344,-0.070000,-3.220000,-0.420000,20.43
2063067,0.608536,-0.547536,0.618784,0.840000,-3.080000,-0.280000,20.43
2063078,0.609024,-0.544120,0.613416,0.910000,-3.290000,-0.560000,20.43
2063089,0.605120,-0.542656,0.605120,0.700000,-3.360000,-0.560000,20.44
2063100,0.605608,-0.547048,0.605608,0.770000,-3.430000,-0.490000,20.39
2063112,0.608536,-0.539728,0.610976,0.910000,-3.500000,-0.490000,20.39
2063125,0.611464,-0.538752,0.604144,0.560000,-3.430000,-0.420000,20.41
2063136,0.610488,-0.540216,0.599264,0.490000,-3.150000,-0.490000,20.44
2063147,0.610976,-0.538264,0.602192,0.770000,-3.010000,-0.490000,20.44
2063158,0.609512,-0.539240,0.602192,0.770000,-2.730000,-0.420000,20.45
2063169,0.609024,-0.535824,0.600728,0.840000,-2.450000,-0.350000,20.45
2063181,0.613904,-0.531432,0.598776,0.770000,-2.310000,0.070000,20.41
2063192,0.607560,-0.540704,0.603656,0.770000,-2.380000,-0.070000,20.41
2063203,0.607072,-0.537288,0.603656,0.560000,-2.240000,0.140000,20.40
2063214,0.605120,-0.541680,0.604144,0.350000,-2.450000,0.140000,20.37
2063225,0.607072,-0.532408,0.605608,-0.420000,-2.520000,0.280000,20.37
2063236,0.610976,-0.548024,0.609024,0.000000,-2.590000,0.140000,20.40
2063247,0.610000,-0.544120,0.610000,0.490000,-2.520000,0.140000,20.40
2063258,0.610976,-0.542168,0.610488,0.630000,-2.590000,0.140000,20.41
2063269,0.607560,-0.549976,0.608048,1.190000,-2.800000,0.000000,20.46
2063280,0.608536,-0.546072,0.609512,1.120000,-2.730000,0.070000,20.46
2063295,0.606584,-0.546072,0.601704,0.350000,-2.730000,-0.140000,20.41
2063306,0.607072,-0.547536,0.606096,0.350000,-2.730000,-0.070000,20.42
2063317,0.609024,-0.547048,0.608536,0.350000,-2.730000,-0.070000,20.42
2063328,0.610000,-0.544608,0.607072,0.420000,-2.520000,-0.140000,20.42
2063339,0.606096,-0.545096,0.599752,0.350000,-2.520000,-0.350000,20.42
2063350,0.608048,-0.547536,0.598776,0.630000,-2.590000,-0.420000,20.43
2063361,0.608048,-0.544608,0.600728,0.700000,-2.590000,-0.560000,20.41
2063372,0.608536,-0.540216,0.597800,0.070000,-2.520000,-0.630000,20.41
2063383,0.610000,-0.543632,0.601216,0.210000,-2.310000,-0.630000,20.40
2063393,0.607560,-0.545584,0.604632,0.630000,-2.380000,-0.420000,20.40
2063405,0.608536,-0.545096,0.597800,1.120000,-2.310000,-0.420000,20.40
2063416,0.607072,-0.546072,0.601216,1.190000,-2.380000,-0.560000,20.40
