timestamp_ms,ax,ay,az,gx,gy,gz,tempC
5758079,0.303048,0.052216,1.011624,-7.420000,-51.660000,41.090000,21.37
5758090,0.305976,0.104920,0.980392,2.730000,-48.509998,42.139999,21.37
5758101,0.286456,0.231312,0.917928,5.250000,-45.779999,47.599998,21.37
5758113,0.295728,0.312320,0.846680,5.320000,-42.419998,52.990002,21.34
5758123,0.293288,0.317200,0.790560,6.510000,-35.279999,52.009998,21.34
5758134,0.309880,0.179096,0.814960,3.150000,-33.040001,48.580002,21.32
5758145,0.303536,0.239120,0.823256,5.040000,-27.510000,56.770000,21.32
5758156,0.316224,0.222528,0.844728,2.520000,-26.180000,56.349998,21.37
5758167,0.320616,0.199104,0.881816,-5.740000,-23.940001,57.820000,21.36
5758178,0.341112,0.179096,0.870592,-11.970000,-22.190001,61.669998,21.36
5758189,0.345016,0.161528,0.849608,-17.920000,-21.700001,64.959999,21.34
5758200,0.360144,0.141520,0.813008,-18.969999,-18.690001,65.870003,21.34
5758211,0.359168,0.100040,0.794464,-15.400000,-15.400000,64.820000,21.33
5758222,0.372344,0.079544,0.787632,-13.720000,-13.020000,63.560001,21.35
5758233,0.363072,0.079056,0.803736,-13.020000,-10.570000,63.139999,21.35
5758244,0.364048,0.056120,0.821304,-11.760000,-8.050000,61.320000,21.40
5758256,0.349896,0.068808,0.814472,-11.620000,-6.930000,60.900002,21.40
5758268,0.371368,0.038064,0.786656,-14.000000,-4.060000,58.450001,21.36
5758278,0.353312,0.020496,0.762256,-15.400000,-2.310000,57.470001,21.39
5758289,0.348432,0.002928,0.791536,-18.200001,-1.050000,56.770000,21.39
5758300,0.327936,0.036600,0.828136,-22.610001,-1.120000,56.000000,21.35
5758311,0.340136,0.021472,0.868152,-29.959999,-2.520000,56.980000,21.35
5758322,0.349408,-0.015616,0.888648,-33.389999,-2.100000,55.439999,21.36
5758333,0.351848,-0.052216,0.880352,-35.560001,-2.730000,54.040001,21.33
5758344,0.352336,-0.135176,0.863272,-29.469999,-2.310000,49.770000,21.33
5758355,0.345504,-0.152744,0.852536,-16.450001,-1.750000,44.520000,21.37
5758366,0.347456,-0.136152,0.855464,-5.950000,-1.470000,42.560001,21.37
5758378,0.357704,-0.106872,0.853024,-1.050000,-1.470000,40.810001,21.37
5758389,0.359168,-0.111264,0.848632,2.310000,-1.400000,37.939999,21.37
5758400,0.354288,-0.127368,0.835456,6.790000,-0.420000,35.139999,21.36
5758411,0.356728,-0.131272,0.821304,12.740000,0.700000,33.180000,21.40
5758422,0.364536,-0.115656,0.811056,16.450001,3.080000,31.360001,21.40
5758432,0.368928,-0.091744,0.786168,17.360001,6.020000,30.940001,21.38
5758444,0.357704,-0.067344,0.731512,12.320000,8.540000,31.500000,21.38
5758455,0.337208,-0.079544,0.700280,8.190000,12.740000,31.709999,21.39
5758465,0.335256,-0.089792,0.671000,7.210000,18.340000,31.150000,21.34
5758476,0.325496,-0.093696,0.654408,8.260000,23.309999,31.219999,21.34
5758487,0.326472,-0.067832,0.666120,6.930000,28.070000,31.360001,21.34
5758499,0.324520,-0.063440,0.701744,2.380000,33.040001,31.430000,21.34
5758510,0.312808,-0.109800,0.736392,4.690000,37.310001,30.100000,21.34
5758521,0.304024,-0.080520,0.777384,7.000000,40.320000,31.219999,21.34
5758532,0.293776,-0.063928,0.776408,7.490000,42.910000,31.219999,21.34
5758543,0.282552,-0.059048,0.775432,5.880000,46.900002,31.290001,21.41
5758554,0.281088,-0.071736,0.793000,1.190000,49.910000,31.850000,21.41
5758564,0.252784,-0.079544,0.820328,-5.670000,52.220001,31.850000,21.37
5758575,0.223992,-0.090768,0.837896,-12.740000,53.619999,32.410000,21.37
5758586,0.208864,-0.107848,0.849120,-17.010000,54.529999,32.900002,21.34
5758597,0.196664,-0.123464,0.885720,-21.350000,55.020000,32.410000,21.36
5758608,0.203984,-0.157136,0.945744,-24.570000,55.580002,31.570000,21.36
5758619,0.183000,-0.157136,1.039440,-30.520000,52.990002,31.709999,21.35
5758630,0.179584,-0.198128,1.118984,-35.910000,50.119999,31.150000,21.35
5758641,0.152256,-0.225456,1.142408,-35.980000,47.110001,29.820000,21.37
5758652,0.134688,-0.264984,1.152656,-34.509998,42.630001,27.860001,21.37
5758663,0.127368,-0.296216,1.162416,-29.120001,39.830002,24.010000,21.37
5758674,0.126880,-0.309392,1.185352,-26.250000,35.419998,22.330000,21.36
5758685,0.123952,-0.341112,1.185352,-21.139999,32.340000,18.969999,21.36
5758696,0.113704,-0.340136,1.199016,-18.340000,28.350000,16.730000,21.39
5758707,0.104920,-0.346480,1.260016,-11.410000,23.100000,13.230000,21.38
5758718,0.101504,-0.343552,1.320040,-4.340000,16.590000,9.310000,21.38
5758729,0.102480,-0.322568,1.377136,-1.470000,10.570000,6.300000,21.36
5758740,0.095648,-0.313784,1.428376,0.630000,2.310000,4.130000,21.36
5758751,0.062464,-0.275720,1.441064,0.840000,-6.650000,0.350000,21.39
5758762,0.082960,-0.275720,1.427888,0.700000,-14.490000,-3.150000,21.39
5758773,0.081008,-0.286944,1.402512,1.190000,-20.860001,-5.530000,21.41
5758784,0.101016,-0.302560,1.384456,2.100000,-28.280001,-7.770000,21.39
5758795,0.107360,-0.316224,1.375672,5.110000,-34.580002,-10.570000,21.39
5758806,0.113216,-0.285480,1.366888,9.730000,-40.040001,-12.670000,21.37
5758817,0.126880,-0.284504,1.346392,13.650000,-45.919998,-13.580000,21.37
5758828,0.141520,-0.252784,1.323944,15.890000,-50.330002,-14.140000,21.35
5758838,0.142496,-0.208376,1.313208,14.910000,-55.090000,-13.930000,21.35
5758850,0.144936,-0.190808,1.300520,13.650000,-58.660000,-14.210000,21.35
5758861,0.148840,-0.164944,1.288320,12.740000,-63.349998,-14.000000,21.35
5758872,0.168848,-0.145912,1.274168,9.870000,-67.970001,-13.230000,21.35
5758883,0.187880,-0.147864,1.262456,8.120000,-72.169998,-13.020000,21.37
5758894,0.196664,-0.135176,1.245376,3.920000,-76.300003,-11.620000,21.36
5758905,0.199592,-0.143472,1.217072,1.540000,-79.730003,-11.410000,21.36
5758916,0.185440,-0.134688,1.184864,1.050000,-84.559998,-11.550000,21.36
5758927,0.202520,-0.135176,1.167784,2.520000,-89.459999,-11.200000,21.36
5758938,0.234728,-0.122000,1.162416,3.220000,-93.309998,-10.360000,21.41
5758949,0.263520,-0.113216,1.154120,2.170000,-97.300003,-9.590000,21.34
5758960,0.288896,-0.122488,1.112640,4.130000,-99.750000,-10.080000,21.34
5758971,0.296216,-0.120536,1.046272,8.260000,-101.430000,-9.800000,21.36
5758982,0.313784,-0.082960,0.996496,9.660000,-102.690002,-7.910000,21.36
5758993,0.329888,-0.056608,0.964288,8.820000,-103.599998,-7.350000,21.37
5759004,0.345504,-0.054168,0.905240,8.470000,-103.809998,-5.600000,21.37
5759016,0.372832,-0.062464,0.841312,7.910000,-102.480003,-4.550000,21.36
5759027,0.402600,-0.073200,0.778360,7.840000,-100.660004,-2.940000,21.36
5759038,0.419192,-0.061976,0.733952,8.260000,-96.949997,-1.330000,21.36
5759049,0.433344,-0.065392,0.687592,9.870000,-93.099998,-0.490000,21.43
5759060,0.442128,-0.046848,0.654408,11.130000,-89.949997,1.540000,21.43
5759071,0.456768,-0.039040,0.616344,10.150000,-85.330002,2.450000,21.38
5759082,0.467504,-0.044896,0.582672,8.120000,-80.989998,3.850000,21.43
5759092,0.486048,-0.057584,0.539728,8.330000,-76.720001,4.830000,21.43
5759103,0.499224,-0.048800,0.380152,7.630000,-70.629997,5.670000,21.36
5759114,0.512888,-0.064416,0.466040,6.650000,-63.770000,6.300000,21.36
5759125,0.523624,-0.076616,0.432368,5.530000,-57.750000,6.230000,21.38
5759136,0.528016,-0.090768,0.408456,5.320000,-49.980000,6.300000,21.40
5759147,0.538264,-0.114192,0.377224,7.280000,-41.299999,5.390000,21.40
5759158,0.545096,-0.112240,0.337208,9.450000,-31.709999,5.250000,21.44
5759169,0.550952,-0.115656,0.304512,10.220000,-24.430000,4.830000,21.44
5759180,0.556808,-0.131272,0.296216,13.020000,-14.770000,3.850000,21.38
5759191,0.550952,-0.140544,0.296216,17.570000,-4.620000,2.450000,21.38
5759202,0.538264,-0.119072,0.308416,21.280001,2.590000,2.170000,21.36
5759213,0.543144,-0.087352,0.321104,21.770000,11.410000,2.590000,21.35
5759223,0.541192,-0.077592,0.345504,20.930000,19.740000,3.500000,21.35
5759234,0.532896,-0.049288,0.388936,17.639999,25.830000,5.250000,21.36
5759245,0.517768,-0.017080,0.421632,13.790000,32.619999,6.370000,21.36
5759256,0.516304,-0.002928,0.467504,9.030000,38.570000,8.120000,21.36
5759267,0.514352,-0.016592,0.477264,5.040000,44.590000,8.680000,21.36
5759278,0.479216,-0.008296,0.483608,1.400000,50.470001,9.660000,21.36
5759289,0.471896,0.002928,0.522160,-5.670000,54.599998,11.830000,21.39
5759300,0.478240,-0.031232,0.560712,-13.300000,57.889999,13.370000,21.39
5759311,0.476776,-0.068808,0.591944,-16.450001,61.389999,14.140000,21.38
5759322,0.479704,-0.120048,0.619272,-13.020000,66.220001,13.930000,21.38
5759333,0.470432,-0.112728,0.626104,-8.610000,69.089996,14.350000,21.36
5759344,0.463600,-0.096136,0.650992,-7.490000,72.309998,14.420000,21.40
5759355,0.447984,-0.075152,0.675392,-10.640000,74.830002,15.820000,21.40
5759366,0.457256,-0.117120,0.694912,-12.460000,72.730003,14.980000,21.36
5759377,0.451888,-0.105408,0.732000,-15.890000,81.970001,20.790001,21.36
5759388,0.428464,-0.066856,0.767136,-21.070000,83.370003,18.760000,21.38
5759398,0.476288,-0.085400,0.828624,-28.209999,79.940002,19.110001,21.40
5759409,0.397232,-0.133712,0.864736,-33.180000,80.779999,20.230000,21.40
5759420,0.397232,-0.180560,0.883768,-32.130001,80.709999,20.020000,21.38
5759431,0.359656,-0.189832,0.934032,-34.020000,79.589996,21.350000,21.38
5759442,0.345016,-0.192272,0.958432,-35.419998,80.080002,22.400000,21.36
5759453,0.289872,-0.142984,0.981856,-41.160000,76.300003,23.520000,21.34
5759464,0.304024,-0.231312,0.984296,-42.279999,75.320000,23.240000,21.34
5759475,0.294752,-0.305976,0.963800,-31.360001,76.860001,21.910000,21.40
5759486,0.274256,-0.301584,0.972584,-23.240000,76.230003,23.799999,21.40
5759497,0.286456,-0.303048,1.035048,-18.480000,75.459999,25.690001,21.39
5759508,0.250832,-0.246440,1.147288,-15.120000,73.709999,24.080000,21.39
5759519,0.239608,-0.271328,1.206336,-14.910000,68.599998,24.430000,21.36
5759530,0.247416,-0.389424,1.217072,0.140000,68.529999,18.690001,21.36
5759541,0.226432,-0.374296,1.192672,10.920000,65.870003,17.570000,21.36
5759551,0.178608,-0.314272,1.255136,16.799999,61.459999,15.540000,21.37
5759562,0.136640,-0.245464,1.341512,12.180000,55.230000,15.540000,21.37
5759573,0.117120,-0.247904,1.421056,2.590000,44.590000,16.660000,21.37
5759584,0.109800,-0.268888,1.470344,-2.870000,37.380001,14.350000,21.39
5759595,0.118584,-0.324520,1.490840,-5.530000,28.420000,12.250000,21.39
5759606,0.111752,-0.382592,1.517192,-0.980000,20.790001,8.050000,21.39
5759617,0.117608,-0.360632,1.550864,1.750000,12.460000,6.790000,21.39
5759628,0.092720,-0.327448,1.552328,2.590000,2.170000,3.640000,21.39
5759639,0.089304,-0.327936,1.539152,0.070000,-8.820000,1.330000,21.39
5759650,0.110288,-0.367952,1.507432,-2.380000,-16.170000,-1.540000,21.39
5759661,0.122488,-0.401136,1.487912,0.910000,-24.990000,-4.760000,21.31
5759672,0.135664,-0.407968,1.469368,6.860000,-33.599998,-9.380000,21.31
5759683,0.144448,-0.417728,1.424960,13.930000,-39.130001,-13.160000,21.35
5759694,0.134200,-0.399184,1.396656,25.480000,-45.360001,-16.730000,21.35
5759705,0.150792,-0.331352,1.367376,31.920000,-52.080002,-18.969999,21.41
5759716,0.154696,-0.297680,1.350296,53.549999,-57.330002,-20.510000,21.37
5759727,0.154208,-0.200568,1.348344,34.230000,-63.980000,-19.530001,21.37
5759738,0.155184,-0.166408,1.340536,25.270000,-69.790001,-18.620001,21.39
5759749,0.172752,-0.168360,1.332240,17.990000,-76.230003,-18.340000,21.39
5759760,0.190808,-0.195688,1.316624,14.700000,-82.949997,-19.110001,21.37
5759771,0.206424,-0.210816,1.307352,12.670000,-88.059998,-18.270000,21.38
5759782,0.210816,-0.219112,1.287832,13.020000,-93.800003,-19.180000,21.38
5759793,0.188856,-0.219112,1.252208,12.530000,-101.010002,-18.969999,21.42
5759805,0.213256,-0.246928,1.218536,14.420000,-108.360001,-20.510000,21.42
5759816,0.369416,-0.281088,1.179984,20.020000,-113.610001,-23.520000,21.37
5759827,0.264496,-0.252296,1.137040,30.309999,-117.879997,-25.760000,21.35
5759838,0.281576,-0.204472,0.999912,34.160000,-124.599998,-25.900000,21.35
5759849,0.294264,-0.175192,1.068720,37.029999,-129.360001,-26.809999,21.40
5759860,0.314272,-0.166896,0.984784,38.709999,-133.490005,-27.020000,21.40
5759871,0.352336,-0.166408,0.875472,44.380001,-135.100006,-35.630001,21.38
5759882,0.424560,-0.131272,0.833992,45.849998,-133.699997,-25.340000,21.43
5759893,0.385520,-0.016104,0.715896,42.279999,-133.979996,-24.219999,21.43
5759904,0.420168,0.023424,0.610000,32.340000,-131.669998,-20.650000,21.34
5759915,0.456768,0.035136,0.521672,19.670000,-127.260002,-18.059999,21.34
5759926,0.487512,0.019520,0.482632,10.220000,-120.470001,-16.030001,21.38
5759937,0.509960,-0.007320,0.437736,7.280000,-112.699997,-15.050000,21.38
5759948,0.530456,-0.016104,0.416752,4.130000,-105.980003,-13.510000,21.37
5759959,0.535336,-0.040992,0.372832,7.630000,-97.720001,-13.090000,21.37
5759970,0.544608,-0.006832,0.334280,9.800000,-90.230003,-11.200000,21.37
5759984,0.593896,0.020008,0.295728,8.330000,-78.120003,-8.750000,21.40
5759995,0.610000,0.030744,0.263032,6.650000,-68.949997,-6.300000,21.38
5760006,0.619760,0.043432,0.237656,5.110000,-57.470001,-3.920000,21.38
5760017,0.617808,0.053192,0.221552,2.310000,-45.709999,-1.190000,21.41
5760029,0.624152,0.025864,0.200080,1.190000,-34.230000,0.980000,21.41
5760040,0.635864,0.012200,0.196664,1.050000,-25.059999,3.920000,21.39
5760051,0.643672,0.002440,0.200080,1.470000,-13.300000,5.600000,21.37
5760062,0.636840,-0.008784,0.194712,3.570000,-1.120000,6.300000,21.37
5760074,0.607072,-0.017568,0.170800,3.570000,9.800000,5.740000,21.40
5760085,0.622688,-0.041480,0.204472,4.760000,22.959999,8.820000,21.40
5760096,0.610000,-0.052704,0.240096,5.950000,31.780001,9.100000,21.41
5760107,0.613416,-0.064904,0.307928,8.610000,38.570000,9.660000,21.36
5760117,0.602192,-0.052704,0.351360,11.200000,45.570000,9.800000,21.36
5760128,0.593408,-0.046360,0.406016,10.850000,50.750000,10.010000,21.40
5760139,0.592920,-0.028792,0.463112,7.420000,55.090000,11.130000,21.40
5760150,0.575352,-0.014152,0.490440,1.750000,58.869999,11.130000,21.37
5760161,0.569984,-0.037088,0.514352,-1.960000,63.630001,11.480000,21.37
5760172,0.552904,-0.051240,0.524600,-5.810000,66.709999,10.920000,21.40
5760183,0.551440,-0.051728,0.516304,-11.200000,70.839996,12.390000,21.41
5760194,0.542168,-0.048312,0.515816,-17.639999,74.129997,14.350000,21.41
5760205,0.545584,-0.066368,0.549976,-27.440001,77.419998,14.980000,21.43
5760216,0.542656,-0.111752,0.617320,-31.219999,80.430000,15.330000,21.43
5760227,0.522160,-0.111752,0.668560,-32.340000,83.720001,15.680000,21.38
5760238,0.493856,-0.104920,0.706624,-32.619999,84.839996,15.890000,21.38
5760249,0.472872,-0.108336,0.709552,-34.160000,85.120003,16.030001,21.38
5760260,0.464088,-0.146888,0.693448,-31.430000,87.919998,14.210000,21.37
5760271,0.463112,-0.183488,0.690520,-30.799999,87.290001,17.360001,21.37
5760282,0.511912,-0.166896,0.720776,-27.090000,97.930000,14.560000,21.41
5760293,0.416264,-0.149328,0.771528,-22.750000,98.980003,13.790000,21.36
5760304,0.386496,-0.128344,0.806664,-31.010000,94.849998,16.730000,21.36
5760315,0.404552,-0.147376,0.917928,-33.669998,97.930000,17.150000,21.39
5760326,0.345504,-0.142496,0.979904,-35.630001,92.680000,18.270000,21.39
5760337,0.358680,-0.167384,1.000888,-35.000000,90.720001,19.809999,21.42
5760348,0.368440,-0.162504,1.018456,-29.540001,89.739998,22.750000,21.42
5760359,0.349408,-0.177632,1.023336,-38.639999,87.360001,22.680000,21.38
5760370,0.328912,-0.256200,1.029192,-31.080000,88.830002,21.910000,21.39
5760380,0.302072,-0.266936,1.059448,-27.790001,86.449997,22.190001,21.39
5760391,0.271328,-0.252784,1.101904,-22.190001,83.860001,22.190001,21.38
5760402,0.204472,-0.166408,1.178520,-24.500000,76.650002,24.010000,21.38
5760413,0.263032,-0.229360,1.177056,-26.320000,71.820000,24.290001,21.38
5760424,0.262544,-0.291824,1.141432,-21.139999,71.260002,22.120001,21.37
5760435,0.289384,-0.439200,1.136552,-4.130000,72.169998,20.090000,21.37
5760446,0.206912,-0.308416,1.149728,10.150000,70.910004,19.110001,21.40
5760457,0.178608,-0.210328,1.203896,4.270000,64.680000,19.740000,21.40
5760467,0.164944,-0.257176,1.255624,4.550000,60.970001,17.780001,21.38
5760479,0.164944,-0.279624,1.341512,2.520000,53.270000,17.290001,21.38
5760490,0.171776,-0.347456,1.431304,2.450000,48.090000,16.379999,21.37
5760501,0.161528,-0.319152,1.517680,2.380000,39.060001,15.330000,21.37
5760511,0.132248,-0.335256,1.559648,0.560000,28.910000,12.250000,21.37
5760523,0.117120,-0.376248,1.603568,0.910000,20.580000,8.610000,21.42
5760533,0.090280,-0.406504,1.599176,3.220000,9.520000,5.810000,21.42
5760544,0.061488,-0.406504,1.583072,6.860000,-3.150000,2.100000,21.39
5760555,0.093208,-0.420656,1.592344,6.930000,-12.740000,-1.610000,21.36
5760566,0.126880,-0.472384,1.588440,10.640000,-22.260000,-6.020000,21.36
5760577,0.133224,-0.510448,1.582096,21.139999,-32.340000,-11.480000,21.40
5760588,0.129808,-0.474336,1.553304,28.770000,-41.299999,-16.590000,21.40
5760599,0.142008,-0.445056,1.528904,36.820000,-51.029999,-21.000000,21.40
5760610,0.143960,-0.354776,1.504016,41.930000,-61.040001,-24.219999,21.39
5760621,0.147376,-0.266936,1.498648,36.259998,-71.610001,-24.639999,21.39
5760632,0.137128,-0.223992,1.489864,31.570000,-81.480003,-26.600000,21.38
5760643,0.130296,-0.190808,1.466440,23.940001,-91.000000,-27.580000,21.38
5760654,0.143472,-0.180072,1.424472,16.450001,-101.849998,-27.719999,21.38
5760665,0.173240,-0.194224,1.388360,11.550000,-111.370003,-28.420000,21.38
5760676,0.195200,-0.210816,1.358104,7.910000,-118.860001,-28.910000,21.38
5760687,0.205448,-0.244000,1.278560,12.180000,-127.330002,-32.549999,21.38
5760698,0.208376,-0.223504,1.226832,16.030001,-134.330002,-31.850000,21.38
5760709,0.221552,-0.206912,1.144848,23.450001,-139.300003,-33.320000,21.39
5760720,0.226920,-0.200080,1.032608,29.820000,-144.550003,-34.930000,21.39
5760731,0.263032,-0.201544,0.966240,37.520000,-146.300003,-33.529999,21.38
5760742,0.283528,-0.162016,0.894504,41.650002,-149.380005,-32.759998,21.37
5760753,0.314760,-0.104432,0.859856,46.830002,-149.869995,-29.400000,21.37
5760764,0.331352,-0.047824,0.813984,46.900002,-151.759995,-27.719999,21.38
5760775,0.374296,-0.003904,0.746152,43.470001,-152.250000,-23.870001,21.38
5760786,0.408456,0.013664,0.658312,38.290001,-150.500000,-20.860001,21.35
5760797,0.440664,0.021960,0.549976,33.040001,-144.479996,-18.270000,21.38
5760808,0.458720,0.054656,0.484584,24.500000,-137.970001,-14.560000,21.38
5760819,0.469944,0.057096,0.412848,18.620001,-132.720001,-11.830000,21.39
5760830,0.508008,0.050264,0.351360,10.780000,-124.669998,-8.820000,21.39
5760841,0.551928,0.016104,0.300120,6.020000,-114.730003,-7.280000,21.39
5760852,0.569008,-0.017080,0.223504,3.990000,-104.790001,-5.950000,21.39
5760863,0.607560,-0.047336,0.202520,4.200000,-94.500000,-4.760000,21.36
5760874,0.627080,-0.061976,0.199592,5.320000,-83.510002,-3.920000,21.37
5760884,0.655384,-0.047336,0.217648,5.250000,-71.889999,-2.730000,21.37
5760895,0.650016,-0.037088,0.218136,6.720000,-63.000000,-2.870000,21.41
5760907,0.644648,-0.044408,0.197152,7.560000,-53.130001,-2.590000,21.41
5760918,0.655384,-0.068808,0.184464,9.030000,-42.840000,-2.940000,21.38
5760929,0.682712,-0.098576,0.163480,13.790000,-31.430000,-3.220000,21.36
5760940,0.679784,-0.112240,0.145912,20.719999,-22.959999,-4.550000,21.36
5760951,0.700768,-0.112728,0.152256,26.250000,-11.270000,-4.900000,21.35
5760962,0.700280,-0.077104,0.172264,29.540001,-1.050000,-4.410000,21.35
5760973,0.689544,-0.040016,0.190808,30.730000,8.470000,-4.760000,21.39
5760984,0.680760,-0.022936,0.203008,28.770000,15.050000,-4.620000,21.38
5760995,0.683200,-0.025376,0.217160,24.430000,23.309999,-4.130000,21.38
5761006,0.686616,-0.031720,0.227896,22.469999,32.200001,-4.130000,21.39
5761017,0.688080,-0.006832,0.262544,17.360001,38.709999,-2.730000,21.39
5761028,0.677832,0.010248,0.306464,10.570000,46.270000,-2.030000,21.40
5761038,0.670024,0.019520,0.329888,5.460000,53.549999,-1.260000,21.40
5761049,0.659776,0.028304,0.371856,-1.120000,58.169998,-0.280000,21.39
5761060,0.657824,-0.000976,0.392840,-5.250000,63.490002,0.280000,21.45
5761071,0.655384,0.002928,0.441640,-8.610000,67.970001,2.380000,21.45
5761082,0.656848,0.015128,0.504592,-13.510000,70.910004,4.620000,21.39
5761093,0.637816,0.057096,0.551928,-18.760000,73.919998,6.790000,21.39
5761104,0.624640,0.040992,0.568520,-24.430000,77.419998,8.680000,21.39
5761114,0.600728,0.023424,0.564128,-27.790001,80.570000,9.590000,21.42
5761125,0.582184,-0.004880,0.565104,-31.360001,83.860001,10.500000,21.42
5761136,0.552416,-0.048312,0.598776,-32.340000,87.570000,10.570000,21.38
5761147,0.504104,-0.087840,0.604144,-31.990000,81.970001,8.470000,21.38
5761158,0.566568,-0.115656,0.641720,-31.290001,93.379997,12.670000,21.37
5761169,0.589992,-0.153232,0.661728,-23.100000,98.279999,8.050000,21.37
5761180,0.496784,-0.181048,0.661240,-13.370000,94.570000,5.740000,21.43
5761191,0.556320,-0.159576,0.724192,-8.890000,103.250000,5.670000,21.43
5761202,0.511912,-0.128344,0.755424,-2.240000,105.000000,9.380000,21.43
5761213,0.436272,-0.030744,0.898896,-9.660000,102.199997,6.020000,21.37
5761224,0.425536,-0.032696,0.946232,-15.400000,99.820000,5.460000,21.37
5761235,0.394792,-0.024888,0.946720,-20.650000,96.320000,5.880000,21.39
5761246,0.390888,-0.028304,0.930616,-28.629999,93.589996,7.140000,21.37
5761257,0.397720,-0.068808,0.927688,-36.889999,92.400002,13.160000,21.37
5761268,0.374784,-0.046360,1.017968,-47.950001,90.089996,10.850000,21.42
5761279,0.373808,-0.069296,1.047248,-57.680000,87.290001,13.720000,21.42
5761290,0.350872,-0.112240,1.094096,-61.180000,82.459999,14.210000,21.39
5761302,0.327936,-0.175680,1.108248,-56.560001,77.279999,14.490000,21.39
5761313,0.330864,-0.195688,1.112152,-51.310001,73.779999,15.610000,21.39
5761324,0.318176,-0.243512,1.136064,-40.669998,72.449997,15.960000,21.37
5761335,0.331840,-0.254248,1.123376,-33.110001,69.860001,15.820000,21.37
5761346,0.302072,-0.252784,1.160952,-25.620001,68.529999,14.210000,21.43
5761357,0.270352,-0.263520,1.195600,-17.219999,63.279999,13.860000,21.39
5761367,0.268888,-0.178120,1.227808,-12.810000,57.470001,15.400000,21.39
5761378,0.264984,-0.146400,1.230736,-15.330000,52.919998,20.299999,21.41
5761389,0.260592,-0.167384,1.281976,-27.580000,46.410000,18.059999,21.41
5761400,0.263520,-0.242536,1.271728,-29.260000,45.150002,16.730000,21.38
5761411,0.256200,-0.302560,1.231712,-26.459999,41.790001,15.540000,21.38
5761422,0.220576,-0.299632,1.199016,-18.059999,38.500000,14.070000,21.39
5761433,0.208864,-0.273280,1.206336,-16.799999,33.810001,14.630000,21.43
5761444,0.215696,-0.308904,1.244400,-13.720000,28.490000,13.230000,21.43
5761455,0.218136,-0.308416,1.305888,-12.390000,23.520000,12.530000,21.39
5761466,0.224968,-0.379664,1.353712,-7.700000,18.620001,10.290000,21.39
5761477,0.205448,-0.421144,1.395192,3.220000,12.880000,4.620000,21.37
5761488,0.185928,-0.381128,1.410808,11.970000,5.740000,3.080000,21.37
5761498,0.203496,-0.344528,1.404464,13.580000,-1.190000,0.700000,21.37
5761509,0.207400,-0.325984,1.382992,12.530000,-7.910000,-1.610000,21.37
5761520,0.211304,-0.335256,1.378112,9.940000,-13.370000,-3.710000,21.37
5761532,0.215696,-0.314272,1.398608,9.240000,-20.020000,-5.530000,21.39
5761543,0.220576,-0.302072,1.401048,5.110000,-27.790001,-7.420000,21.39
5761554,0.233752,-0.374784,1.376160,6.790000,-33.740002,-11.270000,21.41
5761565,0.241072,-0.388448,1.349808,14.490000,-39.270000,-14.490000,21.36
5761576,0.246928,-0.340136,1.321016,19.530001,-44.799999,-16.660000,21.36
5761587,0.253272,-0.319152,1.298568,22.400000,-49.560001,-18.969999,21.40
5761598,0.253760,-0.278648,1.281976,26.320000,-54.110001,-20.510000,21.40
5761609,0.266936,-0.235704,1.264896,26.180000,-60.480000,-20.440001,21.41
5761620,0.283528,-0.201056,1.245864,24.920000,-64.750000,-20.650000,21.37
5761631,0.278160,-0.158112,1.218048,22.120001,-70.349998,-20.090000,21.37
5761642,0.291336,-0.169824,1.192672,20.650000,-73.290001,-20.930000,21.39
5761653,0.288408,-0.139080,1.177056,18.969999,-77.629997,-19.950001,21.39
5761664,0.284504,-0.146400,1.172664,16.450001,-83.930000,-20.860001,21.41
5761675,0.310856,-0.199104,1.156560,20.020000,-86.940002,-18.760000,21.37
5761686,0.302072,-0.217648,1.142408,26.879999,-92.190002,-20.580000,21.37
5761697,0.317688,-0.215208,1.119960,35.840000,-97.510002,-20.230000,21.37
5761708,0.306952,-0.148352,1.088240,39.689999,-103.949997,-19.250000,21.37
5761719,0.317200,-0.120536,1.072136,39.900002,-108.010002,-18.830000,21.42
5761730,0.315248,-0.112728,1.045296,41.580002,-113.400002,-18.480000,21.37
5761741,0.352336,-0.089304,1.014552,39.549999,-119.209999,-15.890000,21.37
5761752,0.366976,-0.067832,0.963800,36.680000,-123.620003,-14.140000,21.40
5761764,0.397232,-0.069296,0.900360,33.529999,-126.349998,-12.810000,21.40
5761775,0.432368,-0.053680,0.859368,28.910000,-127.260002,-9.730000,21.39
5761786,0.423584,-0.059048,0.809592,28.770000,-128.449997,-10.640000,21.37
5761797,0.451888,-0.059536,0.734440,28.280001,-127.959999,-9.380000,21.37
5761808,0.467016,-0.058560,0.643184,27.510000,-125.720001,-8.190000,21.43
5761819,0.486048,0.000976,0.553392,20.650000,-123.339996,-4.970000,21.43
5761830,0.517768,0.069784,0.499224,7.560000,-119.349998,-2.590000,21.41
5761841,0.563640,0.062464,0.456768,-5.600000,-112.910004,-0.420000,21.41
5761853,0.609024,0.019520,0.432368,-14.910000,-104.650002,1.680000,21.36
5761864,0.621224,-0.039528,0.376736,-18.969999,-97.370003,0.980000,21.42
5761875,0.629032,-0.088328,0.320128,-17.639999,-87.639999,0.280000,21.42
5761886,0.632936,-0.120536,0.281088,-11.550000,-78.050003,-0.490000,21.39
5761897,0.651968,-0.148840,0.238632,-3.150000,-67.830002,-1.540000,21.39
5761908,0.661240,-0.141520,0.219600,3.080000,-57.259998,-1.610000,21.43
5761919,0.667096,-0.124440,0.209840,10.850000,-48.230000,-2.870000,21.40
5761931,0.667584,-0.114192,0.211792,17.080000,-37.450001,-3.220000,21.40
5761942,0.671488,-0.088328,0.228384,19.950001,-27.370001,-3.080000,21.35
5761953,0.671976,-0.065392,0.241560,21.770000,-17.850000,-2.730000,21.35
5761964,0.672952,-0.053192,0.249856,22.190001,-11.130000,-2.100000,21.37
5761975,0.688568,-0.036112,0.268888,19.250000,-2.030000,-0.420000,21.38
5761986,0.692472,-0.048312,0.355752,15.890000,6.090000,-0.700000,21.38
5761997,0.681248,-0.023424,0.286456,13.300000,15.400000,1.050000,21.40
5762008,0.681248,-0.034648,0.287432,11.060000,21.910000,2.030000,21.40
5762019,0.675392,-0.044896,0.287920,10.360000,29.540001,2.030000,21.38
5762030,0.675392,-0.049288,0.304024,9.450000,36.820000,2.520000,21.40
5762041,0.671000,-0.041968,0.326472,7.980000,42.770000,2.800000,21.40
5762052,0.660752,-0.032696,0.351848,3.990000,49.630001,3.430000,21.38
5762063,0.652944,-0.044896,0.382592,1.680000,56.209999,3.710000,21.38
5762074,0.650016,-0.054656,0.407480,-0.210000,60.970001,4.200000,21.39
5762085,0.653920,-0.066368,0.434320,-1.120000,66.080002,5.040000,21.38
5762095,0.643184,-0.029280,0.476776,-4.200000,70.489998,7.140000,21.38
5762106,0.631960,-0.030256,0.525088,-9.660000,73.500000,8.050000,21.39
5762117,0.604144,-0.038552,0.568520,-13.860000,76.860001,8.540000,21.39
5762128,0.577792,-0.048312,0.608536,-15.330000,78.680000,8.750000,21.37
5762139,0.571448,-0.087352,0.629032,-14.910000,79.519997,7.980000,21.37
5762150,0.557784,-0.108336,0.616344,-11.690000,82.110001,6.230000,21.39
5762161,0.558760,-0.158600,0.582184,-6.650000,82.879997,7.630000,21.41
5762172,0.619272,-0.114680,0.609024,-9.520000,92.120003,8.190000,21.41
5762183,0.528504,-0.082960,0.680272,-9.450000,92.680000,6.230000,21.39
5762194,0.466040,-0.067344,0.691984,-15.050000,90.930000,6.300000,21.39
5762205,0.513376,-0.053680,0.770552,-19.950001,96.599998,7.630000,21.38
5762215,0.438224,-0.054656,0.791536,-22.750000,94.500000,7.700000,21.39
5762226,0.450424,-0.064904,0.799344,-28.280001,93.029999,9.310000,21.39
5762237,0.456280,-0.080032,0.822280,-31.290001,93.379997,9.870000,21.39
5762248,0.447496,-0.100528,0.832040,-33.180000,92.889999,10.080000,21.39
5762259,0.441640,-0.129808,0.851560,-32.340000,93.660004,10.640000,21.43
5762270,0.419192,-0.121024,0.958432,-31.639999,95.129997,12.740000,21.43
5762281,0.395280,-0.101016,0.979904,-33.459999,92.120003,13.370000,21.40
5762292,0.372832,-0.119560,1.005768,-35.910000,89.599998,14.070000,21.37
5762303,0.354776,-0.149328,1.030168,-36.259998,85.959999,14.350000,21.37
5762314,0.355264,-0.205448,1.043344,-32.619999,83.440002,12.460000,21.38
5762325,0.354776,-0.223504,1.071160,-29.260000,79.309998,12.390000,21.38
5762336,0.363072,-0.241072,1.098976,-26.740000,76.650002,11.550000,21.39
5762347,0.359656,-0.244976,1.148752,-24.990000,74.970001,12.320000,21.41
5762358,0.322568,-0.224968,1.190232,-20.790001,70.279999,11.970000,21.41
5762369,0.312320,-0.207888,1.187304,-20.090000,65.730003,12.530000,21.38
5762380,0.299632,-0.245952,1.150216,-16.170000,63.419998,11.690000,21.38
5762390,0.287432,-0.224480,1.182424,-14.420000,60.759998,13.440000,21.41
5762401,0.268400,-0.216184,1.214144,-13.370000,56.980000,13.160000,21.44
5762412,0.260104,-0.196664,1.208288,-12.110000,53.410000,19.250000,21.44
5762423,0.201056,-0.129808,1.296128,-22.400000,42.840000,14.420000,21.39
5762434,0.265472,-0.253272,1.267336,-19.250000,42.630001,13.930000,21.39
5762445,0.234728,-0.234728,1.222440,-17.219999,38.849998,14.000000,21.41
5762456,0.224480,-0.225456,1.188768,-21.770000,36.049999,14.980000,21.41
5762467,0.192272,-0.239608,1.200968,-26.320000,33.250000,15.120000,21.45
5762478,0.176656,-0.294752,1.241960,-27.719999,27.370001,14.700000,21.41
5762490,0.189832,-0.396256,1.313696,-18.969999,21.700001,12.530000,21.41
5762501,0.195200,-0.400648,1.381528,-9.100000,14.910000,9.170000,21.39
5762512,0.207400,-0.418216,1.410808,-1.750000,10.780000,6.090000,21.39
5762523,0.164944,-0.449936,1.423008,10.220000,5.810000,1.470000,21.38
5762534,0.152744,-0.415776,1.411296,17.639999,-1.050000,-1.960000,21.42
5762545,0.120536,-0.336720,1.408368,21.209999,-7.910000,-4.130000,21.42
5762556,0.134200,-0.317688,1.433744,16.100000,-16.590000,-4.830000,21.37
5762567,0.162992,-0.337208,1.458632,9.590000,-24.570000,-6.300000,21.37
5762578,0.174216,-0.353312,1.490840,8.540000,-33.529999,-8.820000,21.42
5762589,0.182024,-0.334280,1.518168,6.860000,-41.720001,-11.130000,21.37
5762600,0.185928,-0.345992,1.559648,1.330000,-52.080002,-12.600000,21.37
5762611,0.157136,-0.336720,1.591856,-0.490000,-65.309998,-16.309999,21.39
5762622,0.145424,-0.356728,1.591856,-3.780000,-79.730003,-19.600000,21.39
5762633,0.152256,-0.421144,1.521096,-0.210000,-89.180000,-25.760000,21.43
5762644,0.167872,-0.439200,1.436672,7.350000,-101.430000,-30.240000,21.35
5762656,0.203984,-0.410896,1.374208,15.540000,-111.440002,-35.279999,21.35
5762667,0.244976,-0.379176,1.329312,20.719999,-120.889999,-38.360001,21.41
5762678,0.257664,-0.324520,1.301496,27.299999,-127.050003,-41.580002,21.41
5762689,0.269864,-0.272792,1.233664,33.599998,-135.729996,-43.119999,21.43
5762700,0.282552,-0.197152,1.160952,36.959999,-142.309998,-43.820000,21.39
5762711,0.308904,-0.129320,1.043344,36.610001,-146.580002,-42.209999,21.39
5762722,0.327448,-0.099064,0.913048,35.910000,-147.699997,-39.689999,21.42
5762733,0.345504,-0.054168,0.818376,33.389999,-147.490005,-36.470001,21.42
5762744,0.364048,0.007320,0.757376,26.320000,-146.789993,-31.430000,21.41
5762755,0.418216,-0.004880,0.681736,24.639999,-144.479996,-28.420000,21.41
5762766,0.437248,-0.018056,0.608048,24.360001,-140.350006,-24.780001,21.38
5762777,0.482144,-0.031720,0.543632,25.690001,-135.100006,-22.049999,21.40
5762788,0.514840,-0.036112,0.465552,29.469999,-128.029999,-19.530001,21.40
5762799,0.529968,-0.002440,0.401136,30.520000,-121.169998,-15.190000,21.41
5762810,0.541192,0.026840,0.332816,29.680000,-111.650002,-11.900000,21.41
5762821,0.548512,0.061488,0.299632,26.110001,-102.480003,-7.350000,21.43
5762832,0.565592,0.074664,0.282552,18.830000,-94.220001,-3.290000,21.36
5762843,0.575352,0.069784,0.254736,12.600000,-83.370003,-0.770000,21.36
5762854,0.588528,0.030744,0.234240,6.020000,-73.150002,2.030000,21.37
5762864,0.596336,0.004880,0.216184,1.820000,-64.889999,4.410000,21.37
5762875,0.610488,-0.018544,0.197152,-0.840000,-54.180000,5.670000,21.41
5762886,0.630008,-0.049288,0.198616,-2.310000,-43.889999,7.490000,21.41
5762897,0.633912,-0.078080,0.197640,0.140000,-32.480000,7.280000,21.38
5762908,0.630008,-0.102480,0.179584,5.320000,-23.940001,6.860000,21.34
5762919,0.647576,-0.139080,0.173728,12.530000,-12.810000,7.000000,21.34
5762930,0.646112,-0.151280,0.165432,18.830000,-1.750000,5.740000,21.38
5762941,0.649528,-0.162504,0.174216,26.879999,7.000000,4.620000,21.38
5762952,0.626104,-0.132736,0.181048,33.810001,16.450001,1.540000,21.42
5762963,0.645624,-0.139568,0.220088,37.939999,27.580000,1.890000,21.39
5762974,0.643184,-0.098088,0.260104,40.110001,33.880001,1.960000,21.39
5762985,0.635376,-0.072712,0.290848,39.619999,41.720001,2.030000,21.39
5762995,0.629520,-0.048800,0.331352,37.730000,47.950001,2.240000,21.39
5763006,0.622200,-0.020496,0.367952,32.970001,52.290001,2.660000,21.41
5763017,0.614880,-0.004392,0.390888,25.830000,57.820000,3.290000,21.38
5763028,0.610000,0.003904,0.427976,18.340000,63.139999,4.620000,21.38
5763039,0.600240,0.005368,0.459208,11.620000,67.480003,6.160000,21.36
5763050,0.585112,0.025864,0.492392,0.070000,71.959999,8.470000,21.36
5763061,0.573888,0.011712,0.537288,-6.510000,75.949997,10.150000,21.43
5763071,0.564616,0.007808,0.565592,-13.860000,78.330002,11.690000,21.43
5763083,0.560712,-0.041968,0.579256,-18.270000,81.269997,11.690000,21.36
5763094,0.556808,-0.089304,0.583648,-17.780001,85.330002,10.780000,21.37
5763105,0.501664,-0.103944,0.596336,-18.760000,78.330002,9.030000,21.37
5763116,0.578280,-0.107360,0.663192,-22.680000,94.500000,15.330000,21.35
5763127,0.564616,-0.097600,0.693936,-19.250000,98.070000,10.710000,21.35
5763138,0.425536,-0.122488,0.674416,-16.170000,93.379997,8.610000,21.36
5763149,0.515328,-0.139080,0.666608,-13.930000,99.400002,8.470000,21.40
5763160,0.479216,-0.126392,0.693448,-14.000000,100.379997,9.590000,21.40
5763170,0.484584,-0.125416,0.748104,-15.330000,102.900002,9.870000,21.44
5763182,0.477752,-0.101016,0.845704,-20.230000,105.279999,11.550000,21.44
5763193,0.419192,-0.077592,0.942328,-25.549999,103.389999,12.670000,21.41
5763204,0.378688,-0.075640,0.975024,-28.910000,100.730003,12.880000,21.41
5763215,0.346968,-0.075152,0.959896,-31.010000,98.489998,12.670000,21.39
5763226,0.316712,-0.083448,0.943304,-35.560001,95.970001,13.440000,21.38
5763237,0.337208,-0.122000,0.976976,-42.700001,94.080002,15.750000,21.38
5763248,0.349896,-0.183488,1.020408,-43.049999,93.800003,22.190001,21.38
5763259,0.283040,-0.167872,1.077992,-45.709999,89.459999,17.850000,21.38
5763270,0.303048,-0.210328,1.093120,-44.799999,86.379997,18.690001,21.38
5763281,0.280112,-0.273280,1.105320,-35.000000,84.279999,17.570000,21.42
5763292,0.272304,-0.258152,1.118496,-31.990000,80.989998,20.510000,21.42
5763303,0.248880,-0.268888,1.158512,-26.670000,78.750000,20.090000,21.39
5763314,0.233752,-0.302072,1.178032,-19.459999,75.669998,17.990000,21.39
5763325,0.219600,-0.324520,1.178520,-9.940000,72.589996,14.630000,21.38
5763336,0.217160,-0.330376,1.143384,1.540000,69.930000,11.550000,21.42
5763346,0.211304,-0.282552,1.186328,8.820000,67.199997,11.830000,21.42
5763357,0.190808,-0.191296,1.260504,5.250000,60.759998,12.180000,21.39
5763368,0.182024,-0.203008,1.340536,-0.070000,55.930000,13.160000,21.39
5763379,0.151280,-0.181048,1.413736,-7.630000,48.650002,12.950000,21.41
5763390,0.131760,-0.178120,1.430328,-17.920000,37.939999,14.630000,21.34
5763401,0.143472,-0.201544,1.387384,-26.180000,33.110001,14.070000,21.34
5763412,0.130784,-0.287920,1.332728,-30.799999,27.299999,13.090000,21.41
5763423,0.144448,-0.409920,1.300032,-21.770000,25.200001,9.800000,21.41
5763434,0.104920,-0.352336,1.307352,-16.170000,19.040001,8.680000,21.38
5763445,0.114680,-0.351848,1.342000,-19.950001,11.830000,8.890000,21.38
5763456,0.130784,-0.447984,1.414224,-9.730000,6.650000,1.820000,21.43
5763467,0.132736,-0.492880,1.466440,-0.560000,-2.450000,-1.820000,21.37
5763478,0.143472,-0.492880,1.470832,14.350000,-7.420000,-7.700000,21.37
5763489,0.124440,-0.451888,1.450336,29.400000,-13.650000,-12.530000,21.37
5763500,0.092232,-0.385520,1.443016,37.520000,-20.580000,-15.890000,21.37
5763511,0.089792,-0.266448,1.455704,36.470001,-29.959999,-16.309999,21.44
5763522,0.101016,-0.210816,1.468392,25.270000,-37.169998,-15.680000,21.34
5763533,0.117608,-0.182024,1.494256,11.060000,-46.689999,-14.840000,21.34
5763544,0.137128,-0.180560,1.524512,-5.110000,-57.119999,-14.210000,21.41
5763555,0.133224,-0.242536,1.512312,-12.320000,-65.589996,-14.840000,21.41
5763566,0.131272,-0.350872,1.485960,-15.470000,-72.870003,-17.920000,21.37
5763577,0.128832,-0.422120,1.460096,-7.700000,-82.110001,-21.420000,21.39
5763589,0.141032,-0.472872,1.428864,3.710000,-91.070000,-27.370001,21.39
5763600,0.155672,-0.501176,1.348832,20.370001,-98.000000,-34.580002,21.39
5763611,0.140056,-0.381616,1.285880,35.630001,-108.849998,-37.380001,21.39
5763622,0.193736,-0.318664,1.317600,36.750000,-116.410004,-38.009998,21.38
5763633,0.217648,-0.239608,1.322480,37.799999,-124.669998,-39.830002,21.38
5763644,0.211304,-0.164456,1.281488,36.189999,-133.979996,-40.880001,21.38
5763655,0.226920,-0.107360,1.220488,33.320000,-140.699997,-39.900002,21.38
5763666,0.262056,-0.051728,1.179984,22.469999,-148.190002,-36.610001,21.38
5763677,0.265472,-0.069296,1.102880,18.270000,-153.300003,-37.730000,21.37
5763688,0.274744,-0.077592,1.009672,17.290001,-157.990005,-36.119999,21.37
5763700,0.287432,-0.093696,0.896456,19.180000,-161.350006,-35.209999,21.41
5763711,0.325496,-0.111752,0.793976,25.410000,-162.050003,-34.790001,21.34
5763722,0.377224,-0.120048,0.709064,34.160000,-161.210007,-34.020000,21.34
5763733,0.410896,-0.095648,0.602192,40.669998,-156.940002,-31.990000,21.39
5763744,0.442128,0.022936,0.499712,40.599998,-152.529999,-25.760000,21.39
5763755,0.454328,0.130296,0.393816,31.150000,-145.669998,-21.139999,21.39
5763766,0.462136,0.182512,0.326960,18.340000,-138.529999,-15.960000,21.35
5763777,0.500200,0.153720,0.274744,7.210000,-129.360001,-10.850000,21.35
5763788,0.535824,0.099552,0.213744,-2.450000,-119.349998,-7.070000,21.37
5763799,0.536312,0.079056,0.162016,-9.380000,-107.169998,-5.250000,21.37
5763810,0.599752,0.045872,0.132248,-11.060000,-93.870003,-1.190000,21.37
5763821,0.618296,0.043920,0.106384,-11.760000,-80.010002,0.350000,21.37
5763832,0.641720,-0.013664,0.102968,-12.250000,-69.860001,2.730000,21.37
5763844,0.658312,-0.037576,0.093696,-8.470000,-55.930000,3.570000,21.40
5763855,0.656360,-0.046848,0.085400,-5.040000,-43.330002,4.410000,21.40
5763866,0.666608,-0.063440,0.088816,-2.380000,-30.450001,6.300000,21.41
5763877,0.668072,-0.056120,0.106384,-0.910000,-17.290001,7.700000,21.40
5763888,0.658312,-0.054168,0.114680,-0.140000,-7.770000,8.260000,21.40
5763899,0.655872,-0.072712,0.122488,1.610000,4.060000,8.610000,21.38
5763910,0.666120,-0.095160,0.124928,4.620000,16.100000,8.820000,21.38
5763921,0.666120,-0.095648,0.130784,6.300000,27.930000,9.520000,21.41
5763932,0.665144,-0.081008,0.163480,3.850000,36.610001,10.780000,21.35
5763943,0.653920,-0.068808,0.211792,-1.050000,46.410000,12.180000,21.35
5763954,0.634888,-0.094672,0.267912,-2.730000,54.599998,12.390000,21.42
5763965,0.637328,-0.102968,0.323056,-0.210000,59.709999,12.670000,21.42
5763976,0.635864,-0.078568,0.371368,-0.840000,64.750000,13.020000,21.36
5763987,0.649528,-0.108824,0.398696,-0.560000,71.190002,13.090000,21.36
5763998,0.644160,-0.103944,0.427000,-0.070000,77.139999,14.070000,21.36
5764009,0.627568,-0.101016,0.441640,1.470000,82.250000,13.930000,21.37
5764020,0.598776,-0.099552,0.473848,-0.140000,87.430000,14.490000,21.37
5764031,0.572912,-0.097112,0.548512,-1.470000,91.910004,15.050000,21.39
5764042,0.536800,-0.117608,0.615368,-2.590000,93.730003,14.910000,21.39
5764053,0.533872,-0.172752,0.649528,-0.840000,94.500000,14.770000,21.35
5764064,0.465552,-0.197640,0.644160,3.850000,87.080002,11.060000,21.37
5764075,0.596336,-0.172752,0.645624,6.090000,103.040001,13.510000,21.37
5764086,0.536800,-0.165920,0.656848,10.570000,104.930000,7.700000,21.37
5764097,0.446032,-0.148352,0.688568,6.930000,99.750000,7.770000,21.37
5764108,0.529480,-0.141032,0.779824,3.080000,107.870003,8.610000,21.41
5764119,0.435296,-0.120048,0.823744,4.480000,106.610001,7.770000,21.39
5764130,0.427000,-0.072712,0.843264,2.520000,104.440002,8.610000,21.39
5764140,0.423096,-0.048312,0.865712,-3.010000,103.669998,8.120000,21.36
5764151,0.442616,-0.051240,0.913048,-14.700000,101.779999,11.760000,21.36
5764162,0.431392,-0.078080,0.952576,-23.379999,100.870003,12.530000,21.36
5764173,0.402112,-0.072224,1.041880,-30.170000,99.190002,15.890000,21.36
5764184,0.339648,-0.054168,1.069208,-38.220001,95.970001,18.410000,21.37
5764195,0.298656,-0.076616,1.074088,-46.060001,90.300003,18.969999,21.40
5764207,0.289872,-0.139080,1.057984,-48.439999,85.820000,19.530001,21.40
5764217,0.284992,-0.205936,1.051640,-45.919998,80.849998,18.900000,21.41
5764228,0.332816,-0.262056,1.088728,-40.250000,77.489998,20.930000,21.41
5764240,0.339648,-0.297680,1.063352,-23.170000,77.699997,24.430000,21.45
5764251,0.299144,-0.243024,1.138992,-27.090000,71.540001,20.090000,21.36
5764262,0.297192,-0.304512,1.113616,-16.309999,72.099998,17.360001,21.36
5764273,0.282064,-0.309392,1.057496,-3.500000,70.349998,16.450001,21.39
5764284,0.255224,-0.272304,1.036512,5.740000,68.739998,15.190000,21.39
5764295,0.266936,-0.270840,1.079944,8.400000,67.900002,17.850000,21.39
5764306,0.235704,-0.214232,1.146800,9.030000,66.919998,17.500000,21.41
5764317,0.189832,-0.141032,1.217072,-3.570000,61.110001,20.230000,21.41
5764328,0.192272,-0.171288,1.281488,-14.210000,53.970001,20.790001,21.37
5764339,0.181536,-0.219112,1.329312,-22.959999,48.860001,20.510000,21.37
5764350,0.195200,-0.284992,1.360056,-30.030001,40.669998,20.299999,21.40
5764361,0.189832,-0.418216,1.389824,-27.299999,36.820000,16.590000,21.40
5764372,0.157136,-0.547536,1.405440,-8.050000,31.150000,7.980000,21.39
5764383,0.102968,-0.494344,1.416176,11.480000,24.500000,2.590000,21.32
5764393,0.083936,-0.427976,1.443992,20.580000,13.300000,-0.700000,21.32
5764404,0.109312,-0.362096,1.504504,20.930000,1.960000,-2.800000,21.39
5764415,0.151768,-0.334280,1.583072,16.379999,-7.140000,-4.760000,21.39
5764426,0.147864,-0.264008,1.611376,5.950000,-18.969999,-6.720000,21.40
5764438,0.139080,-0.290360,1.602592,-3.920000,-28.209999,-8.820000,21.40
5764449,0.134688,-0.377712,1.549400,-3.220000,-37.380001,-12.530000,21.40
5764460,0.131760,-0.391376,1.480104,2.380000,-45.080002,-15.820000,21.45
5764471,0.162504,-0.396256,1.427400,8.330000,-53.060001,-18.549999,21.45
5764482,0.168360,-0.364048,1.377136,12.880000,-60.060001,-22.190001,21.39
5764493,0.169824,-0.339160,1.362984,13.650000,-66.010002,-23.100000,21.39
5764506,0.177144,-0.347944,1.374696,16.379999,-74.199997,-25.620001,21.39
5764517,0.189832,-0.314272,1.401536,20.930000,-83.300003,-28.070000,21.38
5764529,0.203984,-0.256688,1.389336,21.700001,-92.260002,-28.700001,21.38
5764540,0.207400,-0.261568,1.337608,23.309999,-99.889999,-31.010000,21.33
5764551,0.204472,-0.231800,1.290272,25.200001,-106.050003,-31.430000,21.37
5764562,0.196664,-0.183488,1.224880,24.850000,-113.680000,-31.990000,21.37
5764573,0.214232,-0.163480,1.185352,22.540001,-122.220001,-32.060001,21.38
5764584,0.254736,-0.149816,1.159976,18.830000,-129.220001,-31.150000,21.38
5764595,0.276208,-0.177144,1.139968,18.480000,-133.210007,-30.730000,21.38
5764606,0.282064,-0.148840,1.112152,19.740000,-140.770004,-30.030001,21.36
5764618,0.303048,-0.148840,1.042856,24.080000,-146.580002,-31.219999,21.36
5764629,0.344528,-0.182024,0.964776,31.990000,-149.589996,-31.570000,21.37
5764640,0.349408,-0.160064,0.836432,38.639999,-151.059998,-31.570000,21.37
5764651,0.378688,-0.142496,0.736392,43.610001,-150.639999,-30.660000,21.36
5764662,0.406992,-0.107360,0.631472,49.070000,-147.000000,-29.400000,21.36
5764673,0.434320,-0.035136,0.553392,48.720001,-143.220001,-25.270000,21.36
5764684,0.455792,0.031720,0.465064,46.619999,-138.110001,-21.559999,21.41
5764697,0.510936,0.019520,0.368440,40.880001,-131.809998,-0.840000,21.31
5764714,0.554856,0.039528,0.290360,35.070000,-118.089996,-12.740000,21.31
5764725,0.578280,0.059048,0.242048,29.330000,-106.959999,-9.170000,21.40
5764738,0.612440,0.051240,0.203984,24.920000,-90.650002,-7.070000,21.38
5764750,0.616832,0.046360,0.182024,19.180000,-78.120003,-4.620000,21.38
5764761,0.633424,0.029768,0.164456,16.379999,-64.889999,-1.540000,21.38
5764775,0.646112,0.006344,0.149816,12.530000,-52.360001,1.190000,21.35
5764786,0.657336,-0.010736,0.162504,10.430000,-40.320000,2.520000,21.35
5764797,0.669048,-0.026840,0.186416,11.970000,-28.000000,2.870000,21.38
5764814,0.678808,-0.055632,0.214720,15.820000,-12.880000,3.570000,21.40
5764825,0.684176,-0.061976,0.246928,19.459999,-2.450000,3.220000,21.40
5764836,0.668560,-0.058560,0.289872,20.510000,6.370000,1.050000,21.38
5764847,0.696864,-0.056608,0.300608,22.610001,14.000000,3.570000,21.35
5764858,0.676856,-0.047336,0.334768,23.170000,21.350000,2.800000,21.35
5764869,0.671976,-0.040992,0.346480,23.240000,28.280001,2.170000,21.39
5764880,0.685152,-0.030744,0.367464,20.510000,33.459999,2.660000,21.39
5764891,0.680272,-0.027328,0.380640,17.500000,40.180000,2.310000,21.42
5764902,0.667584,-0.023424,0.389424,13.580000,46.689999,1.890000,21.42
5764913,0.663192,-0.027328,0.400648,9.380000,51.169998,2.170000,21.39
5764924,0.676368,-0.043432,0.416752,5.810000,56.490002,2.380000,21.35
5764935,0.662216,-0.025864,0.462624,4.690000,60.549999,2.170000,21.35
5764946,0.656848,-0.011712,0.498736,2.940000,65.239998,2.800000,21.34
5764957,0.650992,-0.018544,0.516792,0.350000,68.739998,2.310000,21.34
5764967,0.645624,-0.039040,0.529480,0.210000,74.410004,1.960000,21.37
5764978,0.551440,-0.018544,0.539728,0.840000,73.639999,1.540000,21.36
5764989,0.634400,0.007808,0.610976,-7.490000,84.629997,5.530000,21.36
5765000,0.590968,0.057584,0.670024,-15.820000,90.720001,5.460000,21.35
5765011,0.622200,0.039040,0.711992,-20.650000,87.919998,6.300000,21.35
5765022,0.521672,0.028792,0.692960,-29.540001,89.739998,8.470000,21.34
5765033,0.508984,-0.027328,0.657336,-31.219999,92.260002,8.750000,21.34
5765043,0.498736,-0.044408,0.635864,-30.240000,95.339996,8.820000,21.41
5765054,0.507520,-0.020008,0.696864,-37.590000,96.529999,11.270000,21.35
5765065,0.496784,-0.048800,0.772992,-41.439999,98.349998,12.040000,21.35
5765076,0.472384,-0.043432,0.866200,-45.639999,97.860001,14.490000,21.43
5765087,0.444568,-0.075152,0.919880,-43.189999,97.860001,15.820000,21.43
5765098,0.392840,-0.083448,0.929152,-45.639999,93.239998,13.860000,21.38
5765109,0.383080,-0.113704,0.919880,-44.099998,91.000000,13.930000,21.35
5765120,0.387472,-0.156648,0.902312,-40.320000,89.739998,12.530000,21.35
5765131,0.404552,-0.182024,0.908656,-34.580002,90.720001,14.490000,21.38
5765142,0.356240,-0.152256,0.932568,-28.770000,90.019997,11.340000,21.38
5765153,0.376248,-0.137128,0.947208,-27.930000,90.019997,12.600000,21.39
5765164,0.340624,-0.109312,0.971120,-28.209999,88.129997,14.000000,21.35
5765175,0.354288,-0.110288,1.048224,-37.869999,84.699997,17.360001,21.35
5765186,0.318176,-0.121512,1.118008,-39.689999,81.900002,18.200001,21.39
5765197,0.285480,-0.130296,1.172664,-47.599998,77.419998,21.910000,21.39
5765208,0.263520,-0.188856,1.185352,-48.790001,73.150002,21.209999,21.39
5765219,0.236680,-0.234728,1.172176,-44.099998,69.230003,20.160000,21.39
5765230,0.239608,-0.280112,1.172664,-41.650002,64.120003,19.809999,21.39
5765243,0.249368,-0.301584,1.204384,-33.110001,59.779999,19.180000,21.39
5765254,0.215696,-0.280600,1.256600,-30.030001,52.779999,17.570000,21.39
5765265,0.268888,-0.310368,1.327360,-27.580000,48.580002,18.200001,21.38
5765276,0.213744,-0.277672,1.353224,-22.820000,41.230000,15.330000,21.39
5765287,0.232776,-0.318176,1.329800,-20.719999,34.860001,15.960000,21.39
5765298,0.236192,-0.435296,1.250744,-9.800000,34.439999,9.730000,21.40
5765308,0.189344,-0.427488,1.220000,4.270000,32.549999,6.440000,21.40
5765319,0.163480,-0.342088,1.230248,9.170000,26.040001,4.480000,21.39
5765330,0.163480,-0.243024,1.278072,0.140000,21.350000,6.720000,21.39
5765341,0.189832,-0.289384,1.345904,-7.420000,13.860000,4.760000,21.41
5765352,0.188856,-0.336232,1.388360,-6.930000,6.650000,2.800000,21.35
5765363,0.195688,-0.396256,1.434232,-5.810000,0.280000,0.770000,21.35
5765373,0.183000,-0.395280,1.443016,1.470000,-7.350000,-2.310000,21.34
5765385,0.170800,-0.413336,1.424472,9.170000,-13.930000,-5.950000,21.34
5765396,0.162016,-0.422120,1.398608,18.760000,-20.790001,-11.620000,21.37
5765406,0.148840,-0.378200,1.393240,26.250000,-27.790001,-13.440000,21.33
5765417,0.149328,-0.322568,1.423008,27.370001,-39.130001,-15.540000,21.33
5765428,0.169824,-0.306952,1.457168,28.559999,-49.000000,-17.990000,21.39
5765440,0.168360,-0.245464,1.466440,25.340000,-58.590000,-18.340000,21.39
5765450,0.197152,-0.223992,1.436184,19.600000,-67.970001,-19.389999,21.40
5765461,0.199592,-0.235704,1.420568,13.230000,-77.980003,-21.490000,21.40
5765472,0.196176,-0.254248,1.375184,11.200000,-85.820000,-23.309999,21.36
5765483,0.198616,-0.252296,1.335656,8.750000,-96.250000,-24.430000,21.36
5765494,0.220088,-0.241560,1.300520,9.240000,-106.400002,-26.040001,21.36
5765505,0.245952,-0.225944,1.248304,8.610000,-112.980003,-26.809999,21.37
5765516,0.271816,-0.231312,1.213656,7.560000,-119.629997,-27.230000,21.37
5765527,0.261080,-0.209352,1.199016,9.100000,-126.769997,-28.629999,21.39
5765538,0.253760,-0.193736,1.171688,10.500000,-134.960007,-30.030001,21.41
5765550,0.273768,-0.217648,1.121912,14.210000,-141.889999,-31.219999,21.41
5765560,0.302560,-0.217648,1.043832,21.139999,-146.860001,-31.920000,21.34
5765571,0.335744,-0.244488,0.967704,31.430000,-150.500000,-33.389999,21.34
5765582,0.367952,-0.199592,0.899872,36.400002,-152.529999,-32.970001,21.37
5765593,0.395280,-0.157136,0.820328,43.959999,-152.110001,-31.219999,21.36
5765604,0.401624,-0.087352,0.737856,46.200001,-151.410004,-30.170000,21.36
5765615,0.438712,-0.033184,0.652944,45.500000,-148.539993,-26.740000,21.40
5765626,0.475800,0.019032,0.568032,43.610001,-126.559998,-22.540001,21.40
5765637,0.518256,0.043432,0.463600,38.500000,-137.270004,-19.110001,21.38
5765648,0.547048,0.063928,0.377224,32.410000,-127.260002,-14.070000,21.38
5765659,0.573888,0.064904,0.300608,24.080000,-119.489998,-9.240000,21.34
5765670,0.617808,0.066368,0.247904,17.080000,-106.959999,-5.880000,21.33
5765681,0.639280,0.031232,0.208864,12.250000,-93.589996,-3.360000,21.33
5765692,0.660264,-0.020008,0.190808,10.640000,-80.010002,-1.330000,21.36
5765703,0.665144,-0.044896,0.187880,8.890000,-69.580002,0.070000,21.36
5765714,0.663680,-0.081984,0.183976,12.040000,-57.259998,0.000000,21.32
5765726,0.671488,-0.107360,0.178608,17.360001,-45.709999,-0.350000,21.37
5765742,0.697352,-0.110776,0.176168,25.969999,-29.330000,-0.280000,21.36
5765754,0.694912,-0.102968,0.175192,30.100000,-17.010000,-0.910000,21.36
5765765,0.688080,-0.081496,0.198128,30.520000,-5.460000,-0.070000,21.36
5765777,0.666608,-0.038064,0.229848,29.469999,4.760000,0.280000,21.36
5765789,0.652944,-0.016104,0.250832,24.780001,12.600000,0.700000,21.36
5765799,0.658312,-0.028304,0.279624,21.629999,21.070000,1.470000,21.39
5765810,0.625616,-0.007808,0.221064,17.639999,25.969999,0.630000,21.39
5765822,0.659776,-0.039040,0.325008,12.390000,34.930000,3.220000,21.35
5765833,0.656360,-0.053192,0.363560,9.310000,41.369999,3.430000,21.35
5765844,0.643184,-0.071736,0.382104,9.730000,47.529999,2.590000,21.36
5765855,0.645136,-0.071248,0.403088,10.220000,51.660000,2.800000,21.34
5765865,0.639768,-0.060512,0.425048,9.590000,56.139999,2.310000,21.34
5765876,0.637816,-0.059048,0.454816,9.940000,60.549999,2.170000,21.34
5765887,0.630984,-0.022936,0.493856,6.020000,63.700001,2.590000,21.34
5765898,0.626592,-0.008784,0.524600,0.000000,66.639999,3.640000,21.38
5765909,0.627568,-0.014640,0.550952,-4.690000,69.300003,4.900000,21.38
5765920,0.613416,0.000000,0.584136,-9.520000,72.029999,6.020000,21.41
5765930,0.506544,-0.047824,0.569984,-12.320000,66.290001,3.220000,21.29
5765942,0.611464,-0.037576,0.628544,-17.219999,81.339996,9.310000,21.29
5765953,0.604632,0.000488,0.700768,-23.799999,85.610001,11.130000,21.37
5765964,0.542656,-0.015616,0.751520,-30.030001,81.480003,9.380000,21.37
5765975,0.534848,-0.040016,0.771528,-37.310001,83.580002,11.760000,21.35
5765986,0.531432,-0.063440,0.780800,-37.660000,84.349998,13.300000,21.39
5765997,0.526064,-0.101016,0.764208,-35.770000,85.330002,12.250000,21.39
5766009,0.509472,-0.141520,0.751032,-31.080000,87.290001,11.410000,21.35
5766020,0.497272,-0.103944,0.808128,-29.260000,87.220001,13.510000,21.35
5766031,0.467504,-0.067832,0.884744,-32.340000,85.889999,13.300000,21.38
5766042,0.447496,-0.123952,0.918904,-32.480000,85.400002,12.110000,21.37
5766053,0.443592,-0.149816,0.922808,-28.139999,84.209999,11.480000,21.37
5766064,0.433344,-0.157624,0.899384,-22.820000,83.230003,10.150000,21.39
5766075,0.423584,-0.174216,0.875960,-20.160000,82.809998,8.960000,21.39
5766086,0.423096,-0.226920,0.829600,-17.780001,82.669998,12.390000,21.36
5766097,0.381616,-0.149816,0.959896,-17.850000,80.849998,8.610000,21.37
5766108,0.376736,-0.114680,0.997960,-23.240000,79.239998,11.060000,21.37
5766119,0.355752,-0.097112,1.018456,-27.580000,75.949997,11.830000,21.37
5766130,0.340624,-0.129808,1.008208,-31.709999,73.989998,11.200000,21.37
5766141,0.340136,-0.193736,1.026264,-32.060001,71.750000,13.230000,21.40
5766152,0.330864,-0.182024,1.066280,-33.740002,69.019997,15.050000,21.34
5766163,0.306464,-0.190808,1.102392,-34.369999,66.010002,15.680000,21.34
5766174,0.288896,-0.203496,1.131184,-32.759998,62.790001,14.770000,21.35
5766185,0.285968,-0.224968,1.142896,-28.559999,58.450001,14.420000,21.35
5766196,0.287920,-0.252296,1.140944,-25.969999,54.740002,14.280000,21.35
5766207,0.295240,-0.274744,1.129720,-21.070000,53.130001,13.370000,21.35
5766217,0.278648,-0.277184,1.125816,-14.280000,50.119999,13.090000,21.38
5766228,0.261568,-0.239608,1.138504,-10.570000,46.619999,12.250000,21.34
5766239,0.266936,-0.213256,1.167296,-10.360000,41.930000,12.390000,21.34
5766250,0.272304,-0.210816,1.174616,-11.130000,38.360001,11.970000,21.37
5766261,0.262056,-0.273768,1.161928,-12.670000,36.189999,13.720000,21.37
5766279,0.218136,-0.320616,1.135088,0.490000,34.020000,10.220000,21.37
5766292,0.164944,-0.223992,1.180960,3.290000,27.580000,8.750000,21.38
5766304,0.186416,-0.197640,1.252696,-6.720000,20.790001,8.820000,21.39
5766317,0.219112,-0.250832,1.317112,-14.210000,14.700000,7.700000,21.39
5766329,0.199592,-0.299144,1.365424,-18.200001,6.440000,6.300000,21.38
5766340,0.210328,-0.372832,1.383480,-16.309999,2.660000,4.550000,21.38
5766351,0.192760,-0.437248,1.372744,-4.130000,-3.710000,0.490000,21.38
5766362,0.190320,-0.452376,1.362496,5.810000,-10.570000,-1.680000,21.36
5766373,0.185440,-0.425536,1.357128,13.510000,-16.590000,-7.140000,21.36
5766384,0.168848,-0.416264,1.367376,22.889999,-22.120001,-10.640000,21.38
5766395,0.169336,-0.372832,1.387384,27.860001,-30.660000,-13.300000,21.38
5766406,0.193248,-0.345992,1.407880,28.280001,-38.430000,-15.610000,21.36
5766416,0.202520,-0.305488,1.440088,26.670000,-45.290001,-16.799999,21.32
5766427,0.192760,-0.239608,1.449360,19.600000,-55.860001,-18.270000,21.32
5766438,0.204960,-0.265472,1.455704,13.510000,-64.680000,-19.389999,21.36
5766449,0.189344,-0.314760,1.416664,15.260000,-71.750000,-22.120001,21.36
5766461,0.164944,-0.250344,1.373232,15.260000,-82.599998,-22.680000,21.37
5766472,0.182512,-0.181048,1.364448,6.790000,-94.220001,-22.680000,21.37
5766483,0.216672,-0.176168,1.341512,-1.540000,-103.809998,-23.660000,21.37
5766494,0.244976,-0.220576,1.319552,-9.170000,-111.089996,-24.500000,21.34
5766505,0.245952,-0.196176,1.294176,-10.500000,-121.800003,-25.270000,21.34
5766516,0.284504,-0.167384,1.275632,-9.870000,-132.229996,-25.969999,21.39
5766528,0.327448,-0.122976,1.239520,-12.040000,-139.789993,-25.340000,21.37
5766539,0.348432,-0.171776,1.178032,-11.200000,-144.479996,-26.250000,21.37
5766550,0.336232,-0.192272,1.071648,-1.820000,-148.610001,-27.719999,21.39
5766561,0.360144,-0.171288,0.984296,6.090000,-153.160004,-27.650000,21.39
5766572,0.372344,-0.111752,0.895968,11.200000,-155.889999,-27.440001,21.33
5766583,0.404552,-0.077592,0.793000,11.130000,-157.009995,-24.920000,21.36
5766594,0.442128,-0.078568,0.690520,10.220000,-155.539993,-22.260000,21.36
5766605,0.479216,-0.105896,0.627568,12.600000,-151.830002,-20.930000,21.38
5766616,0.507520,-0.120048,0.542656,17.219999,-145.740005,-18.900000,21.38
5766627,0.530456,-0.111264,0.453840,21.770000,-140.559998,-16.309999,21.39
5766638,0.560712,-0.097112,0.378200,26.389999,-131.320007,-14.560000,21.35
5766649,0.582672,-0.080520,0.286456,28.280001,-120.470001,-11.550000,21.35
5766659,0.603656,-0.044408,0.234240,26.110001,-111.160004,-8.120000,21.37
5766670,0.628056,-0.031232,0.210816,19.389999,-97.300003,-5.950000,21.37
5766681,0.632936,-0.028304,0.180072,13.090000,-85.959999,-2.870000,21.39
5766692,0.650504,-0.065392,0.167384,5.180000,-75.949997,-0.700000,21.39
5766703,0.662704,-0.100528,0.140056,3.080000,-62.720001,-0.280000,21.37
5766714,0.673440,-0.142984,0.124440,4.480000,-50.540001,0.350000,21.36
5766725,0.687104,-0.164944,0.123464,5.950000,-40.459999,1.050000,21.36
5766735,0.684176,-0.179096,0.135176,9.590000,-28.559999,0.630000,21.38
5766747,0.674416,-0.192272,0.154208,16.100000,-17.850000,-0.350000,21.38
5766758,0.675392,-0.205936,0.165920,21.700001,-9.940000,-1.680000,21.38
5766769,0.690032,-0.193248,0.168360,25.620001,-0.070000,-2.800000,21.36
5766780,0.702232,-0.179096,0.180072,28.490000,10.080000,-3.010000,21.36
5766790,0.698328,-0.140056,0.198616,29.120001,19.809999,-3.850000,21.36
5766801,0.694424,-0.120048,0.226432,27.160000,27.090000,-4.480000,21.36
5766812,0.684664,-0.112728,0.251320,26.740000,35.630001,-5.740000,21.38
5766823,0.674904,-0.096136,0.294264,25.480000,41.090000,-5.110000,21.38
5766834,0.675880,-0.090280,0.343552,24.430000,46.900002,-4.900000,21.37
5766845,0.665144,-0.071248,0.391376,22.540001,51.660000,-4.480000,21.35
5766855,0.662216,-0.069296,0.436760,20.930000,55.439999,-4.480000,21.35
5766866,0.652456,-0.062464,0.455304,19.879999,59.779999,-4.270000,21.38
5766877,0.645136,-0.038064,0.468480,17.639999,63.700001,-3.430000,21.38
5766888,0.646112,-0.026840,0.469456,14.910000,67.690002,-2.590000,21.37
5766899,0.643672,-0.002440,0.487024,8.610000,72.730003,-0.420000,21.39
5766909,0.537776,0.011712,0.522160,5.110000,85.889999,-0.700000,21.39
5766920,0.632448,-0.039040,0.524600,2.380000,84.559998,3.920000,21.37
5766931,0.630008,0.002440,0.555344,2.590000,90.230003,6.440000,21.37
5766941,0.598776,0.012200,0.579744,0.420000,89.110001,4.550000,21.34
5766952,0.576816,-0.002440,0.623664,-7.910000,92.470001,8.330000,21.34
5766963,0.569984,-0.015128,0.703208,-11.340000,93.940002,10.920000,21.38
5766974,0.550464,-0.015616,0.786168,-19.110001,95.760002,12.530000,21.35
5766985,0.525088,-0.042944,0.801296,-22.260000,96.879997,13.300000,21.35
5766996,0.491416,-0.060024,0.789096,-23.240000,96.389999,14.140000,21.39
5767008,0.471896,-0.085888,0.767136,-22.610001,95.339996,13.090000,21.39
5767019,0.478240,-0.086864,0.785192,-23.100000,95.970001,14.350000,21.42
5767030,0.480680,-0.076616,0.879376,-34.230000,95.269997,17.500000,21.37
5767041,0.460184,-0.113216,0.976976,-39.970001,94.989998,18.340000,21.37
5767052,0.429928,-0.135176,1.071648,-43.750000,91.559998,20.230000,21.37
5767063,0.404552,-0.174704,1.110200,-43.189999,85.470001,19.670000,21.37
5767074,0.389912,-0.212280,1.097512,-39.480000,80.709999,18.200001,21.38
5767084,0.387960,-0.269376,1.057496,-34.020000,76.790001,15.960000,21.38
5767095,0.387472,-0.299144,1.008696,-22.120001,75.320000,13.440000,21.40
5767106,0.390400,-0.295240,1.007232,-12.740000,74.339996,12.600000,21.32
5767117,0.381616,-0.251808,1.057496,-9.310000,72.940002,12.810000,21.32
5767128,0.335744,-0.223016,1.123864,-4.270000,69.370003,12.180000,21.34
5767139,0.340624,-0.202032,1.152168,-2.170000,64.610001,11.690000,21.34
5767150,0.344528,-0.207400,1.148752,2.030000,61.950001,11.060000,21.36
5767160,0.337696,-0.174704,1.118984,5.040000,58.590000,9.800000,21.36
5767171,0.342088,-0.186904,1.090192,5.320000,56.770000,9.870000,21.36
5767182,0.314272,-0.175192,1.061400,8.680000,57.119999,9.800000,21.33
5767193,0.280112,-0.122488,1.085800,1.050000,53.759998,12.880000,21.33
5767203,0.262056,-0.117120,1.132160,-6.090000,51.590000,14.560000,21.39
5767214,0.245464,-0.109312,1.162416,-16.590000,46.060001,16.030001,21.39
5767225,0.253272,-0.174216,1.185352,-22.610001,40.320000,16.940001,21.39
5767236,0.267912,-0.210328,1.205360,-23.240000,36.959999,16.379999,21.36
5767247,0.266936,-0.226432,1.208288,-22.959999,33.180000,16.520000,21.36
5767258,0.273768,-0.318176,1.193648,-20.580000,31.150000,14.910000,21.39
5767268,0.251320,-0.374784,1.176080,-10.990000,30.030001,11.550000,21.39
5767279,0.210816,-0.394792,1.166808,4.200000,26.040001,9.170000,21.36
5767290,0.187880,-0.339160,1.171200,12.180000,21.559999,6.720000,21.36
5767301,0.192272,-0.295240,1.219024,13.300000,17.010000,5.390000,21.35
5767311,0.202032,-0.291336,1.281488,8.890000,10.570000,4.270000,21.34
5767322,0.203984,-0.292800,1.344928,6.650000,5.040000,2.100000,21.34
5767333,0.188856,-0.294752,1.364936,3.920000,-3.430000,0.070000,21.36
5767343,0.192272,-0.316712,1.382992,3.780000,-11.760000,-2.380000,21.36
5767354,0.192760,-0.306464,1.395680,2.240000,-18.900000,-4.620000,21.36
5767365,0.196176,-0.348432,1.384944,3.430000,-26.950001,-7.840000,21.39
5767376,0.205448,-0.365512,1.356152,5.880000,-34.720001,-12.040000,21.39
5767387,0.212768,-0.356728,1.321992,8.680000,-40.740002,-14.980000,21.36
5767398,0.222528,-0.351360,1.305400,10.850000,-47.880001,-17.219999,21.36
5767409,0.232288,-0.339160,1.298568,13.160000,-54.880001,-20.370001,21.36
5767420,0.241560,-0.309880,1.294176,15.540000,-60.549999,-22.540001,21.36
5767431,0.243024,-0.281576,1.296128,15.330000,-67.410004,-23.799999,21.37
5767442,0.231800,-0.246440,1.297104,13.720000,-74.830002,-25.340000,21.36
5767453,0.231800,-0.219600,1.274656,11.830000,-81.760002,-26.530001,21.36
5767464,0.247904,-0.217648,1.242936,9.870000,-89.459999,-27.299999,21.38
5767475,0.276696,-0.210328,1.216096,9.590000,-96.040001,-28.070000,21.38
5767486,0.299144,-0.184952,1.185840,7.630000,-102.269997,-28.070000,21.39
5767496,0.315248,-0.182512,1.176568,5.600000,-107.309998,-28.840000,21.39
5767507,0.330376,-0.189832,1.156560,6.510000,-112.559998,-29.330000,21.39
5767518,0.323544,-0.171288,1.097512,9.100000,-118.160004,-30.030001,21.39
5767529,0.344040,-0.176168,1.024312,14.070000,-121.660004,-30.870001,21.39
5767540,0.371368,-0.169336,0.962824,20.020000,-124.250000,-30.309999,21.36
5767551,0.413336,-0.148352,0.905240,23.100000,-125.160004,-28.910000,21.36
5767562,0.430904,-0.117120,0.863272,28.629999,-125.370003,-27.719999,21.37
5767573,0.445544,-0.077104,0.833504,30.170000,-124.669998,-26.040001,21.38
5767584,0.453352,-0.043432,0.779336,30.730000,-123.830002,-24.500000,21.38
5767595,0.462136,0.000000,0.711992,28.350000,-123.550003,-21.209999,21.40
5767606,0.505568,0.013664,0.657824,22.049999,-121.660004,-18.900000,21.40
5767616,0.542656,0.018544,0.604632,16.170000,-118.510002,-14.910000,21.34
5767627,0.569984,0.048312,0.541192,6.090000,-115.430000,-12.390000,21.34
5767638,0.606096,0.024888,0.474824,-1.260000,-108.010002,-9.450000,21.34
5767649,0.633424,0.014152,0.400160,-5.040000,-98.419998,-7.210000,21.38
5767660,0.648552,-0.006344,0.352336,-8.540000,-90.580002,-4.200000,21.38
5767671,0.668072,-0.028304,0.331352,-8.960000,-79.800003,-3.080000,21.36
5767682,0.670024,-0.051728,0.324032,-9.170000,-68.879997,-0.560000,21.36
5767693,0.660752,-0.067344,0.315248,-4.900000,-61.389999,0.210000,21.37
5767704,0.663192,-0.071248,0.329400,-0.140000,-52.220001,1.750000,21.32
5767715,0.667096,-0.085888,0.332328,6.860000,-43.049999,1.540000,21.32
5767726,0.666120,-0.097600,0.322080,12.390000,-35.070000,2.170000,21.33
5767737,0.675880,-0.091256,0.326472,17.010000,-28.490000,3.010000,21.33
5767748,0.673440,-0.062952,0.318664,17.920000,-20.370001,3.360000,21.36
5767758,0.670024,-0.053192,0.322080,16.870001,-14.910000,3.990000,21.33
5767769,0.677344,-0.055632,0.334768,13.580000,-8.330000,4.550000,21.33
5767780,0.676856,-0.059048,0.339160,10.500000,-2.310000,4.620000,21.32
5767791,0.687592,-0.077104,0.352824,5.040000,2.590000,5.600000,21.32
5767802,0.686128,-0.101504,0.352336,3.500000,9.240000,4.900000,21.35
5767812,0.680760,-0.117120,0.349896,4.620000,15.260000,4.690000,21.35
5767823,0.682224,-0.116632,0.359656,6.300000,19.950001,3.850000,21.39
5767834,0.673928,-0.121512,0.374296,7.700000,25.549999,3.150000,21.34
5767844,0.677832,-0.128344,0.396256,9.660000,29.959999,2.450000,21.34
5767855,0.673928,-0.122488,0.413824,11.060000,35.349998,1.610000,21.37
5767866,0.667096,-0.120048,0.434320,11.970000,39.130001,1.400000,21.37
5767876,0.671488,-0.113216,0.449936,12.530000,43.189999,1.610000,21.36
5767887,0.671000,-0.090280,0.476288,13.160000,47.810001,1.540000,21.36
5767898,0.659288,-0.064416,0.508496,11.760000,50.610001,2.030000,21.36
5767909,0.656360,-0.060024,0.549488,7.490000,53.619999,3.150000,21.29
5767919,0.646112,-0.058072,0.590968,5.390000,56.419998,3.360000,21.29
5767930,0.579744,-0.078080,0.584136,5.040000,52.290001,1.820000,21.36
5767941,0.651968,-0.083936,0.614880,1.680000,64.120003,6.930000,21.36
5767952,0.658800,-0.075152,0.634888,2.800000,69.720001,6.370000,21.32
5767962,0.612440,-0.078568,0.646600,2.240000,68.529999,4.620000,21.34
5767973,0.610488,-0.085400,0.670512,0.910000,71.750000,5.250000,21.34
5767984,0.572424,-0.072712,0.707600,1.050000,72.449997,6.090000,21.38
5767995,0.561688,-0.080032,0.731512,0.140000,74.480003,6.650000,21.38
5768005,0.554856,-0.076128,0.748104,0.560000,75.459999,6.440000,21.37
5768016,0.558760,-0.077104,0.735416,0.700000,77.629997,6.440000,21.37
5768027,0.561200,-0.069296,0.763232,-3.710000,79.169998,8.260000,21.33
5768038,0.549488,-0.071248,0.814472,-5.390000,80.290001,8.330000,21.30
5768049,0.518744,-0.053680,0.855464,-9.800000,80.779999,9.730000,21.30
5768059,0.487024,-0.035624,0.884744,-13.860000,79.870003,10.150000,21.35
5768070,0.458720,-0.057584,0.869616,-18.200001,78.050003,10.360000,21.35
5768081,0.449448,-0.097112,0.860832,-17.500000,77.139999,10.080000,21.36
5768092,0.448472,-0.101504,0.857904,-16.870001,76.089996,10.500000,21.36
5768102,0.471408,-0.104432,0.909632,-20.719999,75.459999,12.530000,21.34
5768113,0.467992,-0.101992,0.991616,-21.770000,74.830002,12.950000,21.38
5768124,0.434320,-0.104432,1.027728,-23.520000,73.080002,13.720000,21.38
5768135,0.395280,-0.124440,1.023336,-21.840000,70.349998,12.810000,21.36
5768146,0.377712,-0.150792,0.999912,-20.020000,66.709999,13.020000,21.36
5768157,0.382104,-0.168848,0.986248,-15.820000,64.820000,13.230000,21.37
5768168,0.388448,-0.165432,0.984296,-14.350000,64.120003,13.790000,21.37
5768178,0.379664,-0.185440,1.008696,-14.910000,62.860001,13.020000,21.36
5768189,0.352824,-0.208376,1.068232,-13.510000,60.830002,13.720000,21.36
5768200,0.344040,-0.213256,1.106784,-10.920000,56.209999,13.300000,21.36
5768211,0.350872,-0.201544,1.133624,-9.170000,52.080002,12.390000,21.35
5768222,0.345992,-0.199104,1.124352,-8.680000,49.139999,11.690000,21.35
5768233,0.359168,-0.231312,1.120448,-8.470000,46.340000,11.480000,21.38
5768244,0.346480,-0.225456,1.117520,-6.860000,45.360001,9.730000,21.39
5768254,0.317688,-0.230824,1.096048,-4.760000,43.540001,8.610000,21.39
5768265,0.304512,-0.237656,1.082384,-2.380000,42.000000,8.050000,21.37
5768276,0.296216,-0.206424,1.088728,-0.980000,39.830002,8.190000,21.37
5768287,0.308904,-0.178120,1.129720,-3.640000,37.169998,8.610000,21.37
5768298,0.284992,-0.109800,1.190720,-9.310000,32.689999,9.590000,21.37
5768309,0.293776,-0.149328,1.230736,-18.900000,28.559999,10.570000,21.41
5768320,0.307440,-0.238632,1.208288,-19.670000,27.580000,9.800000,21.34
5768331,0.269376,-0.286944,1.163880,-10.220000,26.459999,7.980000,21.34
5768342,0.243024,-0.245464,1.113616,-5.250000,24.990000,8.120000,21.39
5768353,0.218624,-0.211304,1.114592,-5.040000,22.049999,7.140000,21.39
5768363,0.213256,-0.208864,1.162416,-9.030000,15.820000,7.210000,21.39
5768374,0.239120,-0.265472,1.244400,-10.220000,13.020000,6.720000,21.34
5768385,0.239608,-0.264496,1.285880,-6.720000,8.050000,5.600000,21.34
5768396,0.237168,-0.289384,1.281488,-1.680000,2.380000,4.200000,21.36
5768407,0.246440,-0.292800,1.269288,4.270000,-1.680000,0.980000,21.36
5768418,0.220088,-0.248392,1.276608,5.390000,-6.720000,0.350000,21.34
5768428,0.208376,-0.278160,1.277096,6.510000,-11.690000,-3.010000,21.34
5768439,0.190320,-0.274744,1.270752,10.290000,-17.219999,-4.620000,21.34
5768450,0.201056,-0.261568,1.255624,12.880000,-24.500000,-5.810000,21.33
5768461,0.214720,-0.246440,1.242936,13.930000,-30.170000,-7.420000,21.33
5768472,0.225456,-0.210328,1.244888,12.950000,-34.860001,-8.120000,21.37
5768483,0.232288,-0.204472,1.250744,9.310000,-40.599998,-9.170000,21.37
5768494,0.246440,-0.233264,1.241960,10.360000,-44.520000,-11.130000,21.37
5768505,0.243512,-0.218136,1.208776,12.320000,-50.189999,-11.270000,21.34
5768516,0.261080,-0.202032,1.173152,12.600000,-53.900002,-11.410000,21.34
5768527,0.271816,-0.198128,1.141432,11.900000,-57.259998,-12.180000,21.36
5768538,0.280112,-0.209840,1.119472,11.830000,-61.040001,-12.950000,21.36
5768549,0.292800,-0.192272,1.109712,13.090000,-63.419998,-13.160000,21.33
5768560,0.308416,-0.162504,1.119472,10.570000,-67.550003,-12.180000,21.35
5768571,0.307928,-0.154208,1.123864,8.610000,-71.400002,-11.970000,21.35
5768582,0.312808,-0.164944,1.138016,7.490000,-76.160004,-11.550000,21.34
5768593,0.325984,-0.159088,1.138504,6.510000,-80.290001,-11.690000,21.34
5768604,0.338184,-0.186904,1.136064,4.900000,-85.190002,-12.040000,21.37
5768615,0.344040,-0.205936,1.115568,6.160000,-89.529999,-12.880000,21.37
5768626,0.335256,-0.188368,1.112640,4.270000,-95.900002,-11.900000,21.37
5768637,0.338672,-0.194712,1.146312,4.340000,-101.989998,-13.300000,21.34
5768649,0.348432,-0.177632,1.149728,2.940000,-109.550003,-14.840000,21.34
5768660,0.374784,-0.207888,1.128744,3.780000,-115.989998,-15.750000,21.40
5768671,0.399672,-0.228872,1.067256,6.370000,-122.150002,-17.850000,21.40
5768682,0.418704,-0.278160,0.985272,12.390000,-125.370003,-20.510000,21.33
5768693,0.447008,-0.300608,0.900360,24.780001,-128.309998,-23.520000,21.35
5768704,0.469944,-0.280600,0.822280,37.450001,-129.919998,-25.830000,21.35
5768716,0.492392,-0.223504,0.765184,45.360001,-129.080002,-26.459999,21.34
5768727,0.495320,-0.142984,0.669048,48.930000,-126.839996,-25.620001,21.34
5768738,0.505568,-0.068808,0.572424,46.970001,-124.809998,-24.290001,21.39
5768749,0.536800,-0.018056,0.521672,36.330002,-122.500000,-23.379999,21.34
5768760,0.615856,0.020496,0.473848,34.580002,-115.220001,-19.040001,21.34
5768770,0.595848,0.043432,0.401136,28.209999,-111.510002,-17.010000,21.35
5768781,0.650016,0.037576,0.349896,21.000000,-98.980003,-18.410000,21.35
5768792,0.623176,0.031232,0.291336,16.240000,-88.339996,-12.810000,21.38
5768803,0.637816,0.045384,0.246440,13.160000,-79.730003,-9.730000,21.32
5768815,0.648552,0.027328,0.210816,9.590000,-68.739998,-8.050000,21.32
5768826,0.659288,0.002928,0.186416,9.380000,-57.330002,-6.090000,21.32
5768837,0.682224,0.002440,0.191784,7.560000,-46.900002,-3.010000,21.32
5768848,0.709552,-0.019520,0.224480,7.070000,-38.779999,-1.960000,21.36
5768859,0.714920,-0.007808,0.266936,6.090000,-28.629999,-0.630000,21.37
5768870,0.713944,-0.030744,0.292312,4.900000,-19.809999,-0.070000,21.37
5768881,0.696376,-0.007320,0.306952,4.690000,-11.760000,0.980000,21.33
5768892,0.698816,-0.010736,0.288896,2.450000,-5.460000,1.190000,21.33
5768903,0.705160,-0.038064,0.263520,1.260000,3.990000,0.910000,21.32
5768914,0.707112,-0.044408,0.265472,0.350000,12.810000,1.470000,21.32
5768924,0.699304,-0.020496,0.299144,-2.030000,19.040001,1.610000,21.36
5768935,0.699304,-0.023912,0.325984,-5.530000,25.270000,1.890000,21.35
5768946,0.710040,-0.052216,0.353800,-6.580000,31.500000,2.590000,21.35
5768957,0.716872,-0.064416,0.368440,-6.860000,36.119999,2.870000,21.31
5768968,0.719800,-0.081984,0.379176,-5.110000,42.000000,2.800000,21.31
5768979,0.714432,-0.072224,0.398208,-3.010000,48.090000,2.380000,21.37
5768990,0.703208,-0.050752,0.428464,-2.870000,52.500000,3.080000,21.34
5769001,0.685152,-0.037088,0.453840,-3.570000,57.540001,3.430000,21.34
5769012,0.663192,-0.021960,0.493368,-6.650000,61.599998,4.830000,21.38
5769025,0.642696,-0.033672,0.552416,-10.920000,64.820000,6.720000,21.38
5769036,0.637328,-0.036112,0.586576,-13.160000,66.290001,8.050000,21.37
5769047,0.623176,-0.050264,0.592920,-13.860000,68.040001,7.490000,21.32
5769058,0.669536,-0.052216,0.608048,-13.090000,76.019997,7.700000,21.32
5769069,0.563640,-0.097112,0.585112,-12.250000,72.870003,7.420000,21.36
5769080,0.621712,-0.082472,0.619760,-14.070000,77.419998,13.510000,21.36
5769091,0.634888,-0.078568,0.663680,-10.920000,82.529999,9.240000,21.36
5769102,0.562176,-0.092232,0.681248,-7.490000,82.669998,9.100000,21.41
5769113,0.579744,-0.096624,0.685640,-4.130000,85.959999,9.870000,21.41
5769124,0.553880,-0.072224,0.711992,-5.670000,87.709999,10.640000,21.33
5769135,0.524112,-0.047824,0.764208,-9.030000,88.339996,11.480000,21.33
5769147,0.501664,-0.051240,0.803736,-12.600000,88.480003,11.900000,21.34
5769157,0.484584,-0.061488,0.812520,-16.030001,87.849998,13.160000,21.34
5769168,0.480192,-0.052216,0.818864,-21.139999,87.639999,14.840000,21.34
5769179,0.473848,-0.074176,0.832528,-24.430000,88.339996,14.980000,21.34
5769190,0.470920,-0.086376,0.882304,-31.360001,89.529999,16.940001,21.34
5769201,0.420168,-0.136640,0.933056,-32.130001,88.970001,16.870001,21.36
5769212,0.425048,-0.113704,0.991616,-36.750000,85.190002,18.549999,21.36
5769223,0.379664,-0.147376,1.029680,-37.029999,81.480003,17.010000,21.34
5769234,0.368440,-0.189344,1.029192,-32.900002,76.510002,16.660000,21.31
5769245,0.375760,-0.202032,1.024800,-27.580000,73.639999,16.660000,21.31
5769256,0.378200,-0.199592,1.023824,-26.040001,53.900002,16.730000,21.38
5769267,0.369416,-0.203984,1.042856,-26.320000,71.050003,16.870001,21.38
5769278,0.323544,-0.235704,1.077992,-23.730000,67.900002,16.170000,21.34
5769289,0.310856,-0.234240,1.136552,-21.980000,64.470001,16.240000,21.35
5769300,0.305000,-0.232776,1.170224,-18.059999,59.360001,16.520000,21.35
5769312,0.303048,-0.221064,1.184864,-14.630000,52.430000,15.610000,21.37
5769323,0.325008,-0.243512,1.186328,-10.710000,49.000000,13.790000,21.37
5769334,0.332328,-0.241560,1.196088,-9.170000,45.570000,14.070000,21.37
5769345,0.320128,-0.230824,1.223904,-9.450000,40.950001,14.350000,21.30
5769356,0.298168,-0.236680,1.235128,-8.400000,36.610001,12.530000,21.30
5769367,0.296216,-0.271328,1.242448,-5.810000,30.940001,11.830000,21.34
5769378,0.287920,-0.251320,1.228784,-2.520000,26.809999,10.640000,21.34
5769389,0.275720,-0.220088,1.222928,-4.900000,20.860001,11.760000,21.38
5769401,0.288896,-0.229360,1.218536,-11.200000,20.440001,9.450000,21.33
5769411,0.298656,-0.301584,1.217072,-11.480000,15.960000,8.610000,21.33
5769422,0.277672,-0.342576,1.239520,-6.160000,11.340000,6.230000,21.33
5769433,0.280112,-0.351848,1.272216,-2.030000,7.700000,4.270000,21.33
5769444,0.267912,-0.345992,1.285880,3.920000,1.820000,1.890000,21.32
5769455,0.258640,-0.349408,1.291248,8.820000,-4.970000,-0.350000,21.33
5769466,0.265472,-0.341112,1.281000,13.020000,-10.010000,-3.570000,21.33
5769477,0.264008,-0.353800,1.264896,18.549999,-14.000000,-6.580000,21.36
5769488,0.270840,-0.360144,1.260016,27.440001,-18.830000,-9.240000,21.36
5769500,0.256688,-0.282064,1.240008,31.990000,-23.590000,-11.550000,21.38
5769511,0.254248,-0.224968,1.231712,29.400000,-30.309999,-11.690000,21.30
5769523,0.266936,-0.183976,1.243912,25.340000,-36.119999,-11.900000,21.30
5769534,0.280112,-0.187392,1.245376,18.200001,-42.490002,-12.110000,21.36
5769545,0.305000,-0.208864,1.233176,14.840000,-46.480000,-13.370000,21.36
5769556,0.304512,-0.205448,1.196576,15.050000,-51.169998,-14.630000,21.37
5769567,0.308904,-0.210328,1.157536,14.700000,-55.930000,-14.700000,21.37
5769578,0.314760,-0.184952,1.135576,15.610000,-59.570000,-14.980000,21.34
5769589,0.306952,-0.163480,1.118008,13.370000,-64.190002,-14.350000,21.32
5769600,0.320128,-0.185928,1.105808,14.910000,-68.250000,-15.330000,21.32
5769611,0.338672,-0.164456,1.088728,17.360001,-72.239998,-15.330000,21.34
5769622,0.345504,-0.124928,1.082384,17.150000,-75.459999,-14.350000,21.34
5769633,0.359168,-0.096136,1.086288,14.280000,-79.239998,-13.790000,21.35
5769644,0.354776,-0.056608,1.070184,8.260000,-83.860001,-12.040000,21.34
5769655,0.359168,-0.085400,1.040416,4.060000,-88.339996,-11.270000,21.34
5769666,0.374296,-0.113704,1.022848,2.870000,-90.790001,-10.850000,21.37
5769677,0.382592,-0.134200,0.993568,5.040000,-95.059998,-10.710000,21.37
5769689,0.415288,-0.159576,0.943792,9.660000,-98.699997,-12.110000,21.37
5769700,0.422608,-0.157624,0.940376,14.490000,-99.959999,-11.130000,21.34
5769711,0.444568,-0.184952,0.892064,20.440001,-101.430000,-11.620000,21.34
5769722,0.467504,-0.180072,0.846680,27.370001,-101.220001,-12.110000,21.33
5769733,0.481656,-0.151768,0.809104,32.410000,-100.870003,-10.990000,21.33
5769744,0.501176,-0.093696,0.793488,32.970001,-100.730003,-10.080000,21.34
5769755,0.519232,-0.059536,0.783728,29.820000,-98.980003,-8.190000,21.34
5769766,0.514840,-0.040016,0.744688,24.709999,-98.349998,-6.230000,21.34
5769777,0.516792,-0.033184,0.741760,14.350000,-98.699997,-7.770000,21.37
5769788,0.571448,-0.069784,0.658312,18.830000,-93.519997,-4.410000,21.37
5769800,0.572424,-0.056608,0.621224,15.610000,-90.089996,-3.570000,21.39
5769811,0.603656,-0.077104,0.573888,14.980000,-85.470001,-3.500000,21.34
5769822,0.610976,-0.083936,0.524600,15.960000,-79.940002,-3.220000,21.34
5769833,0.626104,-0.092232,0.479704,16.240000,-73.500000,-2.730000,21.36
5769844,0.633912,-0.102968,0.442616,17.850000,-67.129997,-2.380000,21.36
5769855,0.643672,-0.107848,0.407968,20.370001,-61.180000,-2.590000,21.33
5769866,0.662216,-0.101504,0.404064,21.139999,-53.200001,-2.590000,21.31
5769877,0.662704,-0.085888,0.394304,21.139999,-45.080002,-2.870000,21.31
5769888,0.655872,-0.072224,0.394304,18.200001,-38.009998,-2.800000,21.36
5769899,0.658800,-0.082472,0.388936,17.080000,-31.780001,-3.710000,21.36
5769910,0.637328,-0.068808,0.392352,13.020000,-25.340000,-7.070000,21.33
5769921,0.683688,-0.108824,0.339648,17.080000,-16.240000,-4.060000,21.33
5769933,0.692960,-0.081984,0.342088,16.940001,-10.150000,-4.830000,21.32
5769944,0.699304,-0.083936,0.348432,17.709999,-1.260000,-5.530000,21.34
5769955,0.690520,-0.071248,0.353800,17.709999,6.860000,-5.670000,21.34
5769966,0.673928,-0.063440,0.344528,16.870001,14.280000,-6.720000,21.36
5769977,0.673440,-0.046360,0.365024,16.660000,20.860001,-5.880000,21.36
5769988,0.671488,-0.023424,0.398696,11.830000,27.230000,-4.830000,21.40
5769998,0.660264,0.000000,0.426024,7.280000,33.459999,-4.130000,21.29
5770009,0.657336,0.012688,0.454816,1.050000,37.939999,-3.010000,21.29
5770020,0.650992,0.016592,0.469456,-4.900000,43.049999,-1.820000,21.36
5770031,0.645624,0.004880,0.477752,-9.310000,47.389999,-0.140000,21.36
5770042,0.646600,-0.003904,0.488488,-15.120000,52.150002,1.680000,21.36
5770053,0.640744,-0.018544,0.507520,-18.129999,56.139999,2.240000,21.37
5770064,0.635376,-0.037576,0.535336,-19.180000,60.060001,3.360000,21.37
5770075,0.640744,-0.037088,0.582672,-20.160000,64.120003,3.430000,21.32
5770086,0.636840,-0.040504,0.639768,-18.620001,68.180000,4.410000,21.32
5770097,0.562664,-0.078080,0.619760,-15.820000,68.599998,3.290000,21.37
5770108,0.591456,-0.078568,0.631960,-15.890000,69.300003,6.580000,21.37
5770119,0.622200,-0.041968,0.665144,-17.080000,75.529999,6.440000,21.33
5770130,0.553880,-0.063440,0.699792,-17.290001,76.720001,5.320000,21.34
5770141,0.563152,-0.037576,0.731512,-20.510000,78.330002,7.490000,21.34
5770152,0.543632,-0.042944,0.742248,-21.350000,79.660004,7.770000,21.34
5770163,0.514352,-0.037576,0.754936,-23.940001,78.820000,9.520000,21.34
5770174,0.513376,-0.042944,0.772016,-28.559999,79.239998,9.660000,21.35
5770185,0.515328,-0.062464,0.790560,-33.040001,80.150002,11.060000,21.37
5770196,0.487512,-0.089304,0.829112,-36.400002,80.570000,11.550000,21.37
5770207,0.492880,-0.106872,0.857416,-35.630001,81.550003,12.880000,21.35
5770218,0.461648,-0.098088,0.866688,-37.730000,80.989998,13.790000,21.35
5770229,0.453352,-0.125904,0.902800,-37.799999,81.059998,16.170000,21.39
5770240,0.415288,-0.124440,0.933056,-40.669998,77.629997,15.610000,21.32
5770251,0.413336,-0.148352,0.969168,-42.139999,75.320000,17.150000,21.32
5770262,0.397232,-0.157136,0.995032,-42.279999,71.889999,17.709999,21.33
5770273,0.393328,-0.191296,1.015528,-40.950001,68.529999,17.709999,21.33
5770284,0.396744,-0.215208,1.017968,-36.889999,66.639999,16.799999,21.37
5770296,0.398696,-0.224480,1.045296,-34.720001,63.279999,17.990000,21.29
5770307,0.392352,-0.231800,1.061400,-34.090000,60.619999,16.309999,21.29
5770320,0.357704,-0.282552,1.070672,-29.889999,56.980000,15.050000,21.36
5770331,0.358680,-0.290360,1.056032,-23.100000,54.250000,13.790000,21.36
5770342,0.354288,-0.287432,1.051152,-14.490000,52.639999,12.040000,21.36
5770353,0.363560,-0.269376,1.080432,-12.180000,49.419998,12.110000,21.31
5770364,0.355752,-0.280600,1.109712,-9.310000,48.369999,10.920000,21.31
5770375,0.318664,-0.263520,1.134600,-5.950000,45.360001,10.780000,21.33
5770387,0.304512,-0.230336,1.157048,-5.110000,40.320000,9.940000,21.33
5770397,0.314760,-0.249368,1.146800,-4.690000,37.169998,9.730000,21.36
5770409,0.289872,-0.213744,1.156072,-3.780000,34.369999,9.520000,21.32
5770420,0.238144,-0.190320,1.210240,-9.240000,30.450001,11.200000,21.32
5770431,0.304024,-0.236680,1.177056,-12.670000,28.490000,11.270000,21.39
5770442,0.266448,-0.271328,1.153144,-10.990000,26.040001,9.660000,21.39
5770453,0.248880,-0.288408,1.165832,-10.570000,21.559999,9.660000,21.35
5770464,0.264984,-0.263032,1.198040,-12.740000,17.080000,9.310000,21.36
5770475,0.258640,-0.280112,1.226344,-15.330000,12.740000,8.610000,21.36
5770487,0.265960,-0.361608,1.226344,-11.900000,9.380000,5.600000,21.36
5770497,0.252784,-0.430904,1.220976,-1.470000,5.950000,1.890000,21.36
5770508,0.235704,-0.400648,1.226832,9.240000,1.400000,-0.280000,21.33
5770519,0.243024,-0.359656,1.249768,13.510000,-4.760000,-2.170000,21.32
5770530,0.230336,-0.349896,1.274656,15.820000,-10.920000,-5.740000,21.32
5770541,0.230824,-0.333792,1.280512,17.920000,-16.170000,-7.840000,21.37
5770552,0.226920,-0.309880,1.289784,20.299999,-23.660000,-10.010000,21.37
5770563,0.244976,-0.269376,1.310280,17.150000,-31.080000,-10.710000,21.37
5770574,0.258152,-0.280600,1.317600,14.210000,-37.799999,-12.740000,21.37
5770585,0.271328,-0.246928,1.318576,12.320000,-44.310001,-14.490000,21.35
5770596,0.271816,-0.257176,1.307840,7.490000,-51.799999,-14.560000,21.40
5770607,0.258152,-0.305976,1.262944,10.360000,-57.259998,-17.500000,21.40
5770618,0.258152,-0.335744,1.197064,16.450001,-62.020000,-20.299999,21.38
5770629,0.255712,-0.288408,1.146800,20.510000,-68.180000,-21.280001,21.38
5770640,0.297192,-0.234728,1.175592,16.940001,-75.180000,-21.910000,21.39
5770651,0.327936,-0.231800,1.207800,14.770000,-81.129997,-22.610001,21.27
5770662,0.329888,-0.224968,1.189744,15.330000,-86.870003,-24.010000,21.27
5770673,0.342088,-0.215696,1.169736,13.930000,-92.889999,-24.290001,21.30
5770684,0.351848,-0.201056,1.166808,11.970000,-99.120003,-24.010000,21.30
5770695,0.352336,-0.178120,1.168272,6.090000,-104.510002,-23.170000,21.34
5770706,0.344040,-0.210328,1.140456,5.880000,-110.320000,-25.410000,21.33
5770717,0.347456,-0.222040,1.094584,9.170000,-116.900002,-26.180000,21.33
5770729,0.368440,-0.200568,1.057984,8.750000,-122.570000,-25.410000,21.36
5770740,0.374784,-0.195200,1.018944,10.920000,-125.720001,-26.250000,21.36
5770751,0.404552,-0.205448,0.967704,15.260000,-129.220001,-26.950001,21.32
5770762,0.443592,-0.216672,0.907192,23.730000,-131.250000,-28.070000,21.34
5770773,0.506544,-0.215208,0.853512,36.330002,-130.830002,-28.770000,21.34
5770784,0.506544,-0.184952,0.750544,45.290001,-128.940002,-28.139999,21.34
5770795,0.529968,-0.012200,0.662704,51.730000,-125.510002,-26.320000,21.34
5770806,0.528992,-0.055144,0.581208,54.599998,-120.470001,-24.430000,21.39
5770817,0.551928,0.025864,0.526552,49.840000,-115.430000,-20.160000,21.39
5770828,0.581696,0.058072,0.463112,41.930000,-109.410004,-16.520000,21.32
5770839,0.602192,0.069784,0.398208,32.130001,-101.639999,-13.230000,21.32
5770850,0.639768,0.044896,0.286456,22.959999,-92.750000,-10.990000,21.32
5770861,0.644648,0.069784,0.306952,16.309999,-81.690002,-6.300000,21.37
5770872,0.663192,0.064904,0.294264,9.170000,-73.220001,-2.870000,21.37
5770883,0.675392,0.052216,0.282064,2.240000,-61.880001,-0.420000,21.30
5770894,0.659288,0.023912,0.257664,-1.470000,-50.470001,1.820000,21.29
5770905,0.650504,0.006344,0.247416,-5.250000,-42.700001,4.340000,21.29
5770916,0.653920,-0.024888,0.254248,-7.000000,-33.040001,5.180000,21.35
5770927,0.664656,-0.061000,0.257664,-5.530000,-23.450001,5.740000,21.35
5770938,0.678808,-0.088816,0.264496,-2.170000,-13.510000,5.740000,21.39
5770949,0.685640,-0.102480,0.256200,2.800000,-5.880000,5.040000,21.33
5770960,0.681736,-0.127368,0.269376,8.820000,3.570000,4.200000,21.33
5770971,0.668560,-0.134200,0.296704,13.440000,11.340000,3.290000,21.35
5770982,0.668072,-0.128832,0.336720,17.219999,16.660000,2.590000,21.35
5770992,0.674416,-0.122976,0.353312,20.160000,22.680000,1.330000,21.39
5771003,0.676368,-0.128344,0.367464,22.540001,28.139999,-0.070000,21.39
5771014,0.686128,-0.120048,0.390888,24.290001,32.200001,-1.190000,21.34
5771025,0.677832,-0.098576,0.414312,23.870001,36.610001,-1.890000,21.32
5771036,0.671976,-0.074664,0.448472,22.260000,39.619999,-1.680000,21.32
5771047,0.660752,-0.048800,0.487024,12.180000,40.110001,-4.130000,21.35
5771058,0.687592,-0.052704,0.485560,13.580000,45.290001,-0.420000,21.35
5771070,0.670512,-0.028304,0.502152,7.840000,47.810001,-0.140000,21.35
5771081,0.672952,-0.022936,0.511424,2.870000,51.799999,1.050000,21.36
5771092,0.672952,-0.039040,0.517768,-1.330000,54.599998,1.120000,21.36
5771103,0.665632,-0.040992,0.542656,-6.090000,58.240002,2.450000,21.30
5771113,0.656360,-0.030744,0.571936,-8.330000,61.459999,3.010000,21.30
5771124,0.545584,-0.008296,0.607072,-12.180000,58.939999,5.040000,21.36
5771135,0.607072,-0.030744,0.618784,-18.760000,67.900002,8.190000,21.32
5771146,0.627080,-0.027816,0.648064,-22.400000,73.779999,9.170000,21.32
5771157,0.601704,-0.054168,0.688568,-21.700001,71.750000,7.840000,21.33
5771168,0.587552,-0.065392,0.693936,-22.260000,73.290001,8.470000,21.33
5771179,0.599752,-0.102480,0.697840,-19.950001,75.669998,8.750000,21.33
5771190,0.587552,-0.111264,0.709064,-18.969999,78.610001,8.540000,21.33
5771201,0.573888,-0.116144,0.724192,-18.270000,79.589996,9.310000,21.38
5771212,0.555832,-0.104920,0.771528,-20.370001,80.220001,10.360000,21.37
5771223,0.543632,-0.099064,0.816912,-20.370001,80.639999,10.290000,21.37
5771234,0.510448,-0.095648,0.852048,-21.209999,80.709999,10.920000,21.37
5771244,0.491904,-0.112240,0.869128,-21.770000,80.150002,10.850000,21.37
5771255,0.483120,-0.109312,0.887672,-22.330000,79.589996,10.570000,21.36
5771266,0.473360,-0.110776,0.928176,-27.090000,77.910004,12.250000,21.31
5771277,0.474824,-0.158112,0.894016,-19.740000,78.610001,14.560000,21.31
5771288,0.423584,-0.112728,0.988200,-29.959999,72.309998,12.390000,21.37
5771299,0.438224,-0.164944,1.016992,-32.830002,71.050003,13.230000,21.37
5771310,0.418216,-0.182512,1.016504,-28.700001,69.160004,12.040000,21.34
5771321,0.405040,-0.186416,1.024312,-27.090000,66.360001,12.670000,21.34
5771332,0.386496,-0.211304,1.032120,-22.680000,63.980000,10.710000,21.31
5771343,0.377712,-0.213256,1.032120,-17.290001,60.549999,10.500000,21.36
5771354,0.371368,-0.217160,1.032608,-11.900000,57.750000,9.170000,21.36
5771365,0.359656,-0.217648,1.017968,-6.370000,55.930000,7.980000,21.35
5771376,0.358680,-0.189832,1.010160,-2.100000,54.740002,7.420000,21.35
5771387,0.360632,-0.184952,1.015528,0.070000,53.759998,7.770000,21.37
5771398,0.351360,-0.153232,1.035048,-1.400000,52.709999,8.890000,21.33
5771409,0.327936,-0.154696,1.045784,-1.680000,50.470001,8.890000,21.33
5771420,0.316712,-0.127368,1.036512,-3.220000,47.320000,9.450000,21.32
5771431,0.319152,-0.120536,1.016016,-6.370000,45.849998,9.590000,21.32
5771442,0.317688,-0.140544,0.986248,-9.240000,45.360001,10.360000,21.35
5771453,0.315736,-0.154208,0.975512,-10.150000,44.869999,10.290000,21.36
5771463,0.317200,-0.179584,1.002352,-12.320000,45.360001,12.040000,21.36
5771474,0.299632,-0.195688,1.046272,-11.620000,44.869999,12.530000,21.34
5771485,0.291336,-0.191784,1.065304,-12.670000,43.330002,14.140000,21.34
5771496,0.263032,-0.208376,1.060424,-12.040000,41.930000,14.140000,21.31
5771507,0.247416,-0.206424,1.056032,-11.970000,39.759998,14.140000,21.31
5771518,0.248880,-0.237168,1.055056,-11.690000,38.849998,13.720000,21.30
5771529,0.244488,-0.279136,1.077992,-5.880000,38.919998,11.690000,21.34
5771540,0.214720,-0.234240,1.103856,-3.640000,35.419998,12.040000,21.34
5771551,0.239608,-0.230336,1.132648,-7.770000,33.459999,12.600000,21.36
5771562,0.223504,-0.207888,1.171200,-9.590000,30.030001,11.900000,21.36
5771573,0.228872,-0.223016,1.222928,-14.910000,24.290001,13.160000,21.39
5771584,0.236680,-0.270352,1.244888,-16.870001,23.030001,11.970000,21.34
5771595,0.194224,-0.279136,1.243912,-18.549999,17.430000,12.600000,21.34
5771606,0.185440,-0.355264,1.236104,-16.240000,13.580000,9.240000,21.36
5771617,0.152256,-0.397232,1.260504,-10.570000,7.980000,6.090000,21.36
5771628,0.178608,-0.422120,1.308816,-5.600000,2.520000,4.060000,21.30
5771639,0.183000,-0.413824,1.342976,0.210000,-3.080000,0.630000,21.29
5771650,0.181048,-0.403576,1.390800,3.080000,-11.410000,-1.890000,21.29
5771661,0.193736,-0.384544,1.440088,6.300000,-18.620001,-5.530000,21.39
5771672,0.191784,-0.350872,1.473760,5.390000,-28.980000,-6.790000,21.39
5771683,0.201056,-0.407968,1.460584,8.120000,-36.750000,-11.340000,21.35
5771694,0.171288,-0.380152,1.436184,16.309999,-45.360001,-16.379999,21.35
5771705,0.188368,-0.297192,1.436184,14.700000,-54.180000,-17.290001,21.32
5771716,0.203008,-0.262544,1.439600,6.790000,-64.330002,-19.320000,21.31
5771727,0.209352,-0.244000,1.444480,-2.170000,-75.320000,-19.950001,21.31
5771738,0.221064,-0.271328,1.433256,-7.700000,-86.099998,-21.910000,21.34
5771749,0.227408,-0.307440,1.405928,-9.590000,-94.290001,-24.990000,21.34
5771760,0.237656,-0.301096,1.361032,-8.260000,-103.809998,-26.740000,21.33
5771771,0.255224,-0.325984,1.300032,-7.490000,-112.000000,-28.910000,21.37
5771782,0.266936,-0.368928,1.213656,2.100000,-118.160004,-33.529999,21.37
5771793,0.289384,-0.357704,1.147776,12.250000,-122.430000,-35.000000,21.34
5771804,0.292312,-0.336720,1.081408,28.070000,-126.489998,-38.779999,21.34
5771815,0.297680,-0.238632,1.019920,33.880001,-129.779999,-38.290001,21.39
5771826,0.305488,-0.198128,0.951112,38.220001,-132.649994,-37.029999,21.34
5771837,0.348432,-0.143960,0.898896,38.500000,-135.100006,-35.490002,21.34
5771848,0.389424,-0.122976,0.866688,38.570000,-134.960007,-33.389999,21.32
5771859,0.408456,-0.054656,0.827160,35.980000,-135.589996,-29.750000,21.32
5771870,0.427000,-0.031232,0.812520,28.420000,-134.610001,-26.600000,21.32
5771881,0.417240,-0.005368,0.762744,23.590000,-133.139999,-23.730000,21.32
5771892,0.430904,-0.007320,0.672952,19.809999,-131.809998,-20.230000,21.33
5771903,0.459696,-0.003904,0.602192,12.250000,-128.800003,-16.870001,21.38
5771914,0.489952,-0.047824,0.549488,11.060000,-123.199997,-15.750000,21.38
5771925,0.520208,-0.087840,0.489464,13.930000,-117.529999,-14.210000,21.32
5771936,0.547048,-0.078568,0.467504,17.920000,-109.970001,-11.550000,21.32
5771947,0.565592,-0.063928,0.430416,22.400000,-103.669998,-10.640000,21.35
5771958,0.576816,-0.062464,0.383568,25.830000,-94.849998,-9.590000,21.32
5771969,0.579744,-0.063928,0.317688,28.700001,-85.260002,-7.980000,21.32
5771980,0.591944,-0.061000,0.253272,31.850000,-77.000000,-6.720000,21.33
5771991,0.613416,-0.057096,0.223504,35.419998,-66.709999,-5.880000,21.33
5772002,0.642208,-0.038552,0.213744,37.169998,-55.160000,-4.200000,21.36
5772013,0.645624,-0.012688,0.199104,38.220001,-45.570000,-3.010000,21.35
5772024,0.658800,0.003904,0.230336,26.530001,-35.419998,17.780001,21.35
5772036,0.676368,-0.053680,0.294752,18.340000,-25.830000,0.350000,21.32
5772046,0.654408,-0.060024,0.318176,18.200001,-17.219999,1.540000,21.32
5772057,0.665632,-0.070272,0.302072,17.430000,-11.270000,0.910000,21.32
5772068,0.672952,-0.112728,0.277184,22.260000,-1.680000,-0.070000,21.36
5772079,0.686128,-0.124440,0.264008,27.370001,7.070000,-0.910000,21.36
5772090,0.689056,-0.110288,0.298656,31.500000,15.750000,-1.680000,21.29
5772101,0.682712,-0.098088,0.341112,35.209999,21.420000,-2.660000,21.29
5772112,0.666120,-0.064904,0.357216,33.880001,25.900000,-2.030000,21.30
5772123,0.698816,-0.050264,0.382104,34.369999,32.900002,-0.980000,21.30
5772134,0.669536,-0.015616,0.392352,30.170000,37.099998,-1.330000,21.32
5772145,0.677344,-0.010248,0.414312,22.469999,42.349998,-0.210000,21.34
5772156,0.685640,-0.021472,0.423584,0.000000,47.810001,0.210000,21.34
5772167,0.676368,-0.028304,0.436272,14.630000,51.939999,0.840000,21.35
5772178,0.662216,-0.011712,0.437736,12.670000,57.470001,0.700000,21.35
5772189,0.653432,-0.006832,0.447008,9.870000,62.930000,0.980000,21.39
5772199,0.646112,0.002440,0.485560,3.850000,67.129997,1.960000,21.36
5772210,0.630984,-0.008784,0.516304,-2.100000,71.889999,1.330000,21.36
5772221,0.629032,-0.034160,0.599752,-4.620000,81.339996,3.640000,21.29
5772232,0.585600,-0.038064,0.608536,-9.240000,78.190002,1.680000,21.29
5772243,0.614880,-0.040504,0.627568,-13.230000,80.639999,7.560000,21.32
5772254,0.638304,-0.037088,0.632936,-13.790000,86.870003,3.430000,21.32
5772265,0.551928,-0.049288,0.612928,-15.260000,86.309998,2.030000,21.34
5772276,0.576816,-0.040992,0.624640,-21.700001,91.349998,4.200000,21.32
5772287,0.543632,-0.024888,0.650992,-27.860001,95.129997,4.410000,21.32
5772298,0.510936,-0.034648,0.701744,-33.669998,95.900002,6.580000,21.36
5772309,0.488976,-0.031232,0.766648,-39.270000,97.019997,8.260000,21.36
5772320,0.459696,-0.027328,0.791048,-43.049999,96.599998,9.170000,21.30
5772331,0.450424,-0.065880,0.792024,-44.380001,97.300003,9.940000,21.36
5772342,0.453840,-0.091744,0.801296,-42.209999,98.629997,11.340000,21.36
5772353,0.452864,-0.068320,0.874496,-45.290001,98.419998,14.140000,21.37
5772364,0.449448,-0.080032,0.928176,-47.529999,99.750000,17.360001,21.37
5772375,0.391376,-0.064904,0.963800,-49.700001,96.180000,17.150000,21.36
5772386,0.370880,-0.110776,0.950624,-50.680000,95.480003,17.920000,21.32
5772397,0.350872,-0.154208,0.931592,-44.590000,94.150002,17.990000,21.32
5772408,0.329888,-0.158600,0.990640,-42.910000,92.260002,21.980000,21.36
5772419,0.351848,-0.184952,1.027240,-40.459999,89.809998,22.260000,21.36
5772430,0.343064,-0.191784,1.089704,-32.619999,88.620003,24.500000,21.34
5772441,0.308416,-0.167384,1.153144,-40.599998,82.040001,23.660000,21.34
5772452,0.324032,-0.225944,1.161928,-39.410000,78.050003,23.799999,21.33
5772463,0.303536,-0.235704,1.142408,-32.480000,75.669998,23.450001,21.32
5772474,0.292800,-0.284992,1.108248,-21.910000,73.430000,22.959999,21.32
5772485,0.275720,-0.254736,1.104344,-15.610000,71.610001,22.750000,21.34
5772496,0.249856,-0.232288,1.163392,-7.420000,69.089996,26.530001,21.34
5772506,0.203496,-0.115168,1.230736,-20.370001,61.529999,26.320000,21.32
5772517,0.198616,-0.176656,1.296616,-29.330000,54.880001,28.350000,21.35
5772528,0.187880,-0.291824,1.295152,-32.130001,52.220001,26.459999,21.35
5772539,0.152744,-0.329400,1.294176,-31.500000,45.849998,25.690001,21.36
5772550,0.140056,-0.360632,1.293688,-29.049999,38.990002,23.799999,21.36
5772561,0.119560,-0.383080,1.337120,-28.770000,32.130001,22.260000,21.34
5772572,0.128344,-0.415288,1.422032,-28.000000,22.330000,20.580000,21.32
5772583,0.095648,-0.482144,1.478152,-22.469999,11.760000,15.260000,21.32
5772594,0.109800,-0.605608,1.514264,-10.780000,0.700000,8.540000,21.32
5772605,0.113216,-0.613416,1.520608,8.960000,-8.050000,-0.140000,21.32
5772616,0.118584,-0.582672,1.526464,24.709999,-19.530001,-6.090000,21.35
5772627,0.133224,-0.526552,1.511336,33.040001,-29.680000,-13.930000,21.35
5772638,0.133224,-0.469944,1.472784,36.400002,-37.660000,-19.110001,21.34
5772649,0.131760,-0.428464,1.445944,38.430000,-47.950001,-22.190001,21.37
5772660,0.145912,-0.336232,1.438624,34.790001,-58.520000,-24.709999,21.37
5772671,0.165432,-0.272304,1.447408,27.370001,-70.139999,-25.760000,21.33
5772682,0.190320,-0.264496,1.443016,17.920000,-77.489998,-27.440001,21.33
5772693,0.193736,-0.224480,1.415688,10.220000,-86.589996,-28.000000,21.36
5772704,0.216672,-0.202032,1.377624,1.050000,-94.989998,-26.809999,21.28
5772715,0.218624,-0.217160,1.316624,-7.210000,-99.959999,-28.139999,21.28
5772726,0.214232,-0.234728,1.300032,-12.950000,-107.449997,-27.930000,21.33
5772738,0.232776,-0.247416,1.304912,-17.430000,-116.830002,-27.440001,21.33
5772749,0.271816,-0.261568,1.306376,-20.860001,-123.970001,-27.860001,21.33
5772760,0.271328,-0.290848,1.268312,-20.580000,-131.320007,-29.889999,21.33
5772771,0.280600,-0.317688,1.218536,-16.450001,-137.199997,-33.389999,21.33
5772782,0.300608,-0.297192,1.173152,-9.870000,-144.479996,-34.160000,21.33
5772793,0.322568,-0.284016,1.125328,-3.640000,-150.080002,-36.400002,21.33
5772804,0.329888,-0.264008,1.055544,0.630000,-155.330002,-37.450001,21.35
5772815,0.350384,-0.250344,0.961848,9.660000,-158.410004,-40.180000,21.31
5772826,0.366000,-0.223016,0.866688,18.270000,-161.070007,-40.880001,21.31
5772837,0.398208,-0.223016,0.743712,26.530001,-162.889999,-44.029999,21.37
5772848,0.393328,-0.164456,0.626592,35.840000,-159.529999,-43.889999,21.37
5772859,0.455792,-0.111264,0.501176,43.400002,-155.610001,-39.200001,21.34
5772870,0.500688,-0.021960,0.424072,43.189999,-149.869995,-34.580002,21.34
5772881,0.541192,0.020008,0.331352,41.580002,-139.789993,-28.770000,21.32
5772892,0.558760,0.050264,0.232776,38.220001,-130.550003,-23.520000,21.32
5772903,0.577304,0.050264,0.161040,33.180000,-118.230003,-20.090000,21.32
5772914,0.603168,0.040504,0.126392,29.469999,-102.199997,-14.910000,21.35
5772925,0.610976,0.060024,0.105408,23.450001,-92.820000,-10.990000,21.35
5772936,0.674416,0.062952,0.087352,20.230000,-75.459999,-7.560000,21.36
5772947,0.657336,0.020984,0.090280,16.799999,-66.779999,-1.750000,21.32
5772958,0.674904,-0.009272,0.093208,11.830000,-37.869999,1.190000,21.32
5772969,0.663192,-0.056608,0.095160,11.760000,-43.119999,2.730000,21.33
5772980,0.661728,-0.096624,0.101992,15.120000,-29.469999,3.010000,21.33
5772991,0.671000,-0.131272,0.103456,19.950001,-16.590000,3.150000,21.34
5773002,0.677344,-0.139568,0.108336,25.410000,-7.070000,3.850000,21.34
5773013,0.686128,-0.144448,0.135664,29.680000,5.040000,3.430000,21.34
5773024,0.682712,-0.155672,0.174704,34.650002,15.470000,1.820000,21.38
5773035,0.685152,-0.158112,0.218136,40.599998,23.450001,0.770000,21.38
5773046,0.713456,-0.137128,0.245464,43.820000,32.270000,1.820000,21.31
5773056,0.698328,-0.092720,0.269864,43.750000,39.900002,1.610000,21.31
5773067,0.693936,-0.052216,0.301584,39.200001,45.220001,1.680000,21.34
5773078,0.692960,-0.038552,0.341600,31.920000,51.240002,2.030000,21.33
5773089,0.683688,-0.023912,0.398208,23.590000,55.580002,2.380000,21.33
5773100,0.669048,-0.021960,0.439688,14.700000,58.520000,2.730000,21.30
5773110,0.671000,-0.023424,0.467016,5.110000,62.439999,3.640000,21.30
5773121,0.670512,-0.054168,0.481168,-1.260000,65.449997,3.710000,21.36
5773132,0.679784,-0.089304,0.490440,-3.920000,69.930000,2.870000,21.30
5773143,0.677344,-0.105896,0.511424,-5.670000,73.779999,3.080000,21.30
5773154,0.679784,-0.112728,0.519720,-8.260000,69.440002,0.980000,21.34
5773165,0.708576,-0.086376,0.585600,-14.140000,87.150002,7.560000,21.34
5773176,0.655384,-0.061000,0.644160,-15.190000,89.250000,3.640000,21.30
5773187,0.562664,-0.085400,0.663680,-16.940001,85.260002,3.290000,21.30
5773198,0.624152,-0.114680,0.695888,-17.920000,90.720001,6.230000,21.34
5773209,0.605120,-0.101016,0.711504,-18.690001,91.769997,6.160000,21.28
5773220,0.579256,-0.132736,0.728584,-15.820000,95.550003,4.410000,21.28
5773231,0.553392,-0.098088,0.744688,-14.980000,97.650002,5.180000,21.31
5773241,0.505568,-0.080520,0.748592,-15.680000,98.629997,6.300000,21.31
5773252,0.491904,-0.061000,0.749568,-18.620001,99.610001,7.280000,21.34
5773263,0.484096,-0.084912,0.757864,-25.760000,100.870003,10.710000,21.29
5773274,0.481656,-0.084424,0.838384,-36.119999,100.169998,15.120000,21.29
5773285,0.468480,-0.106384,0.918904,-39.549999,101.010002,16.100000,21.36
5773296,0.427488,-0.061488,1.022848,-43.750000,97.160004,18.059999,21.36
5773307,0.406992,-0.109312,1.084824,-48.439999,91.419998,18.760000,21.34
5773318,0.386496,-0.193248,1.080432,-43.820000,87.010002,18.059999,21.34
5773329,0.353312,-0.253272,1.007232,-33.810001,85.120003,13.300000,21.30
5773340,0.340136,-0.320128,0.930128,-17.219999,83.790001,9.170000,21.32
5773351,0.304512,-0.202520,0.937448,-11.690000,79.940002,11.060000,21.32
5773362,0.321104,-0.124928,1.026264,-16.590000,74.410004,13.930000,21.29
5773373,0.384056,-0.138592,1.078480,-22.190001,72.449997,16.660000,21.29
5773384,0.347456,-0.151280,1.131184,-23.590000,68.739998,15.470000,21.37
5773395,0.350872,-0.223504,1.141920,-20.719999,63.910000,15.260000,21.34
5773406,0.337696,-0.260104,1.138504,-17.570000,61.459999,15.540000,21.34
5773417,0.316712,-0.282064,1.136552,-16.660000,58.169998,14.840000,21.32
5773428,0.283528,-0.285968,1.152168,-9.450000,55.020000,12.880000,21.32
5773439,0.276696,-0.218624,1.224392,-10.500000,47.459999,13.860000,21.32
5773450,0.258152,-0.258152,1.277096,-14.630000,41.860001,13.230000,21.33
5773461,0.278160,-0.322080,1.315160,-10.220000,35.349998,11.480000,21.33
5773472,0.266448,-0.301096,1.328336,-3.290000,28.559999,8.960000,21.31
5773483,0.268400,-0.287920,1.361520,-6.440000,20.719999,9.030000,21.31
5773494,0.274744,-0.353312,1.362008,-5.180000,16.730000,5.250000,21.36
5773505,0.233264,-0.404552,1.350296,6.790000,10.360000,1.120000,21.36
5773516,0.202520,-0.340136,1.360056,12.180000,2.450000,-1.190000,21.29
5773526,0.229360,-0.316712,1.389824,14.490000,-7.140000,-2.170000,21.34
5773537,0.252296,-0.302072,1.405440,9.660000,-15.750000,-3.850000,21.34
5773548,0.259128,-0.334280,1.408856,10.290000,-23.240000,-7.000000,21.32
5773559,0.258152,-0.298168,1.425448,10.570000,-30.379999,-8.750000,21.32
5773570,0.248392,-0.312320,1.416664,11.410000,-38.919998,-10.430000,21.36
5773581,0.235704,-0.302072,1.402512,12.250000,-47.810001,-11.620000,21.32
5773592,0.223992,-0.264984,1.393240,10.220000,-56.000000,-13.860000,21.32
5773603,0.225456,-0.264984,1.401048,5.180000,-67.199997,-15.330000,21.35
5773614,0.254736,-0.285968,1.419592,3.010000,-77.419998,-17.709999,21.35
5773625,0.262056,-0.320616,1.387384,4.410000,-87.500000,-20.230000,21.32
5773636,0.279136,-0.335744,1.340048,10.150000,-95.620003,-23.799999,21.35
5773647,0.302072,-0.311344,1.305400,17.570000,-104.580002,-26.389999,21.35
5773658,0.328912,-0.283528,1.260992,22.400000,-112.070000,-28.280001,21.30
5773669,0.319152,-0.262056,1.222928,27.370001,-116.690002,-29.959999,21.30
5773680,0.306464,-0.215696,1.130208,32.830002,-123.690002,-30.660000,21.32
5773691,0.315736,-0.175192,1.050664,33.459999,-128.380005,-29.610001,21.32
5773702,0.328424,-0.142496,0.962824,33.529999,-132.649994,-28.420000,21.37
5773713,0.373320,-0.139568,0.902312,34.790001,-134.399994,-27.790001,21.34
5773724,0.412848,-0.127368,0.872056,36.400002,-134.960007,-26.530001,21.34
5773736,0.432856,-0.101016,0.832528,39.900002,-135.380005,-24.780001,21.37
5773747,0.450424,-0.069784,0.760792,42.840000,-134.259995,-22.610001,21.37
5773758,0.463112,-0.033184,0.661240,44.660000,-131.740005,-19.879999,21.32
5773769,0.485072,-0.022936,0.571936,41.160000,-129.360001,-17.360001,21.35
5773780,0.497272,0.000976,0.533872,40.180000,-124.040001,-14.210000,21.35
5773791,0.534848,0.003416,0.480680,38.849998,-119.000000,-9.800000,21.35
5773801,0.548024,0.006344,0.430904,35.910000,-113.820000,-6.580000,21.35
5773812,0.589016,0.022448,0.410896,30.450001,-105.769997,-1.750000,21.36
5773823,0.581208,0.016592,0.385032,19.040001,-99.190002,-3.710000,21.34
5773834,0.616344,-0.069296,0.331840,25.549999,-89.459999,-0.490000,21.34
5773845,0.631472,-0.097600,0.290360,29.120001,-82.110001,-1.470000,21.31
5773856,0.661728,-0.151768,0.257664,34.860001,-70.980003,-2.450000,21.31
5773867,0.691008,-0.148840,0.263032,41.860001,-62.369999,-1.750000,21.34
5773878,0.698328,-0.135664,0.250832,47.459999,-51.939999,-3.150000,21.32
5773889,0.715408,-0.120048,0.254736,50.049999,-41.160000,-3.360000,21.32
5773900,0.720288,-0.066856,0.261080,53.340000,-34.650002,-3.640000,21.36
5773911,0.729560,-0.051728,0.252784,52.220001,-24.639999,-4.970000,21.36
5773922,0.737368,-0.056608,0.234240,49.209999,-14.700000,-5.390000,21.39
5773933,0.745664,0.011224,0.230824,42.980000,-4.690000,-3.780000,21.39
5773944,0.745176,0.051240,0.248880,28.980000,2.870000,-3.570000,21.34
5773955,0.745176,0.036600,0.272792,15.400000,12.600000,-3.290000,21.29
5773966,0.726632,0.052216,0.288896,6.370000,21.490000,-2.660000,21.29
5773977,0.725168,0.034648,0.296216,-3.920000,27.299999,-2.870000,21.32
5773988,0.744688,-0.003904,0.323056,-11.200000,33.459999,-2.520000,21.32
5773999,0.752496,-0.026352,0.340624,-16.870001,42.349998,-2.310000,21.34
5774010,0.732488,-0.043920,0.350384,-18.480000,49.070000,-2.730000,21.30
5774021,0.712968,-0.041480,0.369904,-18.830000,54.810001,-2.380000,21.30
5774032,0.699304,-0.021960,0.406016,-20.160000,60.830002,-1.680000,21.34
5774043,0.681736,-0.008784,0.448472,-21.350000,65.589996,-1.120000,21.34
5774054,0.682224,-0.005856,0.499712,-24.290001,69.160004,-0.140000,21.34
5774065,0.688568,-0.003416,0.556320,-27.090000,72.379997,0.350000,21.30
5774076,0.695400,0.003416,0.597800,-30.030001,74.830002,2.450000,21.30
5774087,0.684664,0.020984,0.659776,-35.000000,77.209999,3.220000,21.32
5774098,0.648064,0.017080,0.706624,-40.810001,77.489998,4.340000,21.32
5774109,0.650504,-0.000488,0.711992,-45.500000,77.980003,7.700000,21.30
5774120,0.606584,0.000976,0.691984,-48.299999,80.220001,8.120000,21.30
5774131,0.566080,-0.053680,0.669048,-47.669998,80.639999,9.730000,21.32
5774142,0.565592,-0.092720,0.679296,-44.520000,81.480003,11.060000,21.30
5774153,0.563640,-0.109312,0.705160,-39.270000,83.720001,11.480000,21.30
5774164,0.561200,-0.146400,0.752496,-28.350000,85.680000,10.920000,21.29
5774175,0.552416,-0.130784,0.778360,-16.170000,88.410004,10.500000,21.29
5774185,0.528992,-0.101504,0.831552,-12.390000,89.879997,12.110000,21.33
5774196,0.487512,-0.062464,0.897920,-8.470000,88.620003,11.690000,21.28
5774207,0.446032,-0.042456,0.942328,-9.450000,84.489998,11.830000,21.28
5774218,0.448960,-0.048312,0.976000,-11.830000,80.430000,12.320000,21.34
5774229,0.448960,-0.061976,0.964776,-14.140000,77.629997,11.970000,21.34
5774240,0.433344,-0.031720,0.939400,-17.500000,78.050003,11.830000,21.31
5774251,0.442128,-0.080032,0.905728,-21.139999,75.320000,13.930000,21.31
5774262,0.436272,-0.091744,0.919392,-24.639999,74.900002,15.820000,21.30
5774273,0.421632,-0.105408,0.972096,-27.580000,73.849998,16.030001,21.35
5774284,0.408944,-0.148840,0.986248,-24.709999,71.330002,15.960000,21.35
5774295,0.402600,-0.146400,0.994544,-21.209999,68.669998,16.450001,21.29
5774306,0.400160,-0.159088,0.981856,-19.459999,68.459999,16.450001,21.29
5774317,0.386984,-0.150792,0.968680,-19.389999,67.269997,18.129999,21.36
5774328,0.340624,-0.142008,1.036512,-23.170000,66.080002,17.219999,21.29
5774339,0.329400,-0.177144,1.070184,-25.059999,62.090000,18.830000,21.29
5774350,0.317688,-0.200568,1.088728,-24.150000,59.009998,18.059999,21.33
5774361,0.319640,-0.193736,1.101904,-24.219999,55.720001,17.850000,21.33
5774372,0.330864,-0.232776,1.102392,-25.270000,51.450001,18.129999,21.29
5774383,0.352824,-0.268400,1.107272,-24.290001,51.520000,17.360001,21.34
5774394,0.334280,-0.300608,1.088728,-14.700000,50.889999,19.740000,21.34
5774405,0.271816,-0.236192,1.137528,-19.250000,43.680000,16.240000,21.31
5774416,0.265960,-0.319152,1.159000,-17.850000,41.790001,13.790000,21.31
5774427,0.237656,-0.344528,1.211704,-13.510000,36.680000,12.600000,21.31
5774438,0.244976,-0.336720,1.274656,-11.550000,29.750000,11.410000,21.33
5774449,0.227896,-0.355752,1.327848,-7.000000,23.100000,7.000000,21.33
5774460,0.217648,-0.314760,1.388360,-5.250000,15.470000,4.900000,21.29
5774471,0.225944,-0.345504,1.449848,-4.620000,4.760000,2.730000,21.29
5774482,0.221552,-0.343552,1.464488,-3.080000,-5.180000,-0.070000,21.29
5774493,0.233264,-0.329400,1.473760,-3.850000,-15.470000,-3.010000,21.29
5774504,0.237656,-0.359168,1.466928,-1.960000,-24.570000,-6.650000,21.30
5774515,0.259616,-0.369416,1.444968,0.560000,-33.389999,-9.310000,21.27
5774526,0.251320,-0.344040,1.419104,4.550000,-42.419998,-12.950000,21.27
5774537,0.257664,-0.326472,1.376160,6.720000,-51.169998,-16.590000,21.33
5774548,0.269376,-0.319640,1.339072,8.680000,-56.840000,-19.110001,21.33
5774559,0.291336,-0.324032,1.315648,9.800000,-64.330002,-20.650000,21.33
5774570,0.304512,-0.323544,1.271728,12.250000,-70.070000,-23.379999,21.28
5774581,0.303048,-0.309880,1.241472,18.410000,-75.110001,-25.129999,21.28
5774592,0.311344,-0.247416,1.220976,21.559999,-81.339996,-25.690001,21.32
5774603,0.308416,-0.217160,1.200480,21.840000,-88.059998,-25.410000,21.32
5774614,0.316224,-0.184952,1.188768,19.809999,-93.660004,-24.990000,21.33
5774625,0.304512,-0.161528,1.163880,18.480000,-99.470001,-24.850000,21.34
5774636,0.319152,-0.124440,1.137528,12.950000,-106.540001,-23.660000,21.34
5774647,0.341112,-0.125416,1.094096,8.610000,-112.489998,-24.080000,21.38
5774658,0.352824,-0.151768,1.059448,4.900000,-116.620003,-23.309999,21.38
5774669,0.373320,-0.176168,1.003328,6.370000,-121.029999,-23.379999,21.33
5774680,0.381128,-0.194712,0.959408,12.740000,-125.440002,-24.709999,21.33
5774691,0.409432,-0.201544,0.894504,16.799999,-128.520004,-25.480000,21.31
5774702,0.428952,-0.243024,0.805688,29.120001,-128.240005,-27.719999,21.31
5774713,0.444568,-0.204472,0.754448,37.799999,-129.009995,-26.320000,21.31
5774724,0.467992,-0.149816,0.738832,42.700001,-127.260002,-25.480000,21.30
5774735,0.466040,-0.056608,0.712968,40.740002,-127.120003,-22.260000,21.30
5774746,0.486536,-0.013176,0.662704,34.720001,-126.489998,-20.650000,21.32
5774758,0.508496,-0.013664,0.609024,26.670000,-124.529999,-19.389999,21.34
5774769,0.512400,-0.060512,0.544608,21.490000,-122.779999,-21.420000,21.34
5774780,0.572912,-0.083936,0.467504,28.350000,-115.779999,-18.620001,21.35
5774791,0.595848,-0.079544,0.402600,31.990000,-110.599998,-17.709999,21.35
5774802,0.607560,-0.066856,0.339648,38.220001,-101.849998,-16.870001,21.39
5774813,0.619760,-0.032208,0.267424,40.389999,-88.339996,-16.379999,21.34
5774824,0.629520,-0.019520,0.209352,40.250000,-82.320000,-14.000000,21.34
5774835,0.670024,-0.029768,0.229360,40.389999,-68.669998,-11.480000,21.34
5774846,0.668560,0.023912,0.208376,38.500000,-58.799999,-9.380000,21.34
5774857,0.697352,0.022448,0.205936,31.219999,-50.750000,-6.580000,21.35
5774868,0.722240,0.004392,0.196664,28.840000,-37.450001,-6.160000,21.36
5774879,0.734928,0.019520,0.207888,23.730000,-25.900000,-3.360000,21.36
5774890,0.740296,0.012200,0.223016,21.700001,-13.510000,-3.010000,21.33
5774901,0.731512,0.027328,0.241072,14.280000,-5.600000,-1.400000,21.33
5774912,0.724192,0.018544,0.257664,8.750000,4.270000,-0.420000,21.35
5774922,0.720288,0.020984,0.266448,4.270000,13.020000,0.000000,21.35
5774933,0.715408,0.001952,0.269864,-0.210000,20.230000,0.210000,21.32
5774944,0.718824,-0.024400,0.276208,-1.820000,29.260000,0.630000,21.31
5774955,0.720776,-0.031232,0.286944,-3.990000,36.330002,0.420000,21.31
5774966,0.721752,-0.046848,0.315248,-5.460000,45.570000,0.350000,21.36
5774976,0.710040,-0.044896,0.340136,-5.110000,53.480000,-0.210000,21.36
5774987,0.706136,-0.038552,0.363072,-6.090000,58.520000,0.000000,21.33
5774998,0.697352,-0.035136,0.402112,-8.400000,64.190002,0.070000,21.34
5775009,0.693936,-0.036600,0.434320,-9.310000,69.160004,0.420000,21.34
5775020,0.682712,-0.022936,0.464088,-10.430000,73.150002,1.190000,21.28
5775031,0.680272,-0.019032,0.504104,-12.180000,77.559998,2.100000,21.28
5775043,0.671000,0.011712,0.541192,-17.570000,81.900002,3.780000,21.31
5775054,0.647088,-0.005856,0.589016,-23.030001,84.279999,5.180000,21.25
5775065,0.625616,0.005856,0.653432,-28.420000,85.750000,7.630000,21.25
5775076,0.609024,0.012200,0.705648,-32.619999,86.309998,9.170000,21.30
5775087,0.586576,-0.002440,0.749568,-37.799999,85.820000,10.150000,21.30
5775098,0.587552,-0.033184,0.761280,-38.990002,85.050003,10.850000,21.31
5775109,0.588528,-0.077104,0.756888,-37.169998,85.260002,10.430000,21.31
5775120,0.590968,-0.104432,0.749568,-32.270000,86.169998,10.010000,21.29
5775131,0.585112,-0.099552,0.772504,-31.639999,86.940002,11.830000,21.32
5775142,0.558760,-0.070272,0.801784,-38.080002,87.849998,14.840000,21.32
5775153,0.519720,-0.089792,0.833016,-40.950001,87.360001,17.639999,21.32
5775164,0.488000,-0.120048,0.842776,-39.549999,85.889999,16.520000,21.32
5775175,0.479704,-0.169336,0.840824,-30.100000,85.050003,14.840000,21.32
5775186,0.485072,-0.195688,0.843264,-21.350000,84.000000,14.000000,21.32
5775197,0.490928,-0.169336,0.883280,-15.330000,83.860001,14.210000,21.32
5775208,0.476776,-0.138592,0.945256,-14.210000,83.160004,15.260000,21.31
5775219,0.443592,-0.105896,1.021872,-15.330000,80.080002,15.400000,21.31
5775230,0.420656,-0.089304,1.057008,-18.059999,76.089996,16.030001,21.29
5775241,0.407968,-0.095160,1.038952,-20.020000,71.470001,16.730000,21.31
5775252,0.366000,-0.132248,1.054568,-19.110001,66.639999,14.420000,21.31
5775263,0.412848,-0.126392,1.062864,-23.450001,64.120003,17.920000,21.31
5775274,0.389424,-0.142008,1.066768,-27.860001,61.040001,20.370001,21.31
5775285,0.366488,-0.151280,1.096048,-34.860001,57.189999,23.170000,21.32
5775296,0.331840,-0.206424,1.133624,-34.369999,52.570000,22.190001,21.32
5775307,0.319152,-0.249368,1.148752,-29.610001,48.720001,20.510000,21.31
5775318,0.301096,-0.300120,1.130208,-22.680000,45.150002,19.320000,21.30
5775329,0.336720,-0.285968,1.128256,-19.040001,40.740002,18.549999,21.30
5775340,0.336720,-0.300608,1.128744,-15.470000,37.029999,17.500000,21.31
5775351,0.335744,-0.325008,1.141920,-7.490000,34.720001,15.190000,21.31
5775362,0.331352,-0.314760,1.148264,2.590000,32.480000,14.560000,21.31
5775373,0.305976,-0.275720,1.151192,6.720000,28.770000,13.720000,21.32
5775383,0.294752,-0.269376,1.174128,6.510000,26.040001,14.140000,21.32
5775394,0.288408,-0.287920,1.166808,6.370000,23.170000,11.200000,21.33
5775405,0.273768,-0.309392,1.181936,10.920000,20.510000,7.980000,21.33
5775416,0.252296,-0.213744,1.246840,6.300000,13.370000,8.470000,21.32
5775427,0.286944,-0.233752,1.318576,-3.780000,5.180000,7.700000,21.32
5775438,0.291336,-0.279136,1.378112,-7.420000,-1.750000,5.880000,21.30
5775449,0.294752,-0.316712,1.382016,-8.820000,-8.820000,4.200000,21.31
5775460,0.293776,-0.359168,1.357616,-8.470000,-15.260000,1.330000,21.31
5775471,0.278648,-0.401624,1.322480,-3.290000,-22.260000,-2.730000,21.30
5775482,0.284504,-0.401624,1.298080,3.360000,-27.930000,-6.300000,21.30
5775493,0.285480,-0.389424,1.262456,12.320000,-32.900002,-10.780000,21.35
5775504,0.282552,-0.340624,1.237568,17.850000,-38.990002,-12.390000,21.29
5775515,0.300120,-0.302072,1.246840,17.709999,-45.639999,-13.790000,21.29
5775526,0.319152,-0.292312,1.282464,17.990000,-50.750000,-15.540000,21.29
5775537,0.318176,-0.284992,1.301496,19.320000,-57.750000,-17.080000,21.29
5775548,0.329400,-0.239608,1.295152,17.990000,-65.379997,-17.780001,21.30
5775559,0.322568,-0.197640,1.263920,13.440000,-72.940002,-18.760000,21.34
5775571,0.331352,-0.180560,1.231712,8.050000,-78.190002,-18.549999,21.34
5775582,0.342576,-0.171288,1.198040,1.680000,-86.029999,-18.480000,21.32
5775593,0.336232,-0.188368,1.168760,-2.100000,-91.699997,-18.969999,21.32
5775604,0.334280,-0.183976,1.152656,-2.800000,-99.120003,-19.180000,21.32
5775615,0.351360,-0.200568,1.121912,-0.070000,-105.980003,-19.809999,21.32
5775626,0.381616,-0.199104,1.117520,1.260000,-110.250000,-18.549999,21.32
5775637,0.376248,-0.202520,1.096536,7.280000,-115.080002,-20.020000,21.32
5775648,0.384544,-0.183488,1.078968,10.430000,-120.680000,-19.459999,21.32
5775659,0.395768,-0.192760,1.046760,18.129999,-126.209999,-20.790001,21.34
5775671,0.426024,-0.161528,1.027240,22.540001,-130.619995,-19.250000,21.31
5775682,0.444080,-0.157624,0.971120,27.790001,-134.750000,-19.110001,21.31
5775693,0.473360,-0.143472,0.920856,32.759998,-137.059998,-18.549999,21.30
5775704,0.491416,-0.114680,0.815448,35.770000,-137.690002,-16.940001,21.30
5775715,0.508984,-0.081984,0.706624,37.939999,-137.410004,-15.470000,21.38
5775726,0.539728,-0.040016,0.614880,35.490002,-135.240005,-13.160000,21.32
5775737,0.581208,-0.009272,0.549976,29.260000,-131.949997,-10.780000,21.32
5775748,0.588040,0.016104,0.498736,22.680000,-128.520004,-11.200000,21.34
5775759,0.686616,-0.007320,0.394304,18.830000,-118.650002,-5.040000,21.34
5775770,0.653432,-0.000488,0.341600,13.160000,-109.550003,-4.270000,21.35
5775781,0.660752,0.024400,0.256200,5.320000,-99.540001,-0.840000,21.35
5775792,0.666608,0.030744,0.203008,-0.910000,-91.139999,2.590000,21.32
5775803,0.683688,0.017568,0.162504,-6.300000,-80.080002,4.900000,21.35
5775814,0.718824,-0.031720,0.152744,-10.150000,-67.900002,7.770000,21.35
5775825,0.723216,-0.087840,0.151768,-10.150000,-55.020000,8.540000,21.31
5775836,0.736392,-0.128344,0.156160,-6.510000,-45.639999,9.030000,21.31
5775847,0.746152,-0.151768,0.161040,-1.120000,-33.669998,9.100000,21.35
5775858,0.739808,-0.176656,0.163968,3.710000,-22.400000,8.540000,21.30
5775869,0.737368,-0.177632,0.174216,10.080000,-13.650000,7.280000,21.30
5775880,0.728584,-0.166408,0.185928,14.420000,-3.570000,6.020000,21.31
5775891,0.715896,-0.167384,0.203984,16.870001,4.550000,5.670000,21.31
5775902,0.721264,-0.158112,0.244976,17.150000,12.040000,5.320000,21.33
5775913,0.723216,-0.138104,0.276696,17.360001,17.639999,4.480000,21.32
5775924,0.720776,-0.109312,0.291336,14.560000,24.150000,3.990000,21.32
5775934,0.718824,-0.113216,0.317688,12.110000,28.840000,3.220000,21.30
5775945,0.710040,-0.117608,0.341112,9.730000,34.509998,2.520000,21.30
5775956,0.697840,-0.127856,0.363560,8.820000,38.639999,1.890000,21.34
5775967,0.689056,-0.135664,0.379664,8.190000,42.070000,0.420000,21.34
5775978,0.686128,-0.144936,0.385032,8.540000,46.270000,-0.490000,21.32
5775989,0.693448,-0.132736,0.384544,8.750000,50.119999,-1.190000,21.32
5776000,0.704184,-0.136640,0.387960,10.010000,53.410000,-1.960000,21.32
5776011,0.706624,-0.122488,0.395768,11.340000,58.310001,-1.820000,21.31
5776021,0.699792,-0.117120,0.421144,11.200000,63.490002,-1.260000,21.31
5776032,0.673928,-0.088816,0.465064,10.920000,67.970001,-2.730000,21.34
5776043,0.578280,-0.101016,0.508008,10.150000,66.570000,-4.270000,21.26
5776054,0.639768,-0.084424,0.533384,8.050000,77.000000,-1.050000,21.26
5776065,0.654408,-0.054656,0.568520,5.810000,81.970001,0.630000,21.30
5776076,0.635376,-0.050752,0.550464,3.010000,82.459999,-1.680000,21.30
5776087,0.610488,-0.067832,0.514840,0.350000,87.639999,-1.890000,21.32
5776098,0.609024,-0.040504,0.520208,-4.060000,92.889999,1.470000,21.32
5776109,0.595848,-0.026352,0.571448,-14.350000,97.790001,4.550000,21.33
5776120,0.552416,-0.031232,0.643184,-21.980000,100.589996,7.280000,21.30
5776131,0.549976,-0.064416,0.724192,-29.120001,101.220001,11.060000,21.30
5776142,0.515816,-0.080520,0.793000,-32.130001,100.660004,11.340000,21.36
5776153,0.503616,-0.117120,0.821304,-30.520000,100.730003,11.480000,21.36
5776164,0.502152,-0.111264,0.830576,-30.799999,100.589996,11.690000,21.29
5776175,0.500688,-0.147376,0.824232,-29.750000,101.709999,11.270000,21.30
5776186,0.485072,-0.154208,0.880352,-32.900002,101.709999,13.370000,21.30
5776197,0.457256,-0.160064,0.936960,-31.010000,99.680000,12.950000,21.34
5776208,0.426512,-0.141032,0.980880,-32.200001,96.180000,14.840000,21.34
5776219,0.409920,-0.167872,1.015040,-31.920000,92.120003,14.560000,21.36
5776230,0.400160,-0.183976,1.025776,-28.980000,88.550003,14.910000,21.34
5776241,0.398208,-0.182512,1.046760,-25.200001,85.540001,18.340000,21.34
5776252,0.362096,-0.194712,1.074088,-28.559999,79.309998,14.700000,21.33
5776263,0.366976,-0.195200,1.135088,-32.970001,75.809998,16.450001,21.33
