timestamp_ms,ax,ay,az,gx,gy,gz,tempC
5575597,0.348920,0.056120,0.781776,45.570000,-55.020000,55.790001,22.25
5575608,0.357216,0.259616,0.772504,35.910000,-51.380001,63.980000,22.20
5575620,0.403088,0.311832,0.825208,9.800000,-46.060001,71.120003,22.23
5575630,0.388936,0.246440,0.864736,-3.290000,-42.139999,72.660004,22.23
5575642,0.387472,0.143472,0.891088,-4.270000,-38.990002,71.680000,22.22
5575653,0.389424,0.073688,0.893528,-0.840000,-36.470001,68.529999,22.22
5575664,0.398696,-0.014640,0.895480,8.260000,-33.459999,65.519997,22.23
5575675,0.394304,-0.061000,0.882792,22.469999,-32.270000,63.000000,22.26
5575686,0.406016,-0.040992,0.843264,33.040001,-29.959999,60.900002,22.26
5575697,0.393328,0.003416,0.774456,18.270000,-27.790001,60.970001,22.22
5575708,0.403576,0.023424,0.702232,32.410000,-23.660000,56.139999,22.22
5575719,0.388936,0.043920,0.679784,28.629999,-19.389999,54.040001,22.21
5575730,0.381128,0.096136,0.687104,17.219999,-17.080000,55.230000,22.21
5575741,0.402600,0.109800,0.730048,2.870000,-13.580000,55.790001,22.22
5575752,0.403088,0.024400,0.771528,-5.950000,-11.200000,53.060001,22.17
5575763,0.401624,-0.036112,0.791536,-6.720000,-8.120000,50.330002,22.17
5575774,0.387960,-0.021960,0.813496,-4.760000,-7.280000,47.599998,22.27
5575785,0.386984,0.001464,0.793976,-2.590000,-6.440000,47.320000,22.27
5575796,0.402600,0.021960,0.756400,-6.650000,-4.620000,49.349998,22.22
5575807,0.382104,0.033672,0.717848,-8.960000,-1.890000,51.520000,22.22
5575818,0.379664,0.039528,0.672952,-13.510000,2.100000,51.240002,22.22
5575829,0.380640,0.024888,0.669536,-16.309999,6.440000,49.209999,22.26
5575840,0.375760,-0.013664,0.697352,-16.730000,9.590000,48.020000,22.26
5575851,0.396744,-0.045872,0.768600,-14.770000,10.780000,46.970001,22.23
5575862,0.398696,-0.075640,0.852536,-9.660000,11.130000,46.270000,22.24
5575873,0.396744,-0.057584,0.894016,-3.360000,10.920000,45.150002,22.24
5575885,0.377224,-0.040992,0.893040,3.150000,9.940000,44.240002,22.22
5575896,0.369416,-0.015128,0.895480,7.700000,8.960000,42.980000,22.22
5575906,0.368440,0.021472,0.874008,7.770000,8.190000,42.209999,22.25
5575917,0.365024,0.055144,0.866688,-0.210000,7.420000,43.470001,22.22
5575928,0.365024,0.040016,0.877424,-9.380000,6.160000,45.150002,22.22
5575939,0.359168,0.031720,0.909144,-18.129999,4.760000,45.919998,22.20
5575950,0.351360,-0.014640,0.941352,-25.969999,1.960000,45.990002,22.20
5575961,0.346480,-0.073688,0.953064,-28.000000,-0.630000,45.080002,22.21
5575972,0.346968,-0.129320,0.937936,-24.430000,-3.500000,43.470001,22.21
5575983,0.350872,-0.164456,0.926712,-17.360001,-5.040000,41.369999,22.21
5575994,0.340136,-0.130296,0.925248,-15.400000,-6.930000,40.880001,22.19
5576005,0.329400,-0.101016,0.925736,-17.500000,-9.030000,39.970001,22.19
5576016,0.325984,-0.098576,0.920856,-20.650000,-10.500000,39.900002,22.21
5576027,0.334280,-0.135176,0.922808,-21.910000,-12.460000,38.290001,22.21
5576038,0.350872,-0.143472,0.937448,-23.030001,-14.980000,37.099998,22.24
5576050,0.355264,-0.189832,0.925248,-22.680000,-17.080000,33.880001,22.20
5576061,0.338672,-0.220576,0.894992,-19.879999,-18.969999,30.520000,22.20
5576072,0.336720,-0.230824,0.855464,-14.350000,-20.230000,26.809999,22.20
5576083,0.353312,-0.236680,0.801784,-9.660000,-19.809999,24.990000,22.20
5576094,0.361608,-0.257664,0.751032,0.140000,-16.520000,20.440001,22.20
5576105,0.359656,-0.261080,0.660752,8.050000,-12.600000,15.120000,22.24
5576116,0.342088,-0.241072,0.594384,18.270000,-8.750000,10.990000,22.24
5576127,0.341600,-0.209840,0.553392,22.750000,-4.200000,9.450000,22.23
5576138,0.365512,-0.182512,0.531920,24.990000,2.730000,9.590000,22.23
5576149,0.364048,-0.154208,0.506056,28.700001,11.130000,7.840000,22.24
5576160,0.358192,-0.138104,0.514840,31.780001,16.520000,8.190000,22.20
5576171,0.382592,-0.129320,0.528016,30.100000,25.760000,10.570000,22.20
5576182,0.349408,-0.087352,0.512400,29.190001,35.419998,11.760000,22.22
5576193,0.324520,-0.053192,0.467992,21.420000,42.840000,13.930000,22.22
5576204,0.311344,-0.089304,0.468968,14.630000,53.340000,15.470000,22.23
5576215,0.301584,-0.137128,0.517768,12.810000,62.020000,15.260000,22.16
5576226,0.300608,-0.095160,0.641232,6.370000,69.160004,18.620001,22.16
5576237,0.286456,-0.124928,0.770064,-1.190000,73.360001,20.020000,22.22
5576248,0.247904,-0.096136,0.987224,-6.930000,74.830002,21.000000,22.22
5576259,0.192760,-0.064416,0.961848,-12.740000,73.570000,20.370001,22.24
5576270,0.222040,-0.126392,0.992104,-19.250000,73.709999,22.610001,22.24
5576281,0.188368,-0.180560,0.967704,-18.410000,79.029999,20.930000,22.22
5576292,0.142008,-0.166408,0.968680,-23.660000,76.650002,25.340000,22.25
5576306,0.111752,-0.214720,1.037488,-29.750000,77.559998,25.480000,22.25
5576317,0.091744,-0.296704,1.143384,-28.490000,73.919998,25.340000,22.24
5576328,0.109800,-0.346480,1.260016,-20.650000,69.580002,22.540001,22.21
5576339,0.090280,-0.360632,1.318576,-14.280000,62.650002,19.670000,22.21
5576350,0.120536,-0.417240,1.367376,-6.720000,58.590000,16.799999,22.29
5576361,0.077104,-0.399672,1.439112,5.390000,50.820000,11.410000,22.29
5576372,0.067344,-0.364048,1.566968,6.300000,41.299999,9.660000,22.20
5576384,0.037576,-0.319152,1.692872,16.520000,29.680000,2.030000,22.21
5576395,0.006344,-0.205936,1.708000,15.680000,14.490000,-1.120000,22.21
5576406,0.030744,-0.210816,1.704096,8.330000,0.280000,-3.430000,22.20
5576417,0.044408,-0.222040,1.663104,-1.960000,-10.010000,-5.740000,22.20
5576428,0.076128,-0.281576,1.620160,-5.040000,-20.790001,-8.540000,22.20
5576440,0.072712,-0.311344,1.583072,-0.210000,-30.450001,-11.760000,22.22
5576450,0.077592,-0.300120,1.546472,0.770000,-40.180000,-13.510000,22.22
5576461,0.063928,-0.352336,1.505968,8.540000,-47.110001,-17.709999,22.23
5576472,0.068808,-0.364048,1.449848,24.150000,-53.900002,-21.629999,22.23
5576483,0.070272,-0.294264,1.413248,34.650002,-61.880001,-24.290001,22.21
5576494,0.085888,-0.151768,1.382992,34.720001,-69.300003,-23.240000,22.21
5576505,0.104432,-0.064904,1.368352,23.030001,-76.230003,-20.370001,22.20
5576516,0.134200,-0.062952,1.364936,8.960000,-82.040001,-19.250000,22.21
5576527,0.144936,-0.083448,1.356152,0.560000,-87.430000,-18.129999,22.21
5576538,0.150792,-0.121512,1.321016,-5.110000,-92.120003,-17.290001,22.18
5576549,0.170800,-0.180560,1.269776,-2.590000,-96.180000,-18.270000,22.18
5576560,0.203496,-0.187880,1.233664,0.910000,-98.139999,-19.879999,22.23
5576571,0.197640,-0.178120,1.180960,6.160000,-101.779999,-21.209999,22.25
5576582,0.203496,-0.128832,1.156560,9.520000,-104.930000,-19.809999,22.25
5576593,0.214232,-0.065880,1.129232,9.380000,-110.529999,-22.540001,22.23
5576605,0.270352,-0.050264,1.131184,1.890000,-112.000000,-16.450001,22.23
5576616,0.276208,-0.050264,1.073112,1.470000,-114.309998,-17.219999,22.21
5576627,0.296704,-0.052704,0.993568,1.890000,-115.430000,-16.730000,22.22
5576638,0.314760,-0.040016,0.935496,0.560000,-115.989998,-15.050000,22.22
5576649,0.340136,-0.044896,0.872544,-0.560000,-115.220001,-13.160000,22.21
5576660,0.348920,-0.070272,0.781776,3.780000,-113.260002,-13.580000,22.21
5576671,0.354288,-0.084912,0.667584,11.690000,-109.269997,-14.140000,22.24
5576682,0.371856,-0.071736,0.588528,16.870001,-105.349998,-13.300000,22.24
5576693,0.397720,-0.063440,0.513376,21.490000,-99.889999,-11.620000,22.24
5576705,0.432368,-0.081496,0.451400,27.650000,-93.800003,-12.530000,22.25
5576716,0.463600,-0.090280,0.399184,32.689999,-84.419998,-11.690000,22.25
5576727,0.470432,-0.079544,0.352824,37.660000,-77.279999,-11.550000,22.24
5576738,0.494832,-0.066368,0.298656,42.349998,-67.339996,-10.990000,22.22
5576749,0.488488,-0.031232,0.280600,42.560001,-58.169998,-11.060000,22.22
5576760,0.512888,-0.017568,0.260592,41.930000,-47.950001,-9.450000,22.21
5576771,0.506544,-0.013664,0.241072,41.439999,-40.880001,-9.380000,22.21
5576782,0.512888,-0.001952,0.203984,38.570000,-30.379999,-8.330000,22.20
5576794,0.501664,0.034648,0.178608,33.740002,-20.299999,-7.420000,22.20
5576805,0.522160,0.084912,0.187392,21.280001,-9.870000,-4.970000,22.18
5576816,0.524112,0.129320,0.234240,7.420000,16.100000,-2.100000,22.25
5576827,0.547536,0.096136,0.257664,-5.390000,9.590000,0.420000,22.25
5576838,0.546072,0.065392,0.266936,-13.090000,21.700001,1.050000,22.20
5576849,0.529968,0.011712,0.264496,-19.110001,33.110001,1.680000,22.20
5576860,0.496296,-0.030744,0.273280,-18.900000,41.230000,2.240000,22.21
5576871,0.490928,-0.020496,0.295728,-22.330000,50.259998,5.110000,22.21
5576882,0.487024,-0.036600,0.313784,-23.520000,60.900002,5.180000,22.21
5576893,0.489464,-0.026352,0.311832,-27.090000,71.610001,8.260000,22.24
5576904,0.471896,0.002440,0.355752,-33.459999,79.029999,9.940000,22.24
5576915,0.472384,-0.057096,0.414312,-42.349998,84.489998,9.520000,22.24
5576926,0.465552,-0.105408,0.514840,-40.250000,92.190002,12.110000,22.21
5576937,0.461160,-0.073200,0.616832,-40.950001,95.830002,15.610000,22.21
5576948,0.437736,-0.061976,0.673928,-40.389999,97.230003,16.240000,22.21
5576959,0.406992,-0.073200,0.717360,-38.080002,100.589996,16.520000,22.21
5576970,0.366976,-0.114192,0.750056,-34.650002,101.570000,15.120000,22.19
5576981,0.355752,-0.160064,0.746152,-29.469999,102.690002,13.790000,22.24
5576992,0.338672,-0.187392,0.733464,-20.650000,105.209999,12.810000,22.24
5577003,0.332816,-0.140056,0.828624,-22.959999,104.510002,16.940001,22.23
5577014,0.333792,-0.150792,0.962336,-20.580000,104.790001,17.500000,22.23
5577026,0.328424,-0.130296,1.100440,-21.980000,103.879997,19.250000,22.27
5577037,0.288408,-0.156160,1.098488,-18.969999,99.750000,17.010000,22.21
5577048,0.260592,-0.180072,1.070672,-15.750000,98.349998,15.470000,22.21
5577059,0.244488,-0.214720,1.024312,-8.820000,96.599998,13.580000,22.22
5577070,0.238144,-0.199592,1.090680,-12.320000,93.800003,17.219999,22.22
5577081,0.246440,-0.212280,1.169736,-13.510000,91.980003,19.670000,22.22
5577092,0.199104,-0.156160,1.254648,-19.670000,86.870003,21.980000,22.22
5577103,0.204960,-0.188368,1.303448,-23.870001,82.389999,24.500000,22.20
5577114,0.188856,-0.221552,1.302472,-17.709999,79.099998,21.000000,22.24
5577125,0.184464,-0.268400,1.343952,-13.370000,74.199997,23.170000,22.24
5577136,0.140056,-0.253272,1.436672,-12.740000,67.269997,21.980000,22.23
5577147,0.112240,-0.274744,1.525976,-14.140000,60.900002,21.000000,22.23
5577158,0.066856,-0.246928,1.595272,-20.719999,48.790001,22.820000,22.21
5577169,0.106384,-0.321592,1.640168,-23.309999,37.169998,19.530001,22.19
5577180,0.085400,-0.404552,1.669936,-20.510000,26.459999,15.470000,22.19
5577191,0.109312,-0.506544,1.680672,-11.060000,18.340000,11.690000,22.22
5577202,0.085400,-0.567544,1.667008,7.000000,8.260000,4.130000,22.22
5577213,0.060512,-0.467992,1.625528,20.370001,-2.170000,-0.070000,22.20
5577224,0.026840,-0.410896,1.578680,36.470001,-10.850000,-8.750000,22.21
5577235,0.019520,-0.269376,1.597224,32.200001,-25.900000,-7.350000,22.21
5577247,0.072224,-0.266448,1.598688,23.520000,-35.700001,-11.130000,22.22
5577258,0.083936,-0.255712,1.593320,20.090000,-45.290001,-13.510000,22.22
5577268,0.096624,-0.243024,1.579168,13.370000,-54.529999,-14.560000,22.25
5577279,0.113216,-0.249368,1.560136,10.570000,-64.120003,-15.540000,22.20
5577290,0.100528,-0.267424,1.512312,13.860000,-74.690002,-18.620001,22.20
5577301,0.105408,-0.262544,1.422520,18.620001,-80.919998,-20.510000,22.21
5577312,0.101504,-0.237168,1.309792,25.270000,-86.589996,-21.559999,22.21
5577325,0.135176,-0.186416,1.243424,29.049999,-91.559998,-22.400000,22.24
5577336,0.154208,-0.129808,1.227320,25.270000,-96.529999,-21.070000,22.18
5577347,0.174216,-0.121512,1.222440,23.799999,-101.709999,-20.370001,22.18
5577358,0.199104,-0.094672,1.199016,21.070000,-107.309998,-18.410000,22.23
5577369,0.218624,-0.108824,1.152656,20.230000,-109.690002,-18.410000,22.23
5577381,0.225944,-0.093208,1.099952,19.809999,-113.610001,-17.360001,22.18
5577392,0.239608,-0.076128,1.036512,18.690001,-115.290001,-16.730000,22.16
5577404,0.241560,-0.078568,0.978440,15.260000,-117.459999,-15.750000,22.16
5577415,0.267424,-0.097600,0.916464,16.730000,-117.879997,-15.820000,22.22
5577426,0.320128,-0.073200,0.813984,16.450001,-114.589996,-16.240000,22.22
5577438,0.302560,-0.096136,0.746640,19.320000,-113.750000,-17.150000,22.21
5577449,0.366976,-0.096624,0.706624,20.230000,-109.620003,-13.090000,22.23
5577460,0.386008,-0.099552,0.661240,25.059999,-105.559998,-14.560000,22.23
5577472,0.406016,-0.084424,0.593896,29.959999,-100.940002,-15.050000,22.20
5577483,0.426024,-0.077592,0.523624,33.529999,-96.040001,-13.300000,22.20
5577494,0.450424,-0.069296,0.467992,36.330002,-88.550003,-12.390000,22.25
5577505,0.467504,-0.056120,0.433344,37.520000,-80.500000,-10.920000,22.23
5577517,0.488000,-0.035136,0.396256,37.169998,-71.820000,-9.450000,22.23
5577528,0.487512,-0.006344,0.356240,33.810001,-63.139999,-8.750000,22.23
5577539,0.488000,-0.008296,0.311344,30.450001,-55.720001,-9.240000,22.23
5577550,0.486536,-0.012688,0.259616,29.190001,-46.340000,-9.450000,22.18
5577562,0.486536,-0.024888,0.207400,30.030001,-35.490002,-10.780000,22.21
5577574,0.512888,-0.035136,0.186904,31.780001,-22.610001,-9.590000,22.21
5577585,0.512400,-0.003904,0.187392,34.020000,-11.900000,-8.540000,22.23
5577595,0.527040,0.017568,0.193248,32.900002,0.980000,-6.580000,22.23
5577606,0.525576,0.030744,0.215696,31.290001,10.500000,-6.440000,22.20
5577618,0.517768,0.064416,0.236192,27.860001,22.260000,-6.020000,22.20
5577629,0.520208,0.076128,0.249856,23.379999,33.529999,-4.550000,22.20
5577639,0.502152,0.136640,0.271328,13.370000,41.299999,-1.050000,22.23
5577650,0.515328,0.122000,0.302560,-1.330000,50.889999,1.470000,22.23
5577661,0.514352,0.102968,0.337208,-9.800000,62.020000,2.660000,22.23
5577672,0.494344,0.116144,0.379664,-25.620001,68.180000,6.300000,22.20
5577683,0.484096,0.098088,0.395768,-42.070000,76.230003,9.380000,22.20
5577694,0.462624,0.091744,0.429928,-56.980000,83.440002,12.950000,22.22
5577705,0.451888,0.067344,0.497760,-68.669998,88.269997,17.290001,22.22
5577716,0.443104,0.034160,0.579744,-81.129997,92.820000,21.980000,22.24
5577727,0.432856,-0.010736,0.620736,-87.639999,97.019997,24.570000,22.22
5577738,0.404552,-0.071248,0.635376,-86.519997,101.010002,24.570000,22.22
5577749,0.362584,-0.108824,0.682224,-83.930000,103.180000,26.670000,22.21
5577760,0.345992,-0.099064,0.800808,-87.080002,100.870003,31.709999,22.21
5577771,0.344040,-0.171776,0.874496,-84.839996,101.290001,33.740002,22.25
5577782,0.343064,-0.280112,0.893528,-75.040001,104.230003,32.970001,22.25
5577793,0.310368,-0.302072,0.874496,-55.860001,105.559998,28.559999,22.24
5577804,0.276208,-0.354776,0.853024,-34.720001,105.769997,24.290001,22.21
5577815,0.267912,-0.339648,0.873520,-22.120001,106.120003,26.250000,22.21
5577826,0.265960,-0.321592,0.918904,-11.200000,107.169998,25.900000,22.22
5577837,0.213256,-0.276696,1.012600,-7.000000,106.050003,26.740000,22.22
5577848,0.175192,-0.252784,1.093120,-2.520000,104.440002,23.870001,22.25
5577859,0.146888,-0.190808,1.168272,-2.660000,98.769997,23.520000,22.22
5577870,0.153232,-0.193248,1.197064,-5.880000,95.410004,21.910000,22.22
5577881,0.148352,-0.231312,1.205360,-8.400000,92.120003,20.580000,22.21
5577892,0.140544,-0.273768,1.276608,-12.530000,87.080002,22.889999,22.21
5577903,0.091744,-0.298656,1.336632,-11.130000,81.339996,20.580000,22.21
5577914,0.058072,-0.279136,1.350784,-14.910000,73.779999,20.580000,22.19
5577925,0.045872,-0.286944,1.361032,-20.020000,67.339996,19.950001,22.19
5577936,0.018056,-0.318664,1.394704,-23.799999,59.570000,18.690001,22.16
5577947,0.030744,-0.402600,1.351272,-19.320000,55.299999,26.320000,22.16
5577958,-0.049776,-0.292312,1.528904,-32.900002,41.369999,15.540000,22.26
5577970,0.044896,-0.447984,1.576240,-36.189999,33.740002,15.120000,22.21
5577981,0.012200,-0.539240,1.606496,-27.580000,26.879999,7.840000,22.21
5577992,-0.005856,-0.532896,1.593808,-20.510000,16.660000,3.010000,22.24
5578003,-0.005856,-0.514840,1.587464,-12.740000,6.580000,0.210000,22.24
5578014,-0.011224,-0.483608,1.621624,-7.700000,-6.230000,-2.800000,22.21
5578025,0.024888,-0.510936,1.638216,1.120000,-16.520000,-7.840000,22.21
5578037,0.014640,-0.535336,1.635288,12.460000,-27.020000,-11.480000,22.19
5578049,0.034648,-0.600240,1.604544,35.630001,-34.650002,-19.670000,22.22
5578060,0.026352,-0.511912,1.556720,57.820000,-42.139999,-25.549999,22.22
5578071,-0.005856,-0.271816,1.501576,70.279999,-50.189999,-26.600000,22.22
5578083,0.029280,-0.197152,1.434720,64.610001,-61.459999,-28.770000,22.19
5578094,0.042944,-0.159088,1.426424,53.340000,-68.040001,-27.719999,22.19
5578106,0.077104,-0.160064,1.459608,39.130001,-77.000000,-25.969999,22.24
5578116,0.101992,-0.189832,1.458632,33.880001,-82.250000,-26.320000,22.24
5578127,0.088328,-0.206912,1.459608,31.780001,-89.739998,-27.299999,22.23
5578138,0.108336,-0.311344,1.425448,43.470001,-96.879997,-29.469999,22.21
5578149,0.116144,-0.283528,1.351272,62.090000,-103.110001,-31.150000,22.21
5578160,0.131272,-0.175192,1.281488,70.000000,-110.250000,-29.469999,22.22
5578171,0.142008,-0.032208,1.182424,65.800003,-114.029999,-24.780001,22.22
5578182,0.127856,0.021960,1.076040,52.360001,-117.040001,-22.049999,22.23
5578193,0.143960,0.046848,1.054568,36.400002,-121.870003,-18.760000,22.23
5578204,0.173728,-0.014152,1.059936,22.889999,-126.349998,-18.690001,22.22
5578215,0.263032,-0.248880,1.044808,26.950001,-125.930000,-16.660000,22.18
5578226,0.255712,-0.149328,1.011624,40.320000,-129.639999,-18.129999,22.18
5578237,0.269376,-0.109800,0.976000,47.529999,-133.910004,-16.240000,22.24
5578248,0.287432,-0.072712,0.923296,53.970001,-135.729996,-14.770000,22.24
5578260,0.301096,-0.041480,0.856440,59.849998,-132.720001,-18.129999,22.21
5578270,0.296216,-0.038064,0.770552,63.910000,-134.330002,-16.870001,22.20
5578282,0.336720,0.004392,0.640256,66.989998,-129.080002,-14.210000,22.20
5578292,0.320128,0.091256,0.478240,58.099998,-124.180000,-9.380000,22.23
5578303,0.338672,0.124440,0.363560,39.549999,-119.559998,-7.000000,22.23
5578314,0.398208,0.070272,0.270840,32.270000,-109.339996,-3.430000,22.20
5578325,0.422608,-0.001464,0.223504,30.660000,-100.660004,-2.100000,22.23
5578337,0.462136,-0.035136,0.213744,35.980000,-90.300003,-1.400000,22.23
5578348,0.497272,-0.030744,0.201544,42.349998,-77.489998,-0.980000,22.22
5578358,0.509472,-0.007320,0.182024,45.150002,-64.470001,-1.470000,22.22
5578370,0.522160,-0.003416,0.145912,46.130001,-52.430000,-0.770000,22.22
5578381,0.539728,0.027328,0.138104,42.560001,-40.740002,0.770000,22.20
5578392,0.540216,0.060024,0.135176,34.790001,-27.090000,0.700000,22.20
5578403,0.539240,0.058072,0.138104,27.719999,-13.160000,1.260000,22.19
5578414,0.535336,0.054656,0.146888,18.410000,-0.280000,0.910000,22.19
5578425,0.544608,0.042944,0.162992,9.730000,11.550000,0.490000,22.23
5578436,0.536312,0.032208,0.177632,3.290000,24.639999,-0.350000,22.15
5578447,0.534360,0.020496,0.225456,-2.870000,35.980000,-0.350000,22.15
5578458,0.520208,0.018056,0.276696,-8.610000,44.939999,-0.420000,22.21
5578470,0.484096,0.020984,0.323544,-12.880000,56.070000,-1.680000,22.21
5578481,0.492392,0.013664,0.380640,-18.900000,64.610001,-2.310000,22.19
5578492,0.466528,0.023912,0.422608,-23.450001,70.769997,-2.870000,22.16
5578503,0.469944,0.044896,0.459208,-29.540001,77.910004,-1.330000,22.16
5578514,0.471408,0.081008,0.523624,-39.060001,82.599998,1.820000,22.19
5578525,0.464576,0.107360,0.573400,-54.110001,85.750000,3.920000,22.19
5578536,0.481168,0.118584,0.615856,-70.139999,90.930000,6.930000,22.23
5578547,0.453840,0.078568,0.641232,-85.330002,93.870003,8.260000,22.23
5578557,0.423096,0.040992,0.679296,-98.980003,97.860001,12.110000,22.20
5578568,0.395280,0.017080,0.739320,-103.040001,98.139999,16.100000,22.23
5578579,0.401136,-0.014640,0.775920,-109.620003,97.580002,20.790001,22.23
5578590,0.409920,-0.068808,0.814960,-113.190002,99.330002,26.320000,22.20
5578601,0.377224,-0.130784,0.877912,-113.120003,98.279999,28.910000,22.20
5578612,0.359656,-0.217648,0.915000,-107.379997,99.959999,30.170000,22.23
5578623,0.324520,-0.272792,0.947208,-93.660004,103.040001,31.080000,22.21
5578634,0.302072,-0.322568,0.973560,-80.919998,100.239998,28.559999,22.21
5578645,0.283040,-0.399672,0.970144,-56.139999,100.940002,24.010000,22.19
5578656,0.240584,-0.405528,0.975024,-28.000000,98.419998,19.459999,22.19
5578667,0.217648,-0.342088,1.034560,-7.490000,94.639999,17.780001,22.19
5578678,0.213744,-0.237656,1.116544,0.070000,90.019997,17.219999,22.19
5578689,0.217648,-0.141520,1.250744,-5.180000,86.449997,20.650000,22.20
5578700,0.234728,-0.158112,1.311744,-11.550000,81.269997,20.580000,22.23
5578711,0.202520,-0.209352,1.333216,-14.210000,76.860001,20.160000,22.23
5578722,0.164944,-0.249368,1.333704,-13.090000,68.599998,18.760000,22.21
5578733,0.175680,-0.280600,1.323944,-11.200000,63.700001,17.850000,22.21
5578744,0.174216,-0.275720,1.321016,-9.170000,58.380001,17.290001,22.20
5578755,0.119072,-0.265960,1.341512,-10.010000,49.700001,17.430000,22.16
5578766,0.158112,-0.274744,1.403976,-15.820000,44.099998,18.200001,22.16
5578777,0.123952,-0.281576,1.446920,-20.930000,36.540001,16.870001,22.22
5578788,0.138592,-0.357216,1.460584,-24.990000,28.280001,15.540000,22.22
5578799,0.171776,-0.505080,1.416664,-12.880000,25.200001,9.310000,22.20
5578809,0.114192,-0.548512,1.371768,13.370000,19.530001,5.250000,22.18
5578820,0.097112,-0.475800,1.369328,32.130001,12.740000,-1.400000,22.18
5578831,0.071248,-0.314272,1.424472,33.810001,5.460000,0.140000,22.21
5578842,0.099552,-0.203496,1.489864,16.590000,-5.810000,1.820000,22.21
5578853,0.143472,-0.267424,1.525000,6.370000,-13.930000,-1.400000,22.18
5578864,0.134688,-0.319640,1.537688,-2.940000,-21.559999,-3.360000,22.18
5578875,0.166896,-0.410896,1.508896,-1.750000,-29.260000,-6.510000,22.21
5578886,0.133224,-0.447984,1.465464,9.520000,-34.369999,-11.270000,22.22
5578897,0.118584,-0.505080,1.395192,24.920000,-39.759998,-17.219999,22.22
5578908,0.076128,-0.460184,1.341512,48.860001,-46.200001,-24.010000,22.17
5578919,0.074176,-0.301584,1.309792,56.980000,-55.160000,-25.549999,22.17
5578930,0.117120,-0.159576,1.319064,49.070000,-64.260002,-24.010000,22.16
5578941,0.169336,-0.112240,1.365912,30.030001,-69.580002,-22.540001,22.18
5578952,0.180072,-0.112240,1.405928,16.590000,-76.510002,-22.680000,22.18
5578963,0.173728,-0.120536,1.391776,9.520000,-84.349998,-22.469999,22.19
5578974,0.170800,-0.168360,1.319064,8.330000,-91.839996,-22.540001,22.19
5578985,0.174216,-0.178608,1.220976,8.470000,-96.529999,-23.799999,22.19
5578996,0.191784,-0.180072,1.147288,11.410000,-101.430000,-23.170000,22.19
5579007,0.213256,-0.220576,1.070672,18.760000,-104.510002,-24.990000,22.19
5579018,0.242048,-0.214720,1.062376,25.690001,-106.889999,-24.780001,22.21
5579029,0.242048,-0.145912,1.051640,34.160000,-111.019997,-23.940001,22.21
5579040,0.269376,-0.103944,1.053104,34.160000,-114.589996,-22.889999,22.21
5579052,0.283528,-0.122000,1.015528,37.450001,-116.339996,-23.170000,22.21
5579063,0.286456,-0.109800,0.952088,41.930000,-118.860001,-22.330000,22.21
5579074,0.313296,-0.103456,0.872544,45.919998,-120.120003,-22.049999,22.18
5579085,0.329400,-0.071248,0.810568,47.669998,-119.349998,-21.350000,22.18
5579095,0.345992,-0.037576,0.728584,47.320000,-117.250000,-19.320000,22.21
5579106,0.368440,-0.024400,0.650992,46.200001,-112.489998,-20.790001,22.21
5579117,0.370392,0.019032,0.595360,38.990002,-111.720001,-15.680000,22.20
5579128,0.447008,0.002928,0.543632,35.840000,-105.769997,-13.370000,22.18
5579139,0.450424,-0.016592,0.491416,35.700001,-98.699997,-11.760000,22.18
5579150,0.479704,-0.020984,0.459696,35.630001,-92.750000,-10.500000,22.20
5579161,0.515816,-0.017568,0.423096,37.450001,-83.300003,-8.820000,22.20
5579173,0.515328,0.004880,0.388448,36.470001,-74.269997,-7.140000,22.20
5579183,0.542656,0.005856,0.356728,33.810001,-65.800003,-5.390000,22.20
5579194,0.543632,0.023912,0.336232,30.520000,-55.439999,-4.340000,22.20
5579205,0.558760,0.028792,0.328912,24.920000,-46.410000,-3.150000,22.22
5579216,0.572424,0.025376,0.329888,19.180000,-38.430000,-1.680000,22.22
5579227,0.570960,0.029768,0.321592,12.110000,-29.680000,-0.770000,22.16
5579238,0.592432,0.004392,0.316224,6.650000,-19.950001,-0.560000,22.16
5579249,0.602192,-0.009272,0.308904,4.130000,-8.820000,-0.420000,22.21
5579260,0.601704,-0.015616,0.305488,1.820000,-0.140000,-0.980000,22.23
5579271,0.598288,-0.033184,0.316224,-0.700000,9.940000,-1.400000,22.23
5579282,0.587552,-0.039040,0.353312,-1.190000,19.809999,-2.100000,22.18
5579294,0.578768,-0.029768,0.390400,-2.730000,27.090000,-1.050000,22.18
5579304,0.580720,-0.030256,0.409432,-2.590000,33.950001,-1.680000,22.19
5579316,0.568032,-0.031720,0.421632,-2.380000,42.000000,-2.940000,22.16
5579327,0.546072,-0.008784,0.441152,-4.410000,49.000000,-2.940000,22.16
5579338,0.543144,-0.006832,0.472384,-6.370000,54.880001,-2.870000,22.22
5579349,0.542656,0.003904,0.514352,-10.850000,59.849998,-1.680000,22.22
5579360,0.537776,0.014152,0.549976,-16.309999,63.980000,-0.840000,22.19
5579371,0.540704,0.018544,0.592432,-21.139999,68.599998,1.190000,22.18
5579382,0.529480,0.017080,0.607072,-25.969999,71.610001,2.240000,22.18
5579393,0.509472,0.013176,0.745176,-30.660000,75.320000,2.450000,22.23
5579403,0.487024,0.005856,0.655872,-35.419998,79.169998,4.830000,22.23
5579414,0.479216,0.002928,0.678808,-34.650002,82.250000,8.120000,22.21
5579425,0.450424,0.014640,0.707600,-43.259998,83.440002,9.310000,22.21
5579436,0.448472,0.006832,0.754936,-45.779999,85.400002,11.480000,22.13
5579447,0.436272,0.023424,0.772504,-51.939999,87.360001,13.160000,22.18
5579458,0.429440,-0.022936,0.775432,-55.720001,90.790001,14.420000,22.18
5579469,0.408456,-0.042456,0.800808,-58.520000,91.209999,18.059999,22.19
5579480,0.403088,-0.042944,0.881816,-65.169998,92.889999,23.870001,22.19
5579491,0.375760,-0.061976,0.978440,-73.500000,91.139999,27.510000,22.20
5579502,0.338672,-0.110776,1.017480,-74.129997,90.510002,28.910000,22.17
5579513,0.325984,-0.197640,0.996984,-69.790001,88.900002,27.650000,22.17
5579524,0.298168,-0.204472,0.957944,-60.200001,87.570000,25.620001,22.18
5579535,0.267912,-0.217160,0.942816,-52.500000,86.309998,24.570000,22.18
5579546,0.274256,-0.254736,0.960872,-48.580002,85.680000,26.459999,22.18
5579557,0.289872,-0.313296,1.043832,-41.020000,85.680000,28.350000,22.22
5579568,0.256200,-0.283528,1.093608,-30.379999,83.510002,26.950001,22.22
5579579,0.217160,-0.263032,1.112152,-24.080000,80.500000,23.660000,22.20
5579590,0.195688,-0.257664,1.090680,-20.020000,77.910004,21.840000,22.20
5579601,0.176168,-0.272792,1.063840,-15.820000,76.370003,19.740000,22.24
5579612,0.174704,-0.278160,1.080920,-13.930000,73.639999,20.440001,22.19
5579623,0.174216,-0.287432,1.142896,-14.840000,71.330002,22.680000,22.19
5579634,0.153232,-0.316224,1.223416,-12.110000,68.949997,20.440001,22.18
5579645,0.131272,-0.298168,1.298568,-12.040000,63.419998,19.740000,22.18
5579656,0.100528,-0.280112,1.357616,-14.210000,57.119999,18.270000,22.20
5579667,0.122000,-0.326960,1.416664,-20.020000,50.889999,20.299999,22.20
5579678,0.108824,-0.392840,1.444968,-18.969999,44.520000,17.290001,22.16
5579689,0.074176,-0.446032,1.450824,-16.240000,35.279999,14.770000,22.19
5579699,0.056608,-0.477752,1.464000,-12.110000,26.740000,8.890000,22.19
5579710,0.031720,-0.492392,1.479616,-4.550000,18.969999,4.060000,22.20
5579721,0.029280,-0.486048,1.502064,2.170000,7.140000,-1.400000,22.20
5579732,0.051240,-0.445544,1.513288,1.540000,-4.690000,-3.150000,22.17
5579744,0.078080,-0.452376,1.529392,-2.100000,-13.160000,-6.790000,22.17
5579756,0.099064,-0.456768,1.556232,1.190000,-23.730000,-13.160000,22.17
5579767,0.106872,-0.488000,1.547936,10.710000,-31.080000,-18.410000,22.20
5579777,0.111752,-0.501176,1.502552,28.070000,-39.270000,-22.260000,22.20
5579788,0.093208,-0.464088,1.400560,46.480000,-46.060001,-28.980000,22.21
5579799,0.078080,-0.281088,1.360056,56.209999,-53.340000,-28.350000,22.19
5579811,0.131760,-0.219600,1.343952,46.270000,-61.599998,-28.070000,22.19
5579822,0.152744,-0.183000,1.347856,33.599998,-67.269997,-27.090000,22.18
5579833,0.170312,-0.181048,1.345416,25.760000,-73.989998,-26.040001,22.18
5579844,0.186416,-0.177144,1.320528,19.950001,-77.209999,-25.620001,22.21
5579855,0.184464,-0.159576,1.291736,14.490000,-83.089996,-23.730000,22.20
5579866,0.198616,-0.225944,1.237080,15.190000,-87.779999,-24.219999,22.20
5579877,0.191296,-0.253760,1.187792,22.190001,-90.930000,-25.340000,22.19
5579888,0.187392,-0.253760,1.114104,33.950001,-94.010002,-26.740000,22.19
5579899,0.192272,-0.152744,1.068720,39.270000,-97.019997,-26.250000,22.23
5579910,0.225456,-0.088816,1.061888,35.630001,-100.800003,-21.840000,22.23
5579921,0.261568,-0.117120,1.083360,32.270000,-101.220001,-19.600000,22.19
5579932,0.254736,-0.122976,1.103856,33.599998,-104.300003,-17.920000,22.14
5579943,0.292800,-0.129808,1.096536,40.040001,-108.500000,-17.219999,22.14
5579954,0.300120,-0.088816,1.057496,41.299999,-111.650002,-14.910000,22.25
5579965,0.308904,-0.108336,1.012112,38.639999,-113.540001,-13.720000,22.25
5579976,0.318664,-0.108824,0.971120,41.790001,-114.379997,-13.160000,22.21
5579987,0.329400,-0.110288,0.901824,41.930000,-115.919998,-12.950000,22.20
5579998,0.348920,-0.103456,0.829112,41.720001,-115.709999,-11.900000,22.20
5580009,0.394304,-0.077592,0.799344,37.380001,-112.419998,-13.580000,22.22
5580020,0.401136,-0.117608,0.758840,37.099998,-114.169998,-12.040000,22.22
5580031,0.441152,-0.107848,0.721752,40.459999,-111.650002,-11.830000,22.21
5580042,0.457256,-0.041968,0.676856,37.169998,-108.779999,-10.780000,22.19
5580053,0.462136,0.022936,0.628544,30.379999,-106.750000,-10.640000,22.19
5580063,0.481656,0.041968,0.535824,23.379999,-100.169998,-7.980000,22.23
5580074,0.492880,0.026840,0.442128,14.420000,-94.150002,-7.700000,22.23
5580085,0.518256,-0.009272,0.384544,10.220000,-84.489998,-6.860000,22.20
5580096,0.535336,-0.024400,0.326472,10.430000,-75.040001,-6.860000,22.20
5580107,0.556808,-0.031232,0.297192,11.830000,-65.800003,-5.180000,22.20
5580118,0.559736,-0.008296,0.272792,12.810000,-55.930000,-3.780000,22.20
5580129,0.575352,0.009272,0.277184,10.360000,-46.410000,-0.490000,22.20
5580140,0.579256,0.019032,0.282552,7.770000,-38.709999,1.330000,22.21
5580151,0.580232,0.027328,0.277184,5.040000,-28.070000,2.240000,22.21
5580162,0.587552,0.027328,0.276696,1.820000,-17.709999,2.730000,22.18
5580173,0.590968,0.023912,0.273768,-1.890000,-9.380000,3.640000,22.18
5580184,0.590480,0.011224,0.280112,-5.390000,0.630000,4.410000,22.18
5580195,0.580232,-0.009760,0.295728,-7.700000,10.780000,4.690000,22.22
5580205,0.556808,-0.036112,0.301584,-7.070000,17.430000,4.550000,22.22
5580216,0.550952,-0.048800,0.310368,-4.830000,25.480000,4.130000,22.20
5580227,0.537776,-0.068808,0.317688,-1.820000,33.880001,3.290000,22.20
5580238,0.538752,-0.068808,0.339160,-0.420000,40.180000,3.010000,22.20
5580249,0.528504,-0.063440,0.359656,1.890000,48.160000,2.310000,22.18
5580260,0.521184,-0.046848,0.382592,2.100000,54.389999,2.660000,22.18
5580271,0.524112,-0.043920,0.401136,2.240000,60.970001,2.450000,22.18
5580282,0.525576,-0.043920,0.417728,0.490000,65.449997,2.520000,22.18
5580293,0.523136,-0.050264,0.436272,-0.490000,72.169998,2.660000,22.20
5580304,0.516792,-0.034648,0.449936,-2.030000,78.190002,3.150000,22.16
5580315,0.517280,-0.028304,0.512888,-8.470000,81.970001,5.530000,22.16
5580326,0.488976,-0.006344,0.556320,-15.610000,87.709999,6.370000,22.18
5580337,0.452864,0.012200,0.617808,-22.959999,90.930000,8.610000,22.18
5580347,0.433832,0.018056,0.685152,-31.990000,91.980003,10.150000,22.20
5580358,0.428952,0.004392,0.712968,-41.509998,93.519997,11.060000,22.20
5580369,0.413824,-0.044408,0.702232,-45.849998,94.639999,11.550000,22.20
5580380,0.427976,-0.082472,0.711504,-50.889999,95.760002,15.190000,22.22
5580391,0.437248,-0.089304,0.736880,-56.349998,99.750000,17.570000,22.22
5580402,0.376736,-0.061976,0.879864,-66.919998,100.029999,21.770000,22.18
5580413,0.382592,-0.086376,0.970144,-75.459999,99.889999,25.549999,22.18
5580424,0.332328,-0.130296,1.000400,-77.279999,98.070000,24.990000,22.18
5580435,0.323544,-0.216184,0.998936,-70.349998,95.550003,24.500000,22.22
5580446,0.308904,-0.256688,0.997472,-62.509998,93.519997,24.360001,22.22
5580457,0.308416,-0.296216,1.051640,-54.599998,92.889999,26.110001,22.20
5580468,0.318176,-0.311344,1.112152,-50.119999,91.209999,26.600000,22.20
5580479,0.278160,-0.276208,1.128256,-45.849998,87.989998,24.290001,22.21
5580490,0.250832,-0.280600,1.108248,-39.619999,85.540001,21.840000,22.16
5580501,0.228872,-0.246440,1.083360,-33.459999,82.180000,20.860001,22.16
5580512,0.221064,-0.232776,1.090680,-33.459999,78.889999,23.100000,22.18
5580522,0.225944,-0.264008,1.205848,-37.310001,76.230003,27.160000,22.18
5580533,0.193736,-0.272792,1.285880,-38.220001,71.680000,28.420000,22.23
5580544,0.161040,-0.308416,1.321504,-39.549999,65.519997,27.090000,22.23
5580555,0.137128,-0.394304,1.329800,-35.490002,59.779999,23.590000,22.18
5580566,0.133224,-0.458720,1.311744,-24.920000,53.830002,19.040001,22.20
5580577,0.133224,-0.473848,1.304912,-16.100000,47.040001,16.240000,22.20
5580588,0.154208,-0.463112,1.296616,-7.140000,43.750000,13.580000,22.21
5580599,0.168848,-0.461160,1.267824,-2.100000,39.830002,11.970000,22.21
5580610,0.130784,-0.490440,1.268800,7.280000,35.770000,6.300000,22.23
5580621,0.106384,-0.457256,1.295152,12.530000,29.820000,4.340000,22.16
5580632,0.123464,-0.386008,1.345904,9.940000,24.150000,4.060000,22.16
5580643,0.146400,-0.359168,1.404464,-0.840000,17.360001,5.320000,22.18
5580654,0.156648,-0.429928,1.430816,-3.920000,11.620000,2.030000,22.18
5580664,0.118584,-0.446520,1.418616,-2.730000,5.600000,0.490000,22.22
5580675,0.103456,-0.533872,1.386408,9.100000,-0.630000,-6.790000,22.22
5580686,0.070760,-0.483120,1.428376,19.530001,-9.310000,-9.800000,22.18
5580698,0.077592,-0.341600,1.496208,21.490000,-18.129999,-11.200000,22.18
5580709,0.095160,-0.305000,1.525976,9.310000,-29.889999,-10.850000,22.18
5580720,0.131272,-0.404064,1.515728,5.670000,-38.220001,-13.440000,22.24
5580731,0.139080,-0.435784,1.476688,10.570000,-46.830002,-19.110001,22.24
5580742,0.150792,-0.455304,1.457656,17.360001,-53.549999,-22.190001,22.15
5580753,0.155672,-0.504104,1.394704,34.090000,-57.470001,-27.790001,22.19
5580764,0.113216,-0.452376,1.294176,49.980000,-62.790001,-29.820000,22.19
5580775,0.106872,-0.349408,1.258552,68.389999,-70.070000,-31.780001,22.21
5580786,0.165432,-0.226432,1.300520,64.540001,-78.190002,-29.610001,22.21
5580797,0.200080,-0.183488,1.337608,56.630001,-85.190002,-27.370001,22.21
5580808,0.206424,-0.153232,1.343464,52.430000,-93.029999,-26.809999,22.22
5580819,0.228872,-0.172264,1.321992,43.959999,-98.699997,-25.270000,22.22
5580830,0.236192,-0.163480,1.265384,42.139999,-102.830002,-24.990000,22.15
5580841,0.220088,-0.110776,1.203896,33.950001,-109.129997,-22.820000,22.15
5580852,0.224480,-0.176656,1.125816,34.160000,-112.070000,-23.450001,22.21
5580863,0.224480,-0.122976,1.071648,35.630001,-115.500000,-21.209999,22.19
5580874,0.250344,-0.097112,1.063840,31.850000,-121.379997,-19.459999,22.19
5580885,0.283528,-0.096624,1.061400,26.600000,-125.370003,-17.920000,22.20
5580897,0.319152,-0.140544,1.043832,27.230000,-128.520004,-18.270000,22.20
5580908,0.337696,-0.158112,1.001376,31.780001,-130.830002,-18.059999,22.24
5580919,0.347944,-0.131760,0.931592,35.279999,-132.509995,-17.850000,22.20
5580930,0.383568,-0.106872,0.854488,37.240002,-128.449997,-19.879999,22.20
5580941,0.361120,-0.137128,0.752008,38.849998,-129.639999,-17.850000,22.25
5580952,0.379176,-0.131760,0.660264,41.020000,-127.750000,-15.680000,22.25
5580963,0.414312,-0.125904,0.604144,44.939999,-123.480003,-14.210000,22.14
5580974,0.443104,-0.067832,0.545096,45.570000,-119.839996,-13.020000,22.14
5580985,0.474336,-0.059536,0.493368,45.849998,-114.730003,-11.690000,22.20
5580996,0.494832,-0.033672,0.436272,45.150002,-106.750000,-10.780000,22.16
5581007,0.515816,0.003904,0.395280,42.139999,-99.260002,-8.750000,22.16
5581018,0.532408,0.025864,0.361608,36.959999,-90.860001,-6.090000,22.20
5581028,0.550952,0.066856,0.304512,25.549999,-82.250000,-3.710000,22.20
5581039,0.537288,0.104920,0.275720,12.460000,-73.150002,-1.890000,22.20
5581050,0.539240,0.100528,0.244976,2.870000,-63.349998,0.000000,22.16
5581061,0.563640,0.065880,0.216184,-7.490000,-55.790001,1.400000,22.16
5581072,0.589992,0.013176,0.194224,-11.830000,-44.240002,2.940000,22.15
5581083,0.608048,-0.024888,0.184952,-13.160000,-31.920000,3.150000,22.15
5581094,0.610488,-0.055632,0.215208,-12.530000,-22.540001,3.570000,22.17
5581105,0.603168,-0.064904,0.243512,-9.730000,-11.550000,2.870000,22.18
5581116,0.591456,-0.087352,0.263520,-4.270000,-1.960000,1.890000,22.18
5581127,0.591944,-0.095160,0.276208,0.630000,6.650000,1.260000,22.18
5581138,0.595360,-0.108336,0.286456,5.460000,13.790000,-0.420000,22.18
5581149,0.593408,-0.101016,0.295240,11.410000,22.330000,-1.260000,22.20
5581160,0.599752,-0.061976,0.337208,13.090000,30.240000,-1.890000,22.20
5581171,0.592432,-0.040992,0.380640,14.210000,36.540001,-2.450000,22.16
5581182,0.569496,-0.010248,0.404552,11.410000,42.490002,-2.870000,22.16
5581193,0.565104,0.004392,0.444568,9.030000,47.250000,-2.450000,22.16
5581203,0.573888,0.011224,0.473360,4.200000,50.259998,-1.120000,22.18
5581214,0.585600,0.006832,0.488000,-1.050000,54.529999,-0.210000,22.18
5581225,0.587064,-0.005368,0.509960,-3.990000,59.849998,0.000000,22.17
5581236,0.586088,-0.007808,0.516304,-7.560000,63.980000,0.700000,22.19
5581247,0.584136,-0.008784,0.543632,-10.430000,69.089996,2.450000,22.19
5581258,0.579744,-0.007808,0.548512,-11.900000,75.180000,2.800000,22.17
5581269,0.550952,0.001952,0.589992,-18.200001,77.980003,5.460000,22.17
5581280,0.517768,-0.000976,0.637328,-21.350000,82.250000,6.090000,22.21
5581291,0.490440,0.016592,0.671488,-26.040001,84.070000,7.420000,22.21
5581301,0.483608,-0.007320,0.691496,-29.959999,85.330002,7.700000,22.19
5581312,0.467016,-0.012200,0.711016,-32.970001,87.500000,8.750000,22.21
5581323,0.621712,-0.020984,0.707112,-39.900002,88.480003,11.900000,22.21
5581334,0.495808,-0.052704,0.720288,-44.029999,92.120003,12.390000,22.22
5581345,0.479704,-0.092232,0.745176,-46.689999,96.250000,14.420000,22.22
5581356,0.444568,-0.069296,0.780800,-48.650002,99.820000,17.920000,22.17
5581367,0.411384,-0.075152,0.807152,-53.830002,99.820000,20.230000,22.22
5581378,0.390400,-0.097112,0.996008,-61.040001,99.750000,24.500000,22.22
5581389,0.375272,-0.129320,0.959408,-62.160000,98.629997,25.340000,22.21
5581400,0.338672,-0.158600,1.015528,-64.680000,95.760002,26.180000,22.21
5581411,0.332328,-0.218136,1.048224,-60.830002,93.589996,25.690001,22.17
5581421,0.339160,-0.278648,1.045784,-53.689999,93.309998,26.389999,22.17
5581432,0.338672,-0.292312,1.067256,-47.740002,91.910004,26.670000,22.15
5581443,0.307440,-0.299632,1.063352,-37.590000,89.949997,23.379999,22.13
5581454,0.267424,-0.257664,1.062376,-34.580002,86.099998,23.379999,22.13
5581465,0.242048,-0.250832,1.135576,-32.270000,82.529999,23.170000,22.20
5581476,0.235704,-0.232776,1.209264,-35.209999,75.599998,24.709999,22.20
5581487,0.246928,-0.290360,1.232200,-35.209999,71.610001,23.940001,22.17
5581498,0.220576,-0.340136,1.203896,-32.480000,68.389999,20.160000,22.18
5581509,0.207888,-0.337696,1.161928,-29.540001,64.959999,19.459999,22.18
5581521,0.210328,-0.314760,1.091656,-28.000000,61.459999,0.070000,22.21
5581531,0.210328,-0.316224,1.081896,-29.469999,60.200001,18.969999,22.21
5581542,0.198616,-0.357216,1.141920,-27.440001,58.240002,18.690001,22.20
5581553,0.150304,-0.348920,1.199016,-21.840000,54.880001,18.200001,22.18
5581564,0.141032,-0.372832,1.233664,-18.340000,49.770000,16.870001,22.18
5581575,0.144448,-0.381128,1.262456,-14.140000,45.639999,15.960000,22.17
5581586,0.115168,-0.334768,1.318088,-13.020000,40.459999,15.050000,22.17
5581597,0.152744,-0.398696,1.360544,-14.770000,32.619999,15.190000,22.17
5581608,0.159576,-0.477264,1.358104,-9.450000,31.010000,10.710000,22.17
5581619,0.095648,-0.496296,1.352736,0.490000,25.900000,6.650000,22.16
5581630,0.085400,-0.495808,1.345904,7.000000,17.570000,4.550000,22.18
5581640,0.052704,-0.470920,1.369328,8.820000,9.380000,1.260000,22.18
5581651,0.067832,-0.484584,1.416176,9.240000,1.610000,-1.400000,22.21
5581662,0.095648,-0.474336,1.472296,10.220000,-7.490000,-4.200000,22.21
5581673,0.110776,-0.479704,1.523536,11.830000,-17.080000,-9.590000,22.15
5581684,0.124928,-0.482632,1.541592,12.110000,-24.850000,-13.510000,22.13
5581695,0.141520,-0.545096,1.495232,26.180000,-31.709999,-20.650000,22.13
5581706,0.103456,-0.528016,1.442040,44.310001,-40.110001,-25.760000,22.19
5581717,0.090768,-0.409920,1.392752,51.520000,-49.700001,-28.280001,22.19
5581729,0.111752,-0.311832,1.386408,49.840000,-56.840000,-28.490000,22.15
5581740,0.129808,-0.258640,1.411784,40.040001,-66.500000,-27.790001,22.18
5581751,0.166408,-0.247904,1.434232,30.799999,-75.459999,-27.160000,22.18
5581762,0.173728,-0.261080,1.427400,27.650000,-83.370003,-29.190001,22.18
5581773,0.183488,-0.298168,1.417640,26.600000,-89.669998,-29.540001,22.18
5581783,0.174216,-0.337696,1.385432,33.810001,-97.089996,-32.270000,22.21
5581794,0.157624,-0.298168,1.326872,40.950001,-104.160004,-34.930000,22.21
5581806,0.149328,-0.290360,1.215608,49.490002,-110.040001,-38.009998,22.18
5581817,0.168360,-0.236192,1.150216,59.500000,-116.199997,-37.869999,22.16
5581828,0.205936,-0.119072,1.142408,54.740002,-122.709999,-31.780001,22.16
5581839,0.247416,-0.069784,1.143384,47.669998,-126.629997,-28.350000,22.20
5581850,0.250832,-0.066368,1.108248,44.240002,-130.479996,-27.440001,22.20
5581861,0.277184,-0.075152,1.055056,42.070000,-134.750000,-24.990000,22.15
5581872,0.301584,-0.100040,1.002352,42.840000,-136.990005,-23.030001,22.16
5581883,0.305976,-0.104920,0.909144,45.500000,-137.759995,-23.379999,22.16
5581894,0.326960,-0.113704,0.813008,47.529999,-136.149994,-25.200001,22.16
5581905,0.328912,-0.122976,0.715896,54.810001,-135.589996,-23.520000,22.16
5581917,0.386496,-0.083448,0.654408,59.220001,-130.830002,-20.299999,22.19
5581928,0.420168,-0.014152,0.564128,60.340000,-125.580002,-16.100000,22.18
5581939,0.437248,0.044896,0.501664,56.980000,-120.889999,-13.300000,22.18
5581950,0.486048,0.092720,0.445056,46.340000,-115.290001,-8.190000,22.15
5581961,0.514840,0.098576,0.390888,36.119999,-107.029999,-4.970000,22.15
5581972,0.537776,0.082960,0.320128,28.420000,-94.570000,-3.010000,22.16
5581983,0.551440,0.037088,0.281088,20.790001,-84.139999,-0.840000,22.16
5581994,0.557784,0.063928,0.237656,9.100000,-70.769997,2.310000,22.16
5582004,0.532896,0.127368,0.177632,-0.700000,-61.250000,4.970000,22.15
5582015,0.570472,0.122000,0.156160,-17.360001,-52.009998,8.050000,22.15
5582027,0.590968,0.026352,0.164456,-27.370001,-39.270000,8.820000,22.20
5582037,0.587064,-0.035624,0.176656,-29.610001,-27.020000,8.960000,22.20
5582049,0.590968,-0.085888,0.178120,-27.719999,-15.120000,7.140000,22.15
5582059,0.584624,-0.120536,0.188856,-21.980000,-6.090000,6.090000,22.16
5582071,0.581208,-0.145424,0.201056,-13.230000,5.390000,4.760000,22.16
5582081,0.572912,-0.148840,0.227408,-6.790000,15.610000,3.150000,22.16
5582092,0.566568,-0.150792,0.251320,2.590000,23.870001,0.210000,22.16
5582103,0.556320,-0.113216,0.278648,8.470000,33.110001,-0.840000,22.19
5582114,0.544608,-0.089304,0.312320,11.340000,41.020000,-1.960000,22.13
5582125,0.538264,-0.065880,0.344528,13.860000,46.270000,-2.380000,22.13
5582136,0.547536,-0.034648,0.386984,11.690000,52.990002,-1.750000,22.20
5582147,0.553880,-0.007808,0.428952,6.230000,58.450001,-0.980000,22.20
5582158,0.546560,0.003904,0.476776,3.010000,63.279999,-0.630000,22.18
5582169,0.540216,0.019032,0.530456,-3.640000,66.500000,0.560000,22.17
5582180,0.536800,0.006832,0.556320,-9.870000,70.209999,1.680000,22.17
5582191,0.541192,-0.010248,0.567544,-13.510000,73.989998,3.010000,22.18
5582202,0.533384,-0.006832,0.602680,-19.740000,76.230003,4.970000,22.18
5582213,0.529480,-0.022936,0.676368,-26.180000,78.889999,6.790000,22.16
5582224,0.504592,-0.006344,0.722728,-30.379999,81.480003,8.260000,22.16
5582236,0.492880,-0.043920,0.757864,-33.740002,81.550003,13.440000,22.16
5582247,0.455792,-0.021960,0.796416,-38.709999,82.250000,12.250000,22.14
5582258,0.463112,-0.028304,0.774456,-42.770000,82.949997,14.070000,22.14
5582269,0.466040,-0.058072,0.769576,-43.889999,84.559998,14.630000,22.17
5582280,0.474824,-0.093696,0.806176,-45.990002,86.519997,17.570000,22.17
5582291,0.471408,-0.102480,0.901336,-48.790001,87.989998,20.930000,22.14
5582302,0.428464,-0.093696,0.938424,-48.439999,88.410004,21.490000,22.19
5582313,0.386984,-0.089792,0.945256,-50.330002,87.639999,22.889999,22.19
5582327,0.366976,-0.195200,0.915976,-43.049999,86.169998,22.190001,22.20
5582338,0.346480,-0.198128,0.875960,-18.620001,86.730003,21.980000,22.19
5582349,0.357216,-0.170800,0.915976,-37.029999,86.519997,27.160000,22.19
5582360,0.360632,-0.182024,1.008696,-39.060001,86.940002,29.540001,22.19
5582371,0.322080,-0.230824,1.073112,-33.459999,86.660004,28.980000,22.19
5582382,0.283040,-0.237168,1.098976,-27.790001,84.000000,27.790001,22.18
5582393,0.238144,-0.250344,1.089704,-19.459999,80.919998,25.410000,22.19
5582404,0.219112,-0.240096,1.067744,-13.300000,78.260002,25.340000,22.19
5582415,0.234728,-0.230336,1.087264,-14.140000,74.900002,28.629999,22.17
5582426,0.231312,-0.276696,1.152168,-12.530000,73.639999,28.420000,22.17
5582437,0.192760,-0.266448,1.207800,-13.860000,69.510002,28.629999,22.20
5582449,0.178120,-0.320128,1.272704,-12.670000,64.680000,26.389999,22.16
5582460,0.152744,-0.302072,1.325896,-12.040000,56.700001,25.410000,22.16
5582471,0.174216,-0.336232,1.355664,-11.970000,50.470001,24.290001,22.15
5582481,0.154208,-0.332816,1.374208,-12.040000,43.750000,22.400000,22.15
5582492,0.185928,-0.404064,1.386896,-16.240000,36.750000,21.139999,22.14
5582503,0.164944,-0.515328,1.381040,-9.030000,33.459999,14.210000,22.14
5582514,0.125416,-0.512400,1.368352,4.410000,26.670000,11.200000,22.11
5582526,0.117120,-0.482632,1.378600,15.330000,18.969999,6.580000,22.15
5582536,0.108336,-0.426024,1.426424,15.890000,8.680000,4.900000,22.15
5582547,0.158112,-0.396744,1.483520,11.550000,1.960000,2.520000,22.19
5582558,0.159088,-0.379176,1.524512,5.740000,-5.670000,-0.700000,22.19
5582569,0.170312,-0.453840,1.545496,3.080000,-15.680000,-4.550000,22.16
5582580,0.161040,-0.512400,1.482544,14.000000,-20.299999,-11.900000,22.16
5582591,0.124440,-0.515328,1.405440,33.880001,-28.700001,-17.150000,22.16
5582602,0.115656,-0.367464,1.400072,40.529999,-38.849998,-20.160000,22.18
5582613,0.162016,-0.284992,1.431792,34.369999,-47.599998,-19.809999,22.18
5582625,0.171776,-0.263032,1.443992,25.340000,-54.950001,-21.280001,22.15
5582636,0.197640,-0.302072,1.439600,22.750000,-62.580002,-24.219999,22.15
5582647,0.200080,-0.274744,1.414224,23.030001,-69.089996,-24.290001,22.15
5582659,0.183976,-0.234240,1.254160,20.580000,-77.559998,-24.080000,22.14
5582669,0.190808,-0.262056,1.322480,23.030001,-82.949997,-26.389999,22.14
5582680,0.177632,-0.215696,1.252208,28.209999,-87.639999,-26.879999,22.16
5582692,0.194224,-0.139568,1.236104,23.379999,-95.480003,-26.110001,22.15
5582703,0.244976,-0.113216,1.254160,12.250000,-102.199997,-23.240000,22.15
5582714,0.263032,-0.156160,1.245376,8.960000,-107.379997,-24.360001,22.18
5582725,0.270840,-0.158112,1.185352,9.590000,-111.160004,-24.080000,22.18
5582736,0.282552,-0.138104,1.115568,8.680000,-116.970001,-22.820000,22.13
5582747,0.303536,-0.137616,1.045296,7.350000,-118.930000,-21.139999,22.17
5582758,0.301584,-0.159576,0.962824,10.080000,-119.699997,-22.469999,22.17
5582769,0.302072,-0.148352,0.885232,15.120000,-120.680000,-22.820000,22.15
5582781,0.305000,-0.141032,0.840824,23.799999,-121.800003,-23.379999,22.15
5582792,0.350384,-0.106872,0.799832,30.100000,-122.430000,-21.770000,22.14
5582803,0.394792,-0.065392,0.732976,31.290001,-118.300003,-21.490000,22.14
5582814,0.400648,-0.098576,0.658312,36.259998,-114.730003,-20.230000,22.20
5582825,0.443592,-0.086864,0.614880,40.250000,-111.930000,-18.690001,22.11
5582836,0.448960,-0.043920,0.579744,42.209999,-107.449997,-16.450001,22.11
5582847,0.449448,-0.012200,0.540216,36.959999,-102.199997,-13.720000,22.16
5582858,0.445056,0.016592,0.470920,37.310001,-96.739998,-10.500000,22.16
5582869,0.455304,0.087352,0.389424,26.250000,-90.720001,-7.210000,22.18
5582880,0.500200,0.094184,0.369416,13.440000,-84.559998,-3.850000,22.10
5582891,0.535336,0.027816,0.351360,0.980000,-74.410004,-1.540000,22.10
5582902,0.540216,-0.003416,0.325984,-3.990000,-65.940002,0.350000,22.11
5582913,0.547048,-0.050752,0.312808,-5.600000,-57.470001,0.980000,22.11
5582924,0.553880,-0.085888,0.286944,-3.290000,-48.230000,1.330000,22.17
5582935,0.569984,-0.128344,0.252784,2.800000,-39.480000,0.630000,22.14
5582946,0.593896,-0.143472,0.231800,10.990000,-27.230000,0.070000,22.14
5582957,0.598288,-0.134688,0.226920,17.360001,-16.030001,-1.400000,22.18
5582967,0.603656,-0.124928,0.268400,19.670000,-7.420000,-1.400000,22.18
5582978,0.586088,-0.090768,0.296216,21.840000,3.360000,-2.730000,22.14
5582989,0.578280,-0.080520,0.318664,21.980000,11.620000,-4.200000,22.14
5583000,0.579256,-0.077104,0.329400,21.280001,19.459999,-4.550000,22.12
5583011,0.589504,-0.075640,0.336232,20.719999,26.180000,-4.900000,22.11
5583022,0.584136,-0.068320,0.346968,19.670000,34.090000,-5.600000,22.11
5583033,0.578768,-0.054656,0.385032,17.639999,41.020000,-4.970000,22.16
5583045,0.579744,-0.036600,0.436760,14.140000,47.810001,-4.830000,22.16
5583056,0.576816,-0.027328,0.504592,9.030000,51.869999,-4.060000,22.16
5583067,0.564128,-0.011224,0.558272,3.640000,56.000000,-3.850000,22.16
5583078,0.549000,-0.013664,0.583648,0.420000,58.169998,-3.080000,22.16
5583089,0.551928,-0.034160,0.590968,-1.750000,60.689999,-2.870000,22.15
5583100,0.550464,-0.018056,0.576328,-3.290000,65.029999,-1.540000,22.15
5583111,0.544608,-0.002928,0.567056,-7.000000,69.790001,-1.050000,22.12
5583122,0.539728,0.011224,0.580232,-12.110000,74.900002,0.770000,22.14
5583133,0.537776,0.024888,0.617808,-16.870001,78.540001,3.500000,22.14
5583144,0.530456,0.035136,0.665144,-24.010000,80.220001,5.880000,22.15
5583155,0.543632,0.013664,0.678320,-26.040001,85.470001,7.630000,22.15
5583166,0.520208,0.055144,0.721264,-34.160000,87.779999,12.740000,22.18
5583176,0.486048,0.026352,0.767136,-43.049999,89.949997,14.070000,22.14
5583187,0.444568,0.028304,0.798368,-47.810001,91.209999,18.760000,22.14
5583198,0.441640,0.002440,0.818864,-53.410000,92.190002,20.650000,22.13
5583209,0.413336,-0.077592,0.812032,-51.310001,94.290001,21.420000,22.13
5583220,0.405528,-0.109800,0.817400,-50.400002,96.040001,23.870001,22.17
5583231,0.392840,-0.152744,0.833016,-43.330002,97.930000,23.870001,22.17
5583242,0.362584,-0.129320,0.915976,-44.169998,96.809998,29.540001,22.14
5583253,0.339648,-0.126392,0.984784,-43.959999,94.989998,29.959999,22.13
5583264,0.300120,-0.145912,1.013576,-42.980000,93.309998,29.680000,22.13
5583275,0.277672,-0.167872,0.996496,-38.709999,90.580002,29.889999,22.15
5583286,0.286456,-0.198128,0.975024,-35.490002,88.760002,31.010000,22.15
5583297,0.299632,-0.235216,0.986736,-33.180000,90.580002,33.529999,22.16
5583307,0.259128,-0.248880,1.046272,-30.309999,90.089996,34.299999,22.15
5583319,0.218136,-0.270840,1.115080,-28.209999,87.220001,34.720001,22.15
5583329,0.172264,-0.275232,1.202920,-24.219999,81.410004,33.180000,22.17
5583340,0.167872,-0.286456,1.262456,-20.440001,75.599998,32.060001,22.17
5583351,0.174216,-0.346968,1.275144,-15.610000,69.860001,29.610001,22.17
5583363,0.179584,-0.393816,1.256600,-9.800000,65.660004,26.180000,22.17
5583374,0.187392,-0.398208,1.280512,-5.950000,61.599998,25.200001,22.15
5583385,0.147864,-0.368440,1.347368,-3.990000,56.349998,22.750000,22.16
5583396,0.139568,-0.360144,1.403976,-7.420000,48.650002,22.889999,22.16
5583407,0.114192,-0.387472,1.404952,-7.070000,42.419998,19.879999,22.16
5583418,0.103944,-0.451888,1.362496,-3.220000,35.770000,15.680000,22.16
5583429,0.091256,-0.463112,1.376648,6.650000,31.639999,10.710000,22.12
5583440,0.083936,-0.395768,1.437160,1.260000,19.879999,10.920000,22.16
5583451,0.106872,-0.335744,1.554280,-9.660000,9.030000,11.760000,22.16
5583462,0.096136,-0.312808,1.642608,-23.100000,0.630000,7.350000,22.16
5583473,0.096136,-0.415776,1.675792,-29.260000,-11.620000,3.780000,22.16
5583485,0.100040,-0.566568,1.577216,-15.890000,-20.020000,-4.830000,22.18
5583499,0.064904,-0.562176,1.485472,16.379999,-29.820000,-15.050000,22.12
5583511,0.063440,-0.401136,1.499624,25.270000,-42.770000,-16.450001,22.12
5583523,0.131272,-0.413824,1.500600,23.240000,-50.049999,-19.250000,22.14
5583534,0.111752,-0.421632,1.492304,30.379999,-58.869999,-22.750000,22.11
5583545,0.129808,-0.343552,1.483032,30.309999,-69.370003,-23.240000,22.11
5583556,0.141520,-0.268400,1.477176,27.580000,-75.669998,-25.270000,22.14
5583567,0.136640,-0.256200,1.471320,24.639999,-84.070000,-24.430000,22.14
5583579,0.166408,-0.271328,1.436184,21.770000,-93.379997,-24.780001,22.16
5583591,0.168360,-0.273280,1.364936,26.600000,-100.379997,-26.740000,22.11
5583602,0.174704,-0.224968,1.264408,29.049999,-104.930000,-26.950001,22.11
5583613,0.162504,-0.166896,1.190720,27.719999,-109.900002,-26.389999,22.18
5583624,0.200080,-0.120536,1.162416,21.420000,-115.989998,-24.360001,22.18
5583635,0.237656,-0.156648,1.145336,13.510000,-120.120003,-22.889999,22.12
5583646,0.254248,-0.174704,1.113616,13.720000,-124.459999,-23.799999,22.16
5583657,0.277184,-0.203984,1.054568,17.010000,-127.750000,-23.450001,22.16
5583668,0.280600,-0.214232,0.954528,23.730000,-129.220001,-25.549999,22.17
5583679,0.286456,-0.206424,0.872544,28.070000,-130.130005,-25.129999,22.17
5583690,0.292312,-0.225456,0.795928,37.590000,-128.520004,-27.719999,22.15
5583701,0.280600,-0.159576,0.691496,45.080002,-125.860001,-28.209999,22.14
5583712,0.320128,-0.091256,0.667584,45.080002,-125.370003,-25.549999,22.14
5583723,0.363560,-0.042456,0.634888,42.840000,-122.080002,-25.129999,22.15
5583734,0.373320,-0.038552,0.586576,39.340000,-120.330002,-21.420000,22.15
5583746,0.431392,0.020496,0.526064,34.369999,-114.449997,-18.410000,22.15
5583757,0.435784,-0.003904,0.451400,28.000000,-109.059998,-17.290001,22.11
5583768,0.456280,-0.048312,0.352336,25.830000,-101.919998,-16.170000,22.11
5583779,0.478728,-0.050264,0.289384,24.010000,-92.540001,-14.770000,22.17
5583790,0.501176,-0.049776,0.280600,21.000000,-84.139999,-12.810000,22.17
5583801,0.504104,-0.026840,0.266448,19.670000,-75.459999,-11.130000,22.12
5583812,0.519232,-0.011712,0.242048,16.030001,-67.480003,-9.310000,22.14
5583823,0.530944,0.006344,0.224480,9.660000,-58.240002,-7.840000,22.14
5583834,0.562664,-0.031720,0.234728,5.320000,-48.090000,-6.860000,22.13
5583845,0.566568,-0.059048,0.258640,2.590000,-39.270000,-6.720000,22.13
5583855,0.569496,-0.069784,0.287920,2.940000,-30.309999,-6.370000,22.15
5583866,0.590968,-0.065880,0.304024,3.360000,-20.580000,-7.140000,22.15
5583877,0.595848,-0.059536,0.301096,3.640000,-12.670000,-7.210000,22.11
5583888,0.606096,-0.062952,0.285968,6.090000,-2.660000,-8.120000,22.14
5583899,0.606096,-0.062952,0.271816,8.330000,7.070000,-8.820000,22.14
5583910,0.609024,-0.053192,0.271816,9.030000,16.590000,-8.120000,22.14
5583921,0.611464,-0.036112,0.289384,9.940000,23.450001,-7.770000,22.14
5583932,0.623664,-0.031720,0.305488,10.430000,33.459999,-7.280000,22.15
5583943,0.625128,-0.024888,0.347456,10.570000,42.000000,-6.370000,22.16
5583954,0.619760,0.002928,0.395280,8.400000,47.810001,-3.990000,22.16
5583965,0.613904,0.016592,0.436760,5.390000,54.599998,-2.730000,22.16
5583976,0.603168,0.024888,0.470432,0.980000,59.919998,-0.420000,22.16
5583987,0.601216,0.017080,0.501176,-1.540000,65.449997,0.910000,22.16
5583998,0.593896,0.025864,0.522648,-4.550000,70.629997,2.590000,22.09
5584009,0.590480,0.032208,0.540704,-8.120000,76.510002,4.900000,22.09
5584020,0.573400,0.015128,0.546560,-9.730000,82.459999,7.000000,22.13
5584031,0.549488,0.022936,0.560224,-13.720000,87.570000,9.660000,22.13
5584042,0.516792,0.034160,0.625128,-19.950001,91.349998,12.880000,22.15
5584053,0.511424,0.048800,0.715408,-30.940001,94.430000,19.600000,22.16
5584064,0.469944,0.027816,0.790072,-38.849998,94.290001,18.549999,22.16
5584075,0.457256,0.011712,0.822280,-45.990002,94.570000,22.610001,22.14
5584086,0.450912,-0.017080,0.816424,-51.450001,93.940002,23.030001,22.14
5584097,0.445544,-0.102480,0.772504,-50.820000,96.180000,23.590000,22.18
5584108,0.422608,-0.121512,0.739808,-50.119999,97.440002,25.690001,22.18
5584119,0.418704,-0.097112,0.772992,-54.250000,98.629997,29.889999,22.18
5584130,0.408456,-0.096136,0.876936,-62.299999,100.519997,36.119999,22.14
5584141,0.378688,-0.119072,0.958432,-65.730003,100.309998,36.959999,22.14
5584152,0.329400,-0.147864,0.963312,-69.790001,97.650002,36.470001,22.14
5584162,0.312808,-0.244976,0.939400,-62.509998,97.720001,34.930000,22.14
5584173,0.291824,-0.281088,0.926712,-54.599998,96.250000,35.070000,22.14
5584184,0.284992,-0.336720,0.994056,-45.500000,96.320000,36.540001,22.10
5584196,0.249368,-0.338184,1.049688,-36.820000,94.430000,36.049999,22.10
5584206,0.209840,-0.358192,1.097024,-29.120001,91.489998,32.549999,22.18
5584217,0.137616,-0.329400,1.139968,-23.590000,86.589996,30.730000,22.18
5584228,0.143960,-0.344040,1.160464,-21.139999,79.940002,28.490000,22.12
5584239,0.159576,-0.351360,1.140456,-19.040001,76.019997,25.760000,22.12
5584250,0.174216,-0.369904,1.138504,-14.770000,73.290001,22.820000,22.18
5584262,0.192272,-0.380640,1.180472,-12.180000,70.000000,22.120001,22.11
5584273,0.204960,-0.395280,1.227808,-10.780000,67.830002,22.959999,22.11
5584284,0.151280,-0.358192,1.251232,-7.140000,63.560001,21.070000,22.12
5584294,0.148840,-0.347944,1.271240,-5.390000,59.639999,20.719999,22.12
5584306,0.137128,-0.337208,1.292224,-7.280000,57.049999,20.160000,22.15
5584316,0.099064,-0.380152,1.343952,-11.830000,50.540001,21.700001,22.09
5584328,0.096624,-0.492392,1.354688,-6.020000,47.320000,15.120000,22.09
5584339,-0.008784,-0.423096,1.440576,-0.350000,39.759998,11.340000,22.16
5584350,0.064416,-0.481656,1.530368,-4.830000,27.160000,10.570000,22.16
5584360,0.044408,-0.462624,1.578680,-8.330000,18.760000,5.880000,22.12
5584371,0.029768,-0.492392,1.603080,-14.070000,8.190000,2.030000,22.14
5584382,0.042944,-0.538264,1.638704,-10.780000,-3.780000,-3.570000,22.14
5584393,0.052216,-0.549976,1.615280,-7.700000,-15.890000,-8.540000,22.12
5584404,0.064416,-0.613416,1.537688,1.470000,-22.820000,-14.630000,22.12
5584416,0.055632,-0.604632,1.431792,22.750000,-30.660000,-21.350000,22.12
5584427,0.049776,-0.531920,1.353224,41.860001,-37.380001,-27.020000,22.12
5584437,0.041968,-0.343064,1.384944,45.220001,-48.930000,-26.250000,22.07
5584448,0.129808,-0.294264,1.434232,36.330002,-54.599998,-27.510000,22.11
5584459,0.125904,-0.292800,1.467904,31.010000,-61.320000,-28.910000,22.11
5584471,0.136640,-0.312320,1.515240,31.430000,-72.169998,-30.660000,22.14
5584482,0.151280,-0.259616,1.557696,30.799999,-84.070000,-30.660000,22.14
5584493,0.134200,-0.221552,1.552816,26.110001,-96.250000,-31.639999,22.08
5584504,0.138592,-0.274256,1.422520,25.549999,-102.199997,-31.430000,22.14
5584515,0.091256,-0.280600,1.273192,33.529999,-110.110001,-37.029999,22.14
5584526,0.105896,-0.179096,1.183888,27.510000,-120.260002,-33.180000,22.12
5584537,0.170312,-0.213256,1.142896,21.770000,-122.919998,-33.740002,22.12
5584548,0.193248,-0.277672,1.130696,25.690001,-126.279999,-34.230000,22.14
5584559,0.233264,-0.303048,1.123864,35.560001,-131.460007,-35.490002,22.11
5584570,0.373320,-0.260592,1.097024,44.660000,-135.589996,-35.349998,22.11
5584581,0.268400,-0.212768,1.048224,53.830002,-138.809998,-34.860001,22.13
5584592,0.272792,-0.145912,0.965264,60.410000,-139.509995,-34.020000,22.13
5584603,0.274744,-0.113216,0.813496,64.540001,-138.110001,-32.340000,22.11
5584615,0.282552,-0.040504,0.685152,67.059998,-135.940002,-29.469999,22.15
5584626,0.321592,0.014152,0.602680,57.820000,-132.229996,-28.280001,22.15
5584637,0.323056,0.025864,0.546072,48.509998,-126.769997,-24.360001,22.12
5584648,0.391864,-0.020496,0.486536,48.299999,-119.489998,-19.809999,22.12
5584659,0.426024,-0.027328,0.410408,51.380001,-112.209999,-17.080000,22.15
5584670,0.430904,-0.022448,0.322080,55.930000,-105.769997,-15.680000,22.11
5584681,0.499712,0.000488,0.275232,56.000000,-92.820000,-11.270000,22.11
5584692,0.501664,0.008296,0.223504,52.990002,-79.800003,-9.030000,22.12
5584703,0.526064,-0.001464,0.182512,50.049999,-67.129997,-5.950000,22.12
5584714,0.512888,0.006344,0.175680,46.130001,-54.320000,-4.550000,22.16
5584725,0.515816,0.020496,0.181536,40.599998,-43.959999,-1.610000,22.16
5584736,0.530944,0.016104,0.192272,35.139999,-32.830002,0.210000,22.12
5584747,0.553392,0.009760,0.204960,29.540001,-23.799999,0.910000,22.12
5584758,0.567056,0.012200,0.207888,23.730000,-11.900000,0.630000,22.12
5584769,0.577792,0.024400,0.247416,17.500000,0.070000,1.400000,22.10
5584780,0.574376,0.026840,0.276208,10.430000,9.310000,0.980000,22.10
5584790,0.557296,0.030256,0.307440,3.430000,19.040001,1.190000,22.10
5584801,0.550952,0.030256,0.342576,-1.610000,27.860001,1.260000,22.10
5584812,0.544120,0.013176,0.361120,-4.970000,34.020000,0.560000,22.10
5584823,0.552904,0.007808,0.375760,-8.750000,41.580002,0.770000,22.11
5584834,0.556808,0.011712,0.413336,-12.250000,48.509998,1.680000,22.11
5584845,0.555832,0.022936,0.461648,-17.920000,53.900002,3.010000,22.09
5584856,0.549000,0.025376,0.482144,-23.450001,60.549999,3.150000,22.11
5584867,0.539240,0.022936,0.496784,-29.049999,65.449997,4.970000,22.11
5584878,0.536800,0.004880,0.512400,-33.320000,69.510002,7.000000,22.06
5584889,0.538264,-0.019520,0.530944,-35.560001,74.690002,8.820000,22.06
5584900,0.529968,-0.031720,0.571448,-37.310001,80.220001,10.290000,22.18
5584911,0.510936,0.004392,0.651968,-43.470001,84.910004,13.510000,22.18
5584922,0.470920,0.003904,0.730536,-48.790001,85.889999,15.960000,22.14
5584933,0.448472,-0.005856,0.793488,-54.810001,85.820000,17.780001,22.12
5584944,0.434808,-0.055632,0.802272,-55.580002,86.589996,17.920000,22.12
5584955,0.422120,-0.098576,0.791048,-53.549999,87.290001,18.270000,22.09
5584966,0.422608,-0.108336,0.744200,-52.220001,87.919998,26.110001,22.09
5584977,0.421632,-0.139568,0.847656,-57.680000,88.900002,22.469999,22.14
5584988,0.426512,-0.123952,0.941840,-61.880001,91.209999,27.160000,22.10
5584999,0.380640,-0.149816,0.976000,-63.630001,89.879997,28.629999,22.10
5585010,0.355752,-0.177144,0.986248,-64.050003,88.059998,28.559999,22.14
5585021,0.323544,-0.231312,0.976488,-59.779999,85.120003,26.530001,22.14
5585032,0.335744,-0.291824,0.967216,-54.180000,83.790001,26.879999,22.14
5585043,0.356728,-0.285480,0.969656,-46.200001,85.680000,26.809999,22.11
5585054,0.325984,-0.257176,1.007232,-42.209999,85.330002,27.860001,22.11
5585065,0.290848,-0.248880,1.060424,-40.810001,85.190002,28.070000,22.09
5585076,0.225944,-0.227896,1.093120,-41.299999,80.989998,27.020000,22.09
5585086,0.208376,-0.313784,1.110688,-37.660000,77.559998,24.920000,22.15
5585097,0.210816,-0.339648,1.092144,-30.100000,74.059998,24.010000,22.15
5585108,0.218624,-0.329400,1.047736,-21.209999,73.290001,22.750000,22.12
5585119,0.197152,-0.303536,1.100440,-19.250000,71.260002,25.129999,22.11
5585130,0.175680,-0.324520,1.171200,-16.170000,68.879997,23.799999,22.11
5585141,0.149328,-0.329888,1.201944,-12.530000,66.500000,21.980000,22.11
5585152,0.107848,-0.346968,1.198040,-5.460000,61.669998,19.530001,22.11
5585164,0.111264,-0.327936,1.191696,-1.120000,55.930000,17.780001,22.09
5585174,0.085888,-0.254248,1.252696,-4.690000,48.790001,18.900000,22.09
5585185,0.129320,-0.281576,1.312720,-15.960000,43.540001,22.400000,22.09
5585196,0.136640,-0.398696,1.327360,-15.400000,41.299999,18.200001,22.13
5585207,0.084424,-0.367464,1.330288,-15.750000,33.250000,17.080000,22.13
5585218,0.112240,-0.454328,1.323456,-13.300000,30.379999,13.230000,22.12
5585229,0.059048,-0.492392,1.338096,-4.900000,25.549999,10.500000,22.09
5585240,0.043432,-0.473360,1.383480,1.540000,16.379999,9.380000,22.09
5585251,0.046360,-0.403576,1.456680,2.240000,9.030000,6.860000,22.08
5585262,0.038552,-0.424072,1.518656,-1.750000,-2.100000,5.320000,22.08
5585274,0.075640,-0.532408,1.521584,8.120000,-8.680000,-2.170000,22.13
5585285,0.040992,-0.548512,1.484008,20.510000,-17.500000,-7.980000,22.13
5585296,0.016104,-0.448960,1.485960,31.430000,-26.250000,-12.530000,22.14
5585307,0.036600,-0.372344,1.537688,26.040001,-39.200001,-15.260000,22.07
5585318,0.062952,-0.393816,1.561600,21.559999,-50.400002,-19.110001,22.07
5585329,0.086864,-0.442616,1.543056,27.719999,-60.689999,-24.500000,22.11
5585342,0.103456,-0.393328,1.496208,30.170000,-71.610001,-26.530001,22.09
5585353,0.102480,-0.327936,1.454728,27.160000,-79.379997,-27.299999,22.09
5585364,0.089792,-0.281088,1.440576,18.549999,-90.230003,-27.440001,22.08
5585375,0.108336,-0.325008,1.447408,11.060000,-97.930000,-29.190001,22.08
5585386,0.109312,-0.345016,1.362496,9.940000,-105.559998,-32.200001,22.13
5585397,0.116144,-0.356728,1.275632,15.050000,-112.839996,-36.680000,22.13
5585408,0.132736,-0.295728,1.201944,14.420000,-120.610001,-36.540001,22.11
5585419,0.173728,-0.284016,1.182424,11.900000,-124.949997,-38.290001,22.05
5585430,0.192272,-0.297192,1.186816,13.230000,-130.970001,-39.130001,22.05
5585441,0.215696,-0.274256,1.172176,18.410000,-136.850006,-39.130001,22.13
5585452,0.240584,-0.214232,1.089216,24.639999,-140.419998,-40.529999,22.13
5585463,0.261080,-0.183000,0.973560,27.440001,-142.169998,-40.320000,22.11
5585474,0.294752,-0.163480,0.880352,31.010000,-142.520004,-40.459999,22.10
5585485,0.309392,-0.100528,0.773480,32.830002,-140.490005,-37.240002,22.10
5585496,0.323544,-0.081496,0.655384,30.940001,-138.110001,-33.669998,22.13
5585507,0.346968,-0.103944,0.558272,37.099998,-132.089996,-32.830002,22.13
5585518,0.425536,-0.044408,0.504104,39.549999,-119.279999,-32.689999,22.10
5585529,0.406992,-0.034648,0.451400,40.740002,-119.629997,-26.389999,22.14
5585540,0.471408,0.000000,0.395280,38.709999,-108.220001,-21.980000,22.14
5585551,0.477752,0.041480,0.340136,37.169998,-97.230003,-18.340000,22.12
5585562,0.480192,0.107848,0.267424,31.290001,-88.129997,-13.790000,22.12
5585573,0.508984,0.117120,0.223504,19.600000,-79.309998,-9.170000,22.11
5585583,0.520696,0.110776,0.204472,9.310000,-65.800003,-4.620000,22.11
5585594,0.518744,0.087840,0.182024,-0.210000,-54.110001,0.280000,22.14
5585605,0.531920,0.037088,0.161040,-7.420000,-45.360001,4.480000,22.08
5585616,0.548512,-0.048800,0.140056,-6.300000,-32.970001,5.040000,22.08
5585627,0.563152,-0.123952,0.124928,-0.070000,-19.110001,5.250000,22.09
5585638,0.583648,-0.152256,0.137616,9.030000,-8.050000,5.180000,22.09
5585649,0.582672,-0.155184,0.164456,18.969999,7.280000,4.550000,22.08
5585660,0.561688,-0.148352,0.192272,24.990000,19.879999,3.010000,22.10
5585671,0.547048,-0.127368,0.227896,30.870001,28.910000,2.380000,22.10
5585682,0.535824,-0.114680,0.257176,34.090000,38.430000,1.540000,22.13
5585693,0.530456,-0.096136,0.280600,33.110001,47.110001,0.280000,22.13
5585710,0.530944,-0.063440,0.356240,28.770000,58.240002,-0.070000,22.16
5585721,0.522160,-0.026352,0.400648,20.790001,65.589996,1.260000,22.09
5585733,0.507032,-0.011712,0.444568,12.110000,71.680000,1.050000,22.10
5585745,0.506056,-0.040992,0.484096,3.990000,76.860001,1.890000,22.10
5585755,0.500200,-0.054656,0.527040,0.350000,81.269997,3.430000,22.11
5585766,0.499712,-0.041480,0.582672,-7.000000,84.419998,5.460000,22.11
5585777,0.481168,-0.017568,0.647088,-18.270000,86.870003,7.210000,22.10
5585788,0.444080,0.015128,0.715896,-27.020000,88.620003,9.310000,22.10
5585799,0.422120,0.018056,0.756888,-39.689999,87.849998,11.690000,22.09
5585810,0.421632,-0.056120,0.756888,-44.240002,89.599998,11.970000,22.09
5585821,0.417240,-0.100528,0.731024,-44.380001,90.860001,13.510000,22.09
5585832,0.427000,-0.139080,0.740784,-41.860001,92.540001,15.960000,22.07
5585842,0.431392,-0.111264,0.801296,-44.520000,95.830002,18.760000,22.07
5585853,0.414312,-0.107360,0.898408,-47.529999,97.300003,22.400000,22.11
5585864,0.361120,-0.111264,0.954040,-48.160000,97.300003,23.450001,22.07
5585875,0.309880,-0.107360,0.970632,-48.020000,95.269997,24.850000,22.07
5585886,0.311344,-0.159576,0.972584,-46.410000,93.169998,24.780001,22.15
5585897,0.304024,-0.183000,0.959896,-41.299999,91.559998,23.799999,22.15
5585908,0.310856,-0.193736,1.001864,-42.560001,90.300003,26.950001,22.13
5585919,0.320616,-0.177632,1.080432,-49.209999,90.300003,32.200001,22.13
5585931,0.264008,-0.195200,1.097512,-54.180000,88.480003,32.830002,22.13
5585944,0.190320,-0.265472,1.077016,-53.759998,85.120003,31.920000,22.09
5585955,0.171776,-0.352824,1.062376,-43.189999,82.040001,29.049999,22.09
5585966,0.171776,-0.350384,1.064816,-34.160000,78.750000,29.469999,22.14
5585977,0.191784,-0.355264,1.144360,-32.340000,76.370003,31.360001,22.11
5585988,0.158112,-0.348920,1.246840,-30.450001,73.639999,30.450001,22.11
5585999,0.115656,-0.400160,1.340536,-27.719999,66.639999,27.650000,22.10
5586010,0.085888,-0.425048,1.370792,-22.889999,58.590000,24.500000,22.10
5586021,0.102968,-0.486536,1.356152,-17.850000,52.220001,20.020000,22.12
5586032,0.103456,-0.511912,1.346880,-7.700000,46.200001,16.170000,22.14
5586043,0.096624,-0.494344,1.344928,-0.980000,38.919998,12.390000,22.14
5586054,0.138104,-0.505080,1.347856,5.390000,36.049999,10.080000,22.07
5586065,0.086376,-0.438712,1.357616,10.780000,32.480000,6.090000,22.07
5586076,0.080520,-0.418216,1.383968,11.130000,23.100000,6.580000,22.11
5586087,0.080520,-0.381616,1.425936,7.140000,17.290001,4.270000,22.11
5586098,0.063928,-0.399672,1.486448,-0.070000,7.140000,4.690000,22.09
5586109,0.081984,-0.433832,1.505480,-3.290000,2.100000,1.610000,22.09
5586120,0.055632,-0.429440,1.374696,-6.090000,-6.510000,-0.770000,22.09
5586132,0.071736,-0.484096,1.458144,-3.780000,-13.860000,-4.970000,22.10
5586143,0.047336,-0.493368,1.430816,2.730000,-21.910000,-9.030000,22.10
5586154,0.070272,-0.502640,1.439600,6.790000,-29.750000,-10.850000,22.09
5586165,0.083448,-0.557296,1.451800,16.799999,-36.750000,-15.750000,22.09
5586176,0.081008,-0.567544,1.460584,33.810001,-44.730000,-22.469999,22.09
5586187,0.077104,-0.510936,1.454240,52.779999,-51.590000,-26.600000,22.07
5586198,0.100040,-0.451400,1.419104,63.980000,-59.360001,-29.610001,22.07
5586209,0.108824,-0.372344,1.394216,68.529999,-66.779999,-30.590000,22.09
5586220,0.109800,-0.274256,1.384456,70.699997,-74.410004,-32.689999,22.06
5586231,0.121024,-0.146400,1.375672,61.950001,-82.879997,-31.430000,22.06
5586242,0.161040,-0.096624,1.356640,41.299999,-90.790001,-28.700001,22.11
5586253,0.171776,-0.135176,1.336632,27.370001,-97.440002,-27.580000,22.11
5586264,0.183976,-0.165432,1.309304,18.900000,-103.599998,-25.200001,22.11
5586275,0.205448,-0.214720,1.233664,13.790000,-107.379997,-25.410000,22.07
5586286,0.209352,-0.230824,1.158024,17.010000,-110.879997,-27.230000,22.07
5586297,0.220576,-0.259616,1.102880,24.500000,-114.800003,-28.420000,22.10
5586308,0.215208,-0.223504,1.062376,34.509998,-117.949997,-28.559999,22.10
5586319,0.231800,-0.146888,1.014552,40.880001,-121.800003,-27.719999,22.06
5586330,0.255224,-0.038064,0.982344,31.290001,-125.160004,-23.660000,22.06
5586341,0.276696,-0.065392,0.935496,26.600000,-126.489998,-24.080000,22.08
5586352,0.299632,-0.079544,0.885232,21.910000,-127.470001,-22.330000,22.04
5586363,0.313784,-0.124928,0.805688,26.180000,-126.349998,-23.100000,22.04
5586374,0.337696,-0.137128,0.692960,34.160000,-124.250000,-23.450001,22.06
5586385,0.363560,-0.129808,0.589016,44.240002,-120.959999,-21.980000,22.06
5586396,0.395768,-0.086376,0.479704,49.209999,-112.980003,-21.280001,22.12
5586407,0.394792,-0.015616,0.393328,47.810001,-105.070000,-18.969999,22.09
5586418,0.428464,0.022448,0.348920,46.830002,-95.830002,-13.930000,22.09
5586429,0.448472,0.084912,0.342576,37.099998,-88.410004,-9.030000,22.06
5586440,0.460184,0.082472,0.329400,26.600000,-81.199997,-6.790000,22.06
5586451,0.500200,0.059536,0.325496,19.180000,-70.629997,-3.780000,22.11
5586462,0.518744,0.057584,0.305488,12.740000,-60.200001,-0.490000,22.07
5586473,0.521184,0.023912,0.268888,6.510000,-50.889999,2.310000,22.07
5586484,0.523624,0.012688,0.246440,1.470000,-40.110001,3.640000,22.09
5586495,0.526552,0.001464,0.249368,-3.500000,-29.610001,4.900000,22.09
5586506,0.526552,-0.044408,0.271328,-6.510000,-21.350000,5.180000,22.09
5586517,0.536800,-0.076616,0.301096,-5.810000,-10.920000,5.180000,22.12
5586528,0.537776,-0.079544,0.306464,-2.870000,-1.190000,4.830000,22.12
5586539,0.544120,-0.093208,0.308416,-0.490000,8.400000,3.150000,22.07
5586550,0.544120,-0.102480,0.315248,3.500000,15.960000,1.960000,22.07
5586561,0.548024,-0.105408,0.315248,9.450000,25.340000,1.050000,22.09
5586572,0.541680,-0.081496,0.341112,11.900000,31.639999,1.050000,22.09
5586582,0.543632,-0.061976,0.393816,12.390000,39.970001,1.540000,22.12
5586593,0.530944,-0.032696,0.431880,10.710000,46.549999,1.750000,22.09
5586604,0.535824,-0.018056,0.476776,4.060000,51.029999,2.940000,22.09
5586615,0.531920,-0.010736,0.511912,-0.980000,56.070000,3.920000,22.09
5586626,0.536312,-0.009760,0.527040,-4.620000,60.480000,4.690000,22.09
5586637,0.534848,-0.020984,0.546560,-9.870000,64.400002,6.020000,22.11
5586648,0.532896,-0.021472,0.576328,-15.540000,69.720001,7.140000,22.10
5586659,0.520208,-0.018056,0.617808,-22.680000,74.690002,10.290000,22.10
5586670,0.497272,0.000000,0.656360,-28.280001,78.959999,12.040000,22.09
5586681,0.462624,0.000488,0.691984,-36.680000,80.849998,13.790000,22.09
5586692,0.433344,-0.009272,0.700280,-42.419998,82.040001,15.890000,22.08
5586703,0.424560,-0.050264,0.683688,-44.169998,83.720001,16.660000,22.08
5586714,0.445056,-0.095160,0.684176,-46.340000,86.940002,19.180000,22.09
5586725,0.451888,-0.117608,0.727608,-49.560001,90.300003,21.070000,22.10
5586736,0.430904,-0.107848,0.790072,-53.130001,94.919998,27.370001,22.10
5586746,0.395768,-0.154208,0.789584,-50.540001,96.809998,35.700001,22.09
5586757,0.322080,-0.115168,0.837408,-52.360001,97.650002,29.120001,22.09
5586768,0.319152,-0.160064,0.823256,-50.119999,98.559998,30.450001,22.10
5586779,0.301096,-0.208376,0.806176,-44.029999,101.010002,31.150000,22.08
5586790,0.313784,-0.226432,0.880352,-42.490002,101.080002,53.130001,22.08
5586801,0.295240,-0.275232,0.956480,-37.240002,103.459999,37.450001,22.08
5586812,0.227896,-0.235704,1.042856,-34.580002,100.660004,37.869999,22.08
5586823,0.194712,-0.236680,1.102392,-33.880001,96.949997,35.770000,22.11
5586834,0.162504,-0.261080,1.138992,-31.150000,92.400002,34.790001,22.06
5586845,0.158112,-0.283040,1.166320,-30.450001,87.150002,34.720001,22.06
5586856,0.180072,-0.337208,1.184376,-31.500000,84.139999,35.279999,22.07
5586867,0.180072,-0.392352,1.207312,-27.370001,81.059998,34.509998,22.07
5586878,0.144448,-0.415288,1.281976,-21.139999,76.089996,32.689999,22.05
5586889,0.086376,-0.405528,1.362984,-14.420000,68.529999,27.580000,22.05
5586900,0.107848,-0.447496,1.377624,-7.000000,59.919998,25.620001,22.08
5586911,0.122488,-0.513376,1.334192,8.470000,56.139999,18.620001,22.11
5586922,0.091744,-0.464576,1.303448,17.080000,50.330002,14.700000,22.11
5586932,0.090768,-0.426512,1.310280,16.799999,45.709999,12.740000,22.08
5586943,0.079056,-0.391376,1.334192,13.230000,40.810001,11.620000,22.08
5586954,0.074176,-0.349408,1.398120,7.140000,34.439999,11.270000,22.09
5586965,0.056120,-0.356240,1.493768,-3.500000,24.290001,11.340000,22.05
5586976,0.080032,-0.398208,1.542568,-11.480000,13.930000,9.940000,22.05
5586987,0.067344,-0.472384,1.544032,-10.920000,7.420000,3.710000,22.05
5586998,0.063928,-0.542656,1.498160,5.250000,1.470000,-1.470000,22.05
5587009,0.037576,-0.455792,1.452776,18.760000,-5.740000,-6.930000,22.09
5587020,0.043432,-0.361608,1.445944,17.990000,-15.330000,-5.880000,22.09
5587031,0.039040,-0.319152,1.461560,12.110000,-22.120001,-7.490000,22.07
5587042,0.053680,-0.351360,1.476688,1.820000,-31.430000,-7.280000,22.07
5587053,0.074176,-0.482632,1.466440,7.700000,-37.240002,-13.930000,22.07
5587064,0.061000,-0.471896,1.434232,21.700001,-43.470001,-18.200001,22.10
5587075,0.068808,-0.456280,1.403976,32.480000,-51.099998,-20.650000,22.10
5587086,0.070760,-0.428464,1.373232,43.400002,-56.000000,-25.690001,22.07
5587097,0.052216,-0.339160,1.351760,47.320000,-64.330002,-26.389999,22.07
5587108,0.073200,-0.242536,1.359080,40.040001,-71.750000,-25.129999,22.07
5587119,0.101016,-0.208376,1.350296,29.680000,-78.820000,-26.459999,22.08
5587130,0.109312,-0.194712,1.364936,16.660000,-87.709999,-25.690001,22.08
5587141,0.135664,-0.244488,1.341512,12.740000,-94.010002,-26.740000,22.07
5587152,0.129808,-0.234728,1.287832,11.270000,-98.839996,-27.090000,22.08
5587163,0.138104,-0.269864,1.235128,11.340000,-105.419998,-28.629999,22.08
5587174,0.165432,-0.318664,1.214144,18.690001,-110.180000,-30.940001,22.12
5587185,0.168360,-0.291336,1.181936,26.250000,-116.760002,-33.599998,22.12
5587196,0.182024,-0.262544,1.141432,35.139999,-122.080002,-34.369999,22.07
5587207,0.212768,-0.211304,1.108736,39.619999,-127.050003,-33.110001,22.05
5587218,0.234728,-0.175680,1.049200,40.250000,-131.039993,-32.830002,22.05
5587229,0.246928,-0.199104,0.976488,43.540001,-132.300003,-33.599998,22.07
5587240,0.246440,-0.182024,0.892552,48.090000,-133.070007,-34.650002,22.07
5587251,0.263032,-0.130784,0.831552,52.360001,-134.259995,-33.810001,22.09
5587262,0.300608,-0.060512,0.757864,54.110001,-134.960007,-31.709999,22.09
5587273,0.331840,-0.027328,0.668560,51.099998,-133.770004,-29.540001,22.07
5587284,0.388936,-0.041480,0.571936,52.570000,-127.750000,-26.389999,22.09
5587295,0.436760,0.031232,0.519232,50.959999,-116.690002,-27.930000,22.09
5587306,0.431880,0.063440,0.460672,46.060001,-115.430000,-21.139999,22.10
5587317,0.487024,0.099064,0.397720,39.900002,-106.120003,-15.400000,22.10
5587328,0.497272,0.160064,0.331352,26.320000,-93.519997,-10.570000,22.08
5587339,0.514352,0.161528,0.286456,14.980000,-83.230003,-5.600000,22.05
5587350,0.523624,0.143960,0.262544,2.380000,-73.709999,-2.520000,22.05
5587361,0.531920,0.120048,0.272792,-8.260000,-62.160000,1.190000,22.09
5587372,0.539728,0.085400,0.263032,-14.840000,-51.520000,3.990000,22.09
5587383,0.551440,0.020496,0.240096,-18.830000,-42.419998,4.760000,22.06
5587394,0.555344,-0.040992,0.204960,-15.540000,-30.870001,4.760000,22.04
5587405,0.560224,-0.085888,0.180560,-8.820000,-18.760000,4.270000,22.04
5587416,0.569008,-0.107360,0.194224,-2.660000,-5.600000,3.990000,22.07
5587428,0.571936,-0.106384,0.216672,6.230000,5.180000,3.290000,22.07
5587438,0.563640,-0.103456,0.241072,12.740000,16.940001,2.660000,22.06
5587449,0.546560,-0.113216,0.258640,18.410000,27.650000,0.980000,22.06
5587460,0.543632,-0.099552,0.285480,24.080000,35.630001,-0.490000,22.11
5587471,0.538264,-0.081984,0.314760,27.020000,44.099998,-1.260000,22.02
5587482,0.547536,-0.048800,0.364536,26.389999,52.290001,-1.120000,22.02
5587493,0.542168,-0.015616,0.430416,20.790001,58.029999,-0.420000,22.11
5587504,0.537288,0.006832,0.613904,12.110000,64.190002,0.490000,22.11
5587515,0.519720,0.021472,0.540216,4.410000,68.949997,1.610000,22.06
5587525,0.503616,0.028304,0.565104,-6.440000,71.470001,3.290000,22.05
5587536,0.493368,0.012688,0.574376,-17.010000,75.040001,4.270000,22.05
5587547,0.484584,-0.010736,0.581696,-22.680000,79.730003,4.340000,22.07
5587558,0.481656,-0.028792,0.600240,-28.280001,83.230003,6.300000,22.07
5587569,0.475800,-0.029768,0.612440,-32.200001,88.269997,7.560000,22.09
5587580,0.467992,-0.034160,0.611464,-34.580002,93.589996,8.610000,22.09
5587591,0.467016,-0.021960,0.684664,-42.630001,97.019997,13.020000,22.07
5587602,0.426024,0.013664,0.752496,-49.700001,99.400002,15.680000,22.12
5587612,0.385520,0.019032,0.836920,-56.840000,98.910004,19.950001,22.12
5587623,0.363072,0.010248,0.887672,-65.730003,97.790001,23.100000,22.06
5587634,0.374296,-0.048312,0.895968,-71.959999,96.389999,25.690001,22.06
5587645,0.372832,-0.155184,0.873520,-71.400002,98.839996,25.690001,22.09
5587656,0.359656,-0.201056,0.915976,-69.580002,98.419998,29.260000,22.07
5587667,0.363560,-0.215696,0.989664,-66.639999,98.769997,31.360001,22.07
5587678,0.286456,-0.173728,1.039440,-63.910000,95.970001,31.920000,22.03
5587688,0.251808,-0.218136,1.048712,-60.970001,92.120003,31.920000,22.03
5587699,0.229848,-0.282064,1.051152,-53.549999,89.669998,30.590000,22.04
5587710,0.222528,-0.316224,1.015040,-47.389999,87.639999,28.000000,22.04
5587721,0.242048,-0.343552,1.007720,-38.009998,87.290001,27.930000,22.05
5587732,0.231312,-0.340136,1.040904,-29.400000,86.589996,27.650000,22.06
5587743,0.209840,-0.346480,1.141432,-26.809999,84.070000,29.400000,22.06
5587754,0.186904,-0.351360,1.214144,-17.500000,81.480003,27.299999,22.04
5587765,0.145912,-0.305000,1.235616,-12.110000,76.019997,25.549999,22.04
5587776,0.142496,-0.306952,1.218536,-10.220000,71.120003,23.379999,22.09
5587788,0.127856,-0.346480,1.193648,-7.910000,67.269997,22.330000,22.07
5587799,0.131272,-0.375760,1.182424,-6.440000,65.730003,22.190001,22.07
5587809,0.086864,-0.381128,1.228296,-5.320000,61.320000,21.629999,22.06
5587820,0.060512,-0.374784,1.303936,-5.670000,55.580002,20.370001,22.06
5587831,0.067832,-0.360632,1.402512,-9.240000,47.880001,20.230000,22.05
5587842,0.059536,-0.387472,1.455704,-9.520000,39.830002,16.660000,22.04
5587853,0.060512,-0.418216,1.476200,-7.770000,30.520000,15.120000,22.04
5587864,0.071736,-0.431880,1.485960,-8.890000,22.820000,12.040000,22.09
5587875,0.045384,-0.488976,1.484984,-5.670000,16.309999,6.930000,22.09
5587886,0.020984,-0.493368,1.495720,-1.050000,6.300000,4.200000,22.09
5587897,-0.002928,-0.486048,1.516216,1.400000,-5.600000,-0.630000,22.09
5587908,0.012200,-0.478728,1.540616,-1.120000,-17.850000,-2.800000,22.07
5587919,0.040504,-0.518744,1.553792,5.530000,-25.270000,-11.130000,22.10
5587930,0.031720,-0.507520,1.535736,11.760000,-36.119999,-14.630000,22.10
5587941,0.062952,-0.606584,1.513776,22.049999,-44.240002,-20.650000,22.10
5587952,0.061976,-0.608536,1.416176,48.650002,-49.070000,-28.139999,22.10
5587963,0.058072,-0.550952,1.329312,77.559998,-54.950001,-32.480000,22.10
5587974,0.027328,-0.267912,1.357128,85.610001,-65.660004,-31.780001,22.09
5587985,0.089304,-0.213744,1.401536,73.430000,-74.059998,-30.799999,22.09
5587996,0.107848,-0.242048,1.417152,67.199997,-80.570000,-31.500000,22.11
5588007,0.096624,-0.213256,1.415200,65.099998,-92.260002,-33.599998,22.11
5588019,0.114192,-0.123464,1.431304,59.919998,-101.849998,-31.219999,22.07
5588030,0.133224,-0.100528,1.401048,57.049999,-108.570000,-28.980000,22.04
5588041,0.120048,-0.113216,1.309792,47.880001,-114.309998,-26.250000,22.04
5588052,0.116632,-0.173240,1.220488,49.490002,-118.510002,-26.040001,22.07
5588063,0.118584,-0.092232,1.119472,46.549999,-124.529999,-23.379999,22.07
5588074,0.162016,-0.059048,1.063352,38.290001,-130.339996,-21.629999,22.07
5588085,0.205936,-0.110776,1.091656,33.180000,-133.910004,-20.230000,22.08
5588097,0.253760,-0.125904,1.091656,35.349998,-137.690002,-19.180000,22.08
5588108,0.278648,-0.100528,1.070672,35.840000,-140.699997,-17.219999,22.05
5588119,0.298656,-0.119560,0.983808,40.669998,-141.259995,-18.480000,22.05
5588130,0.305000,-0.081496,0.915976,40.110001,-141.470001,-16.030001,22.04
5588141,0.302560,-0.096136,0.818376,43.400002,-140.210007,-16.799999,22.06
5588152,0.312808,-0.058560,0.742248,47.389999,-138.809998,-15.400000,22.06
5588163,0.354288,-0.037088,0.652944,47.040001,-135.660004,-13.720000,22.02
5588174,0.422608,-0.000488,0.547048,43.330002,-126.769997,-14.840000,22.02
5588185,0.390400,-0.028304,0.449936,39.759998,-125.160004,-12.460000,22.07
5588196,0.486536,-0.074176,0.416752,42.630001,-113.190002,-8.960000,22.07
5588207,0.489464,-0.060024,0.357216,47.810001,-102.970001,-10.010000,22.08
5588218,0.507520,-0.054168,0.310856,53.130001,-95.900002,-7.980000,22.10
5588229,0.546072,-0.030744,0.269376,57.820000,-85.050003,-6.650000,22.10
5588240,0.535336,0.024888,0.241560,57.119999,-74.620003,-4.550000,22.08
5588251,0.555832,0.088328,0.252784,48.369999,-63.349998,-2.450000,22.08
5588262,0.543632,0.112240,0.270840,37.520000,-57.820000,-0.770000,22.09
5588273,0.578280,0.121512,0.260104,24.430000,-45.779999,0.910000,22.08
5588284,0.578280,0.103456,0.250344,14.700000,-36.820000,2.100000,22.08
5588295,0.588040,0.097112,0.245464,2.940000,-27.930000,3.080000,22.08
5588306,0.595360,0.092232,0.253760,-9.380000,-17.639999,4.270000,22.08
5588317,0.602680,0.040992,0.267912,-14.140000,-6.510000,4.060000,22.08
5588328,0.591944,0.021472,0.262056,-18.690001,1.050000,3.850000,22.04
5588339,0.607560,-0.018056,0.255224,-19.320000,11.410000,3.290000,22.04
5588353,0.608048,-0.058560,0.257176,-16.100000,22.680000,1.890000,22.07
5588364,0.625616,-0.072712,0.285480,-12.110000,32.619999,0.980000,22.07
5588375,0.624640,-0.069296,0.328424,-9.170000,41.369999,0.000000,22.09
5588386,0.611464,-0.058560,0.362584,-6.090000,47.459999,-0.770000,22.06
5588397,0.593896,-0.040504,0.386496,-6.370000,53.689999,-2.030000,22.06
5588408,0.583648,-0.040016,0.434320,-7.910000,58.869999,-1.960000,22.09
5588419,0.575352,-0.016592,0.485072,-9.800000,62.860001,-1.960000,22.09
5588430,0.572424,0.005856,0.544120,-16.730000,67.059998,-0.980000,22.11
5588441,0.566080,0.022936,0.581696,-24.080000,71.190002,-0.560000,22.05
5588452,0.548024,0.024888,0.599264,-30.799999,75.040001,0.140000,22.05
5588463,0.540216,-0.002928,0.598776,-35.630001,77.349998,1.260000,22.08
5588474,0.537288,-0.007808,0.596824,-38.500000,80.639999,1.610000,22.08
5588486,0.547048,0.002440,0.650016,-49.000000,83.580002,6.510000,22.08
5588496,0.543632,-0.000488,0.705648,-52.150002,88.199997,13.370000,22.08
5588507,0.467016,0.035624,0.801296,-61.950001,88.900002,10.500000,22.08
5588518,0.462624,-0.000488,0.825208,-64.610001,89.110001,13.370000,22.09
5588529,0.434320,-0.008784,0.804712,-65.730003,90.860001,14.350000,22.09
5588540,0.399184,-0.045384,0.742736,-65.519997,90.790001,14.280000,22.07
5588551,0.422608,-0.081008,0.717360,-66.709999,93.099998,16.940001,22.06
5588563,0.426024,-0.090768,0.774456,-72.449997,95.970001,23.030001,22.06
5588574,0.393816,-0.098088,0.891576,-75.389999,98.000000,28.280001,22.08
5588585,0.359168,-0.102968,0.959896,-75.809998,97.300003,29.610001,22.08
5588596,0.335744,-0.159576,0.956968,-71.959999,96.110001,28.980000,22.06
5588607,0.303048,-0.184952,0.932080,-63.490002,95.970001,28.980000,22.06
5588618,0.290848,-0.189344,0.898896,-58.310001,94.919998,30.730000,22.06
5588629,0.286944,-0.191296,0.945744,-61.810001,92.680000,33.389999,22.04
5588640,0.279136,-0.234728,1.040904,-64.190002,93.169998,35.490002,22.04
5588651,0.224480,-0.281576,1.101416,-59.500000,91.349998,35.560001,22.07
5588662,0.194224,-0.350384,1.142408,-52.220001,87.360001,32.060001,22.07
5588673,0.175192,-0.373320,1.139968,-38.570000,84.489998,29.820000,22.07
5588684,0.172264,-0.396256,1.106296,-25.410000,81.269997,26.459999,22.05
5588695,0.157624,-0.426024,1.052616,-14.210000,79.589996,24.360001,22.05
5588706,0.160064,-0.387472,1.077504,-6.720000,77.419998,25.969999,22.08
5588717,0.153720,-0.359168,1.146312,-4.410000,76.089996,25.129999,22.08
5588728,0.072712,-0.301096,1.217072,-5.740000,70.489998,23.870001,22.10
5588739,0.091744,-0.277672,1.292712,-11.900000,64.260002,24.990000,22.06
5588750,0.096624,-0.267912,1.351760,-17.990000,59.150002,22.400000,22.06
5588761,0.095160,-0.337696,1.371280,-23.030001,50.119999,21.770000,22.07
5588772,0.138592,-0.463112,1.326872,-17.150000,48.439999,18.480000,22.07
5588783,0.069296,-0.402600,1.313208,-18.059999,43.189999,16.730000,22.06
5588794,0.069784,-0.497272,1.307840,-17.150000,37.310001,14.420000,22.05
5588805,0.019032,-0.492880,1.314184,-12.110000,29.820000,11.900000,22.05
5588816,0.028792,-0.479216,1.357128,-8.960000,22.260000,9.380000,22.05
5588827,0.049776,-0.485072,1.400072,-5.670000,17.430000,5.460000,22.05
5588838,0.058072,-0.504104,1.450824,-3.640000,9.730000,4.340000,22.06
5588849,0.058560,-0.624152,1.480592,9.800000,3.360000,-1.610000,22.06
5588860,0.031232,-0.677344,1.480104,31.080000,-5.180000,-10.430000,22.07
5588871,0.005368,-0.567544,1.486936,56.630001,-13.020000,-16.100000,22.05
5588883,0.005368,-0.394792,1.506944,63.630001,-24.990000,-17.500000,22.05
5588894,0.046848,-0.282064,1.525976,51.169998,-35.980000,-18.059999,22.07
5588905,0.056120,-0.308416,1.499136,43.330002,-43.119999,-20.299999,22.07
5588916,0.059536,-0.294264,1.444480,35.700001,-51.099998,-20.230000,22.06
5588927,0.087352,-0.304512,1.409832,28.490000,-59.150002,-21.000000,22.05
5588938,0.096136,-0.322080,1.377136,28.350000,-64.330002,-23.379999,22.05
5588949,0.099064,-0.373808,1.321016,34.020000,-70.349998,-24.990000,22.04
5588960,0.085400,-0.309392,1.290272,41.509998,-75.809998,-24.990000,22.04
5588971,0.113704,-0.229360,1.307352,38.779999,-83.510002,-23.940001,22.06
5588982,0.148352,-0.198128,1.333216,33.110001,-89.529999,-23.379999,22.05
5588993,0.140544,-0.191296,1.346880,29.120001,-94.849998,-24.430000,22.05
5589004,0.146400,-0.169824,1.309792,23.590000,-103.949997,-24.639999,22.04
5589015,0.147376,-0.183976,1.260504,17.570000,-109.900002,-24.570000,22.04
5589026,0.170312,-0.258152,1.182424,20.230000,-113.400002,-25.480000,22.08
5589038,0.154696,-0.254736,1.093608,24.080000,-117.669998,-26.600000,22.05
5589049,0.154696,-0.245952,1.018944,34.650002,-120.889999,-29.610001,22.05
5589060,0.198128,-0.192760,0.998448,38.500000,-125.300003,-27.580000,22.08
5589071,0.238632,-0.189832,0.986736,43.959999,-127.540001,-27.790001,22.08
5589082,0.266936,-0.174216,0.947696,48.230000,-129.570007,-27.160000,22.04
5589093,0.291824,-0.140056,0.918904,51.520000,-129.289993,-25.480000,22.07
5589104,0.284016,-0.077592,0.838384,51.520000,-130.059998,-23.940001,22.07
5589116,0.314272,-0.069296,0.638792,48.090000,-128.169998,-22.610001,22.05
5589127,0.338184,-0.054168,0.694912,48.160000,-125.440002,-20.370001,22.05
5589138,0.492392,-0.011224,0.628056,42.139999,-121.379997,-16.590000,22.04
5589149,0.398208,-0.010248,0.557784,36.049999,-116.339996,-13.790000,22.05
5589160,0.432368,0.042944,0.522160,24.430000,-108.080002,-12.320000,22.05
5589171,0.458232,0.015616,0.514352,16.730000,-103.110001,-7.910000,22.11
5589182,0.506056,-0.005856,0.508496,13.300000,-96.110001,-7.420000,22.11
5589193,0.511424,-0.015616,0.470920,10.500000,-88.830002,-6.650000,22.07
5589204,0.531920,-0.051728,0.434320,10.710000,-80.849998,-6.510000,22.07
5589215,0.542656,-0.059048,0.359656,13.300000,-70.769997,-5.880000,22.06
5589226,0.546072,-0.049288,0.306952,13.230000,-63.000000,-5.390000,22.05
5589237,0.560712,-0.060512,0.286944,13.440000,-53.130001,-5.600000,22.05
5589248,0.580232,-0.049288,0.292800,14.000000,-42.910000,-5.320000,22.07
5589259,0.597800,-0.033672,0.311344,12.880000,-35.000000,-4.690000,22.07
5589270,0.598776,-0.024888,0.310856,10.570000,-24.150000,-4.620000,22.03
5589281,0.593896,-0.024400,0.309392,9.590000,-14.630000,-4.200000,22.02
5589292,0.592920,0.003904,0.302560,8.050000,-5.320000,-3.570000,22.02
5589303,0.588040,-0.000976,0.289384,5.810000,2.310000,-2.800000,22.08
5589314,0.591944,-0.007808,0.288896,3.990000,11.480000,-2.310000,22.08
5589325,0.591944,-0.011224,0.300120,2.940000,20.510000,-1.750000,22.05
5589335,0.588040,-0.005856,0.328912,0.770000,26.879999,-0.280000,22.03
5589346,0.592432,-0.001952,0.369904,-1.750000,35.070000,0.490000,22.03
5589357,0.572424,0.011224,0.399672,-5.390000,41.439999,1.680000,22.05
5589368,0.562664,-0.005856,0.433832,-9.520000,45.290001,2.380000,22.05
5589379,0.557784,-0.011224,0.469944,-14.000000,49.840000,3.290000,22.09
5589390,0.555344,-0.018056,0.502152,-18.760000,53.759998,4.620000,22.09
5589402,0.564128,-0.025864,0.534848,-21.629999,57.750000,6.370000,22.10
5589413,0.568520,-0.033184,0.561200,-25.549999,61.669998,7.140000,22.05
5589424,0.552904,-0.051728,0.581208,-26.809999,66.220001,7.280000,22.05
5589434,0.539240,-0.074664,0.592920,-27.090000,70.769997,7.350000,22.04
5589445,0.523136,-0.067832,0.616832,-27.650000,72.589996,8.750000,22.04
5589456,0.514840,-0.064416,0.691496,-32.689999,73.919998,11.340000,22.11
5589467,0.510936,-0.059536,0.752984,-36.189999,75.669998,13.090000,21.99
5589478,0.496296,-0.051240,0.793488,-39.270000,77.000000,13.860000,21.99
5589489,0.471896,-0.063440,0.799344,-42.139999,77.139999,14.280000,22.08
5589500,0.462136,-0.096136,0.769576,-41.580002,78.330002,13.720000,22.08
5589511,0.458720,-0.121512,0.738832,-41.650002,80.779999,15.680000,22.05
5589522,0.449448,-0.141520,0.747128,-38.570000,83.440002,17.290001,22.04
5589533,0.442616,-0.130784,0.763720,-35.419998,87.430000,19.600000,22.04
5589544,0.411872,-0.098088,0.797392,-36.259998,90.580002,21.629999,22.07
5589555,0.392840,-0.102968,0.812520,-37.799999,91.910004,22.680000,22.07
5589566,0.370392,-0.090280,0.806176,-41.580002,94.360001,24.500000,22.05
5589577,0.345016,-0.070760,0.855952,-46.340000,94.849998,30.240000,22.05
5589588,0.330376,-0.067344,1.010160,-61.250000,92.400002,36.889999,22.04
5589599,0.285968,-0.117608,1.089704,-68.599998,91.139999,39.689999,22.04
5589610,0.246928,-0.187392,1.105320,-72.800003,87.150002,39.900002,22.04
5589621,0.231800,-0.274744,1.073112,-70.699997,83.440002,37.590000,22.04
5589632,0.228384,-0.392840,1.046272,-63.209999,81.550003,35.349998,22.04
5589643,0.219600,-0.417240,1.064816,-52.150002,79.379997,35.560001,22.03
5589654,0.271816,-0.505080,0.974536,-30.799999,80.989998,44.869999,22.05
5589665,0.157624,-0.412848,1.174616,-45.639999,71.190002,34.509998,22.05
5589676,0.145912,-0.472384,1.236592,-38.919998,67.900002,32.830002,22.05
5589687,0.120536,-0.470920,1.265872,-31.430000,60.759998,28.070000,22.05
5589698,0.116632,-0.497272,1.278072,-22.469999,54.599998,23.030001,22.04
5589709,0.116632,-0.520208,1.276608,-14.000000,48.790001,16.870001,22.05
5589720,0.138592,-0.521184,1.267336,-3.570000,43.330002,13.580000,22.05
5589731,0.165432,-0.485072,1.260992,7.490000,40.250000,11.480000,22.06
5589742,0.111264,-0.396744,1.263920,11.340000,34.230000,8.890000,22.06
5589753,0.181536,-0.480680,1.238544,13.020000,32.130001,6.720000,22.05
5589765,0.122488,-0.421144,1.226832,24.290001,31.500000,2.520000,22.05
5589776,0.102480,-0.368928,1.287832,22.750000,23.870001,3.640000,22.05
5589787,0.112728,-0.353312,1.355176,13.650000,17.430000,5.530000,22.04
5589798,0.086864,-0.392840,1.400560,0.630000,12.250000,5.740000,22.04
5589808,0.083448,-0.471408,1.439112,-3.080000,5.250000,2.940000,22.07
5589819,0.090280,-0.574376,1.461560,2.240000,-2.310000,-2.310000,22.07
5589830,0.067344,-0.579744,1.405440,15.190000,-8.540000,-8.260000,22.05
5589842,0.068320,-0.669536,1.359568,43.330002,-13.440000,-19.389999,22.05
5589853,0.025864,-0.550952,1.471808,65.449997,-25.410000,-21.629999,22.05
5589864,0.101992,-0.449448,1.569896,65.660004,-38.500000,-23.240000,22.07
5589875,0.114192,-0.409432,1.613328,63.910000,-48.439999,-26.670000,22.07
5589886,0.095648,-0.361120,1.596736,59.779999,-59.290001,-29.190001,22.06
5589897,0.117120,-0.338184,1.519144,56.349998,-69.370003,-32.270000,22.03
5589908,0.123952,-0.332328,1.434232,55.439999,-77.629997,-35.560001,22.03
5589919,0.125904,-0.338672,1.339560,59.990002,-84.000000,-38.570000,22.07
5589931,0.136640,-0.244488,1.304912,64.470001,-90.370003,-37.520000,22.07
5589942,0.153232,-0.121024,1.326384,55.790001,-99.959999,-35.490002,22.04
5589953,0.188368,-0.090280,1.357616,40.529999,-109.970001,-33.389999,22.01
5589964,0.227408,-0.139080,1.326872,31.639999,-113.680000,-30.730000,22.01
5589975,0.236680,-0.169824,1.252208,31.920000,-117.529999,-31.920000,22.09
5589986,0.252296,-0.154696,1.167784,31.219999,-122.989998,-29.889999,22.09
5589997,0.265960,-0.166408,1.091656,31.010000,-125.300003,-28.420000,22.07
5590008,0.265960,-0.159088,1.023336,30.170000,-127.540001,-26.600000,22.00
5590019,0.272792,-0.178120,0.943304,39.830002,-129.220001,-28.840000,22.00
5590030,0.298168,-0.142984,0.855464,47.250000,-129.360001,-28.629999,22.02
5590042,0.317200,-0.073200,0.798856,46.689999,-129.429993,-25.549999,22.02
5590053,0.338184,-0.037576,0.739808,42.630001,-127.889999,-28.420000,22.09
5590064,0.404064,0.001464,0.705160,42.349998,-124.250000,-20.090000,22.03
5590075,0.411384,0.066856,0.677832,33.389999,-120.400002,-18.549999,22.03
5590086,0.394792,0.117120,0.615368,23.100000,-115.080002,-15.470000,22.04
5590097,0.403576,0.104432,0.507520,14.630000,-109.339996,-12.320000,22.04
5590108,0.450912,0.079544,0.459696,6.300000,-101.290001,-8.610000,22.06
5590119,0.452864,0.061488,0.426024,0.140000,-94.430000,-6.230000,22.00
5590130,0.494344,0.016592,0.392840,-1.820000,-86.309998,-3.290000,22.00
5590141,0.510448,-0.044896,0.347944,1.330000,-77.279999,-3.430000,22.06
5590152,0.535336,-0.087840,0.328424,9.100000,-69.230003,-2.170000,22.06
5590163,0.545096,-0.080520,0.335744,17.010000,-60.900002,-1.820000,22.02
5590174,0.542168,-0.043432,0.357704,21.420000,-52.150002,0.070000,22.02
5590185,0.541680,-0.021472,0.367464,24.360001,-46.060001,-0.280000,22.07
5590196,0.550464,0.005856,0.380640,23.520000,-38.150002,0.350000,22.03
5590207,0.547536,0.040504,0.372344,19.110001,-30.170000,0.910000,22.03
5590217,0.559248,0.046848,0.352824,13.930000,-24.570000,1.050000,22.05
5590228,0.568032,0.042456,0.340624,6.020000,-16.730000,1.750000,22.05
5590239,0.572912,0.005856,0.328912,1.890000,-8.960000,1.330000,22.07
5590252,0.569496,-0.022448,0.312320,-1.540000,-0.840000,1.050000,22.02
5590266,0.565104,-0.053680,0.300120,-0.700000,9.030000,-0.350000,22.02
5590280,0.561688,-0.086376,0.286944,3.920000,18.620001,-1.400000,22.05
5590293,0.567544,-0.079544,0.307928,8.050000,27.930000,-1.820000,22.04
5590305,0.578768,-0.057584,0.341112,8.680000,35.980000,-1.960000,22.04
5590316,0.577304,-0.025376,0.361608,6.440000,44.310001,-1.750000,22.04
5590328,0.558272,0.009272,0.398208,3.500000,51.310001,-1.330000,22.07
5590339,0.560712,0.031232,0.420656,-1.890000,57.330002,0.840000,22.07
5590350,0.557784,0.057096,0.445544,-10.570000,62.020000,2.870000,22.05
5590363,0.550952,0.066856,0.477264,-20.230000,70.559998,4.550000,22.04
5590374,0.548512,0.064416,0.496296,-29.400000,74.970001,7.560000,22.04
5590385,0.536312,0.092720,0.519720,-41.439999,81.129997,11.900000,22.04
5590398,0.534360,0.080032,0.553392,-57.119999,87.430000,17.290001,22.04
5590409,0.523624,0.058072,0.603656,-69.720001,91.209999,24.290001,22.01
5590419,0.508008,0.014640,0.623664,-75.739998,95.480003,25.900000,22.05
5590430,0.502152,-0.046360,0.603168,-75.809998,102.269997,30.030001,22.05
5590441,0.462624,-0.082960,0.623664,-75.529999,104.790001,33.599998,22.07
5590452,0.438224,-0.127368,0.696864,-74.410004,106.330002,36.889999,22.07
5590463,0.435296,-0.175680,0.787632,-53.970001,108.709999,42.000000,22.05
5590474,0.426024,-0.219600,0.879376,-67.129997,109.269997,43.540001,22.08
5590485,0.383080,-0.270352,0.906704,-52.779999,109.760002,41.860001,22.08
5590496,0.334280,-0.284992,0.886208,-35.279999,110.180000,40.040001,22.05
5590507,0.311344,-0.284016,0.884744,-25.200001,110.110001,38.919998,22.05
5590518,0.272792,-0.273280,0.971120,-21.000000,108.779999,41.790001,22.02
5590529,0.244488,-0.295728,1.093120,-19.879999,104.089996,41.230000,22.03
5590540,0.223504,-0.334280,1.158512,-15.120000,100.099998,37.869999,22.03
5590553,0.179584,-0.321104,1.219024,-10.990000,93.940002,33.880001,22.04
5590564,0.205936,-0.361608,1.238544,-9.450000,86.730003,32.480000,22.04
5590575,0.209840,-0.318176,1.298080,-14.840000,81.970001,32.340000,22.05
5590585,0.193736,-0.370880,1.303936,-18.549999,77.839996,31.290001,22.01
5590596,0.168848,-0.388448,1.299544,-18.830000,74.059998,28.490000,22.01
5590607,0.130296,-0.409920,1.316136,-23.870001,69.650002,27.230000,22.03
5590618,0.097112,-0.431392,1.387872,-33.669998,61.459999,22.540001,22.03
5590629,0.150792,-0.571448,1.497672,-32.410000,58.799999,20.370001,22.05
5590640,0.063928,-0.558272,1.612840,-29.959999,44.799999,18.900000,22.05
5590651,0.125904,-0.541192,1.735328,-27.160000,33.459999,17.290001,22.04
5590662,0.178120,-0.607072,1.753872,-25.270000,25.059999,13.090000,21.98
5590673,0.135664,-0.801296,1.634312,10.430000,19.950001,-0.700000,21.98
5590684,-0.001952,-0.688080,1.455704,25.410000,11.130000,-13.020000,22.03
5590695,-0.063440,-0.504592,1.469856,27.719999,-0.280000,-18.200001,22.03
5590706,0.029768,-0.440664,1.628944,6.930000,-13.440000,-19.600000,22.05
5590718,0.070272,-0.523136,1.785592,-4.340000,-24.430000,-25.270000,22.00
5590729,0.060024,-0.682224,1.881728,5.950000,-40.110001,-37.660000,22.00
5590740,0.032696,-0.668072,1.860256,27.090000,-55.439999,-50.189999,22.05
5590751,0.023424,-0.640256,1.728984,44.590000,-70.209999,-57.330002,22.05
5590762,0.007808,-0.567056,1.584536,59.430000,-83.160004,-59.570000,22.04
5590774,0.001464,-0.372344,1.374208,65.239998,-92.120003,-61.250000,22.04
5590785,0.035136,-0.116144,1.293200,54.669998,-101.919998,-56.630001,22.04
5590796,0.198128,-0.089792,1.266848,31.570000,-102.690002,-50.259998,22.06
5590807,0.246928,-0.129320,1.198528,21.980000,-99.190002,-48.020000,22.06
5590818,0.294264,-0.166896,1.077016,28.280001,-96.809998,-47.040001,22.02
5590829,0.313784,-0.140056,0.963800,35.630001,-93.800003,-46.689999,22.01
5590840,0.301096,-0.101992,0.855952,44.240002,-90.580002,-44.169998,22.01
5590852,0.269864,-0.017080,0.752984,53.970001,-88.129997,-39.480000,22.07
5590863,0.274744,0.062464,0.679296,54.950001,-85.260002,-33.810001,22.07
5590874,0.302072,0.106872,0.642696,50.049999,-81.760002,-25.270000,22.05
5590884,0.324520,0.130296,0.594872,44.099998,-79.800003,-18.480000,22.02
5590896,0.335744,0.119072,0.535824,36.470001,-75.529999,-15.610000,22.02
5590907,0.331352,0.101016,0.518256,30.730000,-71.680000,-13.440000,22.05
5590917,0.322080,0.089792,0.496784,27.230000,-69.300003,-12.320000,22.05
5590928,0.321104,0.072224,0.505568,21.280001,-67.550003,-9.800000,22.06
5590940,0.330376,0.061000,0.496784,16.870001,-64.330002,-8.190000,22.04
5590951,0.337696,0.053680,0.491904,12.110000,-62.720001,-5.530000,22.04
5590962,0.385520,0.006344,0.522160,7.000000,-60.900002,-2.030000,21.99
5590973,0.406504,-0.040504,0.557296,6.230000,-57.750000,-0.980000,21.99
5590984,0.430904,-0.097112,0.571936,10.150000,-55.439999,-0.420000,22.02
5590995,0.454328,-0.120048,0.552904,19.320000,-52.080002,-1.400000,22.02
5591006,0.454328,-0.105408,0.506056,29.750000,-49.840000,-2.590000,22.04
5591017,0.429440,-0.082960,0.438712,33.459999,-46.060001,-6.860000,22.02
5591029,0.487512,-0.052704,0.420168,36.189999,-38.430000,-0.910000,22.02
5591040,0.503128,0.025864,0.393816,28.209999,-31.430000,0.630000,22.02
5591051,0.504592,0.030744,0.379176,19.180000,-26.040001,2.520000,22.02
5591062,0.526064,0.027816,0.370880,8.260000,-16.730000,5.390000,22.03
5591073,0.514352,0.001952,0.370392,2.520000,-9.240000,6.090000,22.04
5591084,0.516304,-0.056120,0.373808,2.450000,0.140000,6.020000,22.04
5591095,0.511424,-0.057096,0.386984,7.210000,7.980000,4.970000,22.00
5591105,0.520208,-0.044408,0.381616,11.760000,17.010000,5.110000,22.00
5591116,0.554368,0.033672,0.395768,8.120000,27.090000,8.330000,22.04
5591127,0.578280,0.072712,0.438712,-4.060000,35.349998,12.740000,22.01
5591138,0.597800,0.120048,0.502640,-19.040001,46.130001,16.660000,22.01
5591149,0.592432,0.139080,0.556320,-33.810001,56.139999,20.930000,22.02
5591160,0.559248,0.086376,0.595848,-49.070000,62.090000,25.830000,22.02
5591171,0.511912,0.007320,0.597312,-55.369999,69.510002,28.070000,22.02
5591181,0.498736,-0.079544,0.590480,-57.189999,76.440002,31.709999,22.02
5591192,0.477264,-0.139568,0.586088,-52.290001,82.809998,33.180000,22.05
5591203,0.454328,-0.217648,0.600240,-44.380001,90.650002,34.230000,22.00
5591214,0.437736,-0.253760,0.640744,-36.610001,98.139999,35.349998,22.00
5591225,0.388936,-0.271328,0.669048,-17.290001,103.389999,30.660000,22.04
5591236,0.326960,-0.239120,0.717848,-0.700000,106.889999,28.420000,22.04
5591248,0.304024,-0.204960,0.748104,8.330000,109.620003,28.629999,22.04
5591259,0.280112,-0.142984,0.788608,9.870000,111.650002,31.290001,22.03
5591270,0.268888,-0.107360,0.919392,-1.470000,111.440002,35.840000,22.03
5591281,0.225944,-0.077592,1.051152,-12.950000,109.129997,37.869999,22.06
5591291,0.212280,-0.112240,1.112152,-23.030001,104.160004,38.150002,22.06
5591302,0.173240,-0.168848,1.138992,-23.309999,101.220001,35.770000,22.05
5591313,0.148840,-0.196664,1.144848,-22.889999,94.500000,35.209999,22.02
5591325,0.162016,-0.241560,1.157048,-21.350000,90.860001,35.770000,22.02
5591336,0.083448,-0.154208,1.229760,-29.889999,82.599998,37.310001,22.05
5591347,0.101504,-0.233264,1.338096,-39.830002,76.019997,40.250000,22.05
5591358,0.045872,-0.292312,1.398608,-42.419998,69.650002,37.029999,22.07
5591372,0.029768,-0.399672,1.440576,-39.970001,56.630001,31.709999,22.00
5591383,0.065392,-0.471408,1.457168,-38.919998,45.290001,28.840000,22.00
5591394,0.069784,-0.506056,1.464000,-34.509998,36.889999,23.170000,22.03
5591405,0.119072,-0.585112,1.401536,-28.490000,33.880001,20.719999,22.03
5591416,0.075152,-0.657336,1.335656,-10.780000,33.669998,12.810000,22.01
5591427,0.048800,-0.748104,1.358592,5.250000,32.060001,2.380000,22.03
5591438,0.016104,-0.667096,1.465464,34.580002,28.070000,-6.300000,22.03
5591448,-0.029768,-0.482632,1.627480,44.099998,12.460000,-9.030000,22.02
5591459,0.051240,-0.391864,1.808528,39.689999,1.120000,-10.850000,22.02
5591470,0.040016,-0.312320,1.895392,27.719999,-10.360000,-13.090000,22.01
5591482,0.069296,-0.206424,1.922720,4.200000,-19.110001,-13.160000,22.01
5591493,0.048800,-0.174704,1.840736,-29.610001,-29.190001,-13.510000,22.01
5591504,0.036112,-0.459208,1.715808,-44.799999,-32.830002,-17.219999,22.04
5591515,0.010736,-0.776408,1.585512,-30.730000,-37.310001,-22.750000,22.04
5591527,-0.008784,-0.822768,1.495232,15.750000,-41.509998,-32.689999,22.01
5591538,-0.061488,-0.543632,1.475712,53.270000,-49.490002,-40.810001,22.00
5591549,0.021960,-0.353312,1.591368,58.029999,-66.220001,-40.740002,22.00
5591560,0.124928,-0.287920,1.651880,49.700001,-77.139999,-41.720001,22.03
5591571,0.096136,-0.108824,1.691408,43.049999,-93.309998,-40.389999,22.03
5591582,0.190320,0.000000,1.676768,23.870001,-125.089996,-39.759998,22.02
5591593,0.195688,-0.008296,1.497184,1.260000,-114.800003,-40.040001,22.05
5591605,0.119560,-0.163480,1.199016,-2.240000,-120.190002,-42.279999,22.05
5591616,0.097600,-0.201056,0.998936,-1.330000,-129.990005,-43.119999,22.04
5591629,0.139568,-0.254248,0.779336,3.150000,-132.440002,-51.099998,22.04
5591640,0.142496,-0.353312,0.521184,28.629999,-126.489998,-54.180000,22.02
5591651,0.174216,-0.355752,0.574376,62.299999,-127.050003,-55.720001,22.01
5591662,0.276696,-0.213256,0.545584,83.440002,-123.410004,-51.380001,22.01
5591673,0.307440,-0.100040,0.510936,101.919998,-119.419998,-51.310001,22.07
5591684,0.314272,0.000976,0.503128,113.680000,-113.750000,-46.340000,22.07
5591695,0.323544,0.116632,0.409920,115.290001,-108.080002,-39.200001,22.06
5591706,0.321104,0.202032,0.317688,107.379997,-101.989998,-30.799999,22.04
5591717,0.316712,0.239608,0.258640,87.779999,-97.160004,-23.940001,22.04
5591728,0.394304,0.222040,0.258152,71.610001,-87.080002,-12.810000,22.04
5591742,0.420656,0.233752,0.248392,49.349998,-74.410004,-6.720000,22.04
5591753,0.418704,0.187392,0.221064,35.980000,-62.439999,-3.710000,22.02
5591764,0.439200,0.164456,0.223504,23.799999,-51.520000,-0.770000,21.99
5591775,0.447984,0.142984,0.228384,12.740000,-41.720001,1.610000,21.99
5591786,0.467992,0.082960,0.239120,5.880000,-31.639999,3.430000,22.02
5591797,0.476288,0.053192,0.269864,3.500000,-21.559999,4.550000,22.02
5591808,0.479704,0.079056,0.312808,0.140000,-14.140000,6.510000,22.00
5591819,0.470432,0.097600,0.351360,-7.560000,-5.880000,7.630000,22.05
5591830,0.460184,0.074176,0.386008,-13.370000,1.610000,8.540000,22.05
5591841,0.444568,0.038552,0.402600,-15.610000,6.090000,8.540000,22.00
5591851,0.450912,-0.009760,0.389912,-13.930000,12.390000,8.680000,22.00
5591863,0.471408,-0.044408,0.380640,-11.060000,19.530001,9.450000,22.03
5591874,0.480192,-0.037088,0.395280,-6.580000,26.530001,9.030000,22.02
5591884,0.474336,-0.020496,0.423096,-5.180000,34.930000,9.450000,22.02
5591895,0.460184,0.019032,0.463600,-7.420000,41.720001,10.920000,22.03
5591906,0.441640,0.035136,0.514840,-10.920000,45.080002,13.160000,22.03
5591917,0.443104,0.044896,0.545584,-15.190000,48.720001,15.540000,22.02
5591928,0.460184,0.030256,0.583160,-18.690001,52.500000,17.080000,22.02
5591939,0.474824,0.017568,0.583160,-23.940001,57.400002,35.700001,22.01
5591949,0.511424,-0.036600,0.585600,-27.719999,62.720001,22.889999,22.01
5591960,0.552904,-0.036112,0.616344,-30.940001,74.760002,21.700001,22.01
5591971,0.424560,-0.006344,0.685640,-36.119999,74.059998,20.090000,22.02
5591982,0.390400,0.036600,0.711016,-50.680000,73.779999,27.230000,22.02
5591993,0.428952,0.023424,0.765184,-64.260002,79.449997,30.379999,22.02
5592004,0.391376,-0.043920,0.796904,-74.199997,79.519997,32.970001,22.02
5592015,0.384544,-0.083936,0.833016,-81.690002,80.290001,35.980000,22.02
5592026,0.376736,-0.132736,0.863760,-85.610001,82.529999,37.240002,22.00
5592037,0.353312,-0.200080,0.869616,-83.930000,84.419998,37.730000,22.00
5592048,0.321592,-0.247416,0.903288,-76.019997,85.610001,38.639999,22.03
5592059,0.274256,-0.256200,0.901824,-64.190002,85.330002,37.869999,22.03
5592070,0.275232,-0.296216,0.938424,-58.099998,85.750000,38.779999,22.01
5592081,0.255712,-0.252784,0.974536,-51.660000,83.510002,38.849998,22.02
5592092,0.223016,-0.314272,1.018456,-48.230000,80.849998,34.580002,22.02
5592103,0.229360,-0.392352,1.065304,-41.299999,80.989998,30.940001,22.04
5592114,0.214720,-0.385032,1.066768,-27.790001,78.540001,30.379999,22.04
5592125,0.221552,-0.367952,1.071648,-18.410000,77.559998,28.000000,21.99
5592135,0.183000,-0.385520,1.111664,-7.840000,76.580002,24.010000,22.02
5592147,0.175680,-0.375760,1.175592,0.840000,73.500000,23.379999,22.02
5592157,0.142008,-0.343064,1.209264,8.470000,70.349998,20.230000,22.08
5592168,0.094184,-0.255712,1.263920,6.160000,63.560001,18.620001,22.08
5592179,0.105408,-0.268888,1.327848,-2.380000,57.400002,17.850000,22.04
5592190,0.110288,-0.271816,1.367376,-6.650000,51.520000,15.540000,21.96
5592201,0.117120,-0.277672,1.404952,-12.460000,43.680000,15.820000,21.96
5592212,0.153720,-0.350872,1.394216,-14.070000,40.950001,14.840000,21.99
5592223,0.102968,-0.346480,1.356152,-12.460000,36.889999,14.280000,21.99
5592234,0.118584,-0.368928,1.302472,-12.460000,33.950001,13.510000,22.06
5592245,0.092720,-0.391376,1.313208,-11.690000,32.200001,11.480000,22.06
5592256,0.044408,-0.422120,1.356152,-6.370000,26.320000,10.500000,22.01
5592267,0.037576,-0.446032,1.376648,-0.210000,20.719999,7.140000,22.02
5592278,0.046848,-0.464088,1.410320,1.400000,13.230000,6.650000,22.02
5592289,0.084424,-0.513376,1.458632,3.010000,8.820000,2.170000,22.00
5592299,0.051728,-0.539240,1.497184,15.050000,3.850000,-2.800000,22.00
5592310,0.035136,-0.520696,1.498648,24.430000,-4.130000,-7.140000,22.00
5592321,0.028304,-0.516304,1.456680,42.910000,-7.210000,-14.910000,22.00
5592332,-0.028304,-0.426512,1.438136,61.669998,-14.420000,-17.990000,22.00
5592344,-0.003904,-0.217160,1.500112,53.549999,-29.049999,-17.850000,21.99
5592355,0.087840,-0.247416,1.580144,39.410000,-35.139999,-19.110001,21.99
5592366,0.067344,-0.292800,1.561600,30.660000,-41.790001,-21.559999,22.00
5592377,0.066856,-0.325496,1.492304,30.170000,-50.540001,-22.750000,22.02
5592388,0.049288,-0.302072,1.442528,33.459999,-58.240002,-25.480000,22.02
5592399,0.043920,-0.262544,1.442528,29.469999,-67.059998,-24.219999,21.99
5592410,0.064904,-0.248392,1.430816,27.510000,-72.870003,-22.959999,21.99
5592421,0.057584,-0.241560,1.380064,30.870001,-79.730003,-24.780001,21.99
5592432,0.063440,-0.239120,1.382992,32.900002,-88.269997,-26.250000,21.99
5592443,0.087352,-0.228872,1.420568,33.599998,-95.269997,-26.950001,22.02
5592454,0.116144,-0.223504,1.453752,30.379999,-106.050003,-26.040001,22.01
5592465,0.131272,-0.197152,1.437648,33.389999,-117.040001,-28.700001,22.01
5592476,0.148840,-0.174704,1.371768,31.010000,-127.330002,-28.209999,22.02
5592487,0.138104,-0.147864,1.268800,30.170000,-132.300003,-29.260000,22.02
5592498,0.137128,-0.137128,1.189256,28.700001,-139.720001,-29.400000,22.00
5592509,0.154208,-0.167384,1.111176,33.459999,-145.669998,-31.290001,22.01
5592520,0.161040,-0.120536,1.018944,38.990002,-150.009995,-30.590000,22.01
5592531,0.179584,-0.086864,0.934520,44.169998,-154.490005,-30.450001,21.98
5592542,0.239608,-0.083448,0.865712,49.910000,-154.979996,-28.209999,21.98
5592553,0.274744,-0.035624,0.786656,54.459999,-154.839996,-25.830000,21.99
5592564,0.308416,0.013176,0.719800,57.189999,-154.559998,-22.540001,22.02
5592575,0.330376,0.038064,0.609024,60.060001,-149.660004,-19.950001,22.02
5592586,0.316224,0.051728,0.495808,62.580002,-146.020004,-17.639999,22.01
5592597,0.386984,0.108824,0.403088,57.889999,-132.160004,-14.280000,22.01
5592608,0.372344,0.113216,0.278648,53.270000,-126.559998,-8.750000,22.04
5592619,0.435296,0.117608,0.222528,46.060001,-115.010002,-4.270000,21.96
5592630,0.466040,0.105896,0.161040,40.459999,-104.019997,-0.980000,21.96
5592641,0.511912,0.070760,0.135664,32.970001,-91.349998,0.280000,22.03
5592652,0.536312,0.038552,0.139568,28.980000,-76.930000,3.290000,22.03
5592663,0.537288,0.055144,0.137128,24.639999,-63.980000,5.040000,22.03
5592673,0.539240,0.048312,0.135176,18.059999,-54.529999,5.390000,22.03
5592685,0.548024,0.040016,0.136152,12.950000,-43.330002,8.120000,22.01
5592696,0.556320,0.022936,0.127368,8.050000,-31.920000,8.260000,22.00
5592707,0.559736,-0.016592,0.124928,2.240000,-22.680000,8.470000,22.00
5592718,0.571448,-0.048800,0.131760,0.070000,-9.940000,7.770000,22.02
5592728,0.585112,-0.066856,0.151280,-2.660000,3.850000,6.160000,22.02
5592739,0.578768,-0.098088,0.166896,-4.060000,13.440000,3.710000,21.99
5592750,0.573888,-0.135176,0.200080,-1.050000,24.010000,1.750000,22.03
5592761,0.567056,-0.136152,0.225456,3.710000,34.020000,-1.190000,22.03
5592772,0.568032,-0.142496,0.265960,5.880000,42.070000,-3.010000,22.01
5592783,0.582184,-0.125904,0.313784,8.960000,49.070000,-4.900000,22.01
5592794,0.581696,-0.093208,0.352824,9.870000,57.049999,-6.580000,22.01
5592805,0.581208,-0.051240,0.389424,8.120000,64.400002,-7.560000,22.01
5592816,0.579744,-0.003416,0.444568,-0.560000,68.599998,-6.510000,22.00
5592827,0.570960,0.015616,0.483608,-10.710000,73.430000,-6.160000,22.03
5592838,0.553392,0.047336,0.538264,-20.299999,76.930000,-4.130000,22.03
5592849,0.549000,0.047824,0.601704,-32.270000,79.660004,-2.520000,22.03
5592860,0.528016,0.076616,0.651968,-42.070000,84.769997,2.030000,22.03
5592871,0.603168,0.085400,0.670024,-49.000000,91.139999,1.610000,22.02
5592881,0.457256,0.027328,0.630008,-56.840000,87.220001,0.420000,22.02
5592892,0.509960,-0.006832,0.621224,-64.190002,90.860001,7.490000,22.02
5592903,0.508496,-0.003904,0.671488,-65.800003,100.519997,7.980000,22.03
5592914,0.475800,0.001464,0.717360,-69.790001,102.620003,12.740000,22.03
5592925,0.406016,0.028304,0.767136,-76.720001,101.989998,14.350000,22.00
5592936,0.399184,-0.046360,0.808616,-76.720001,103.180000,17.219999,22.00
5592947,0.415288,-0.089792,0.838384,-74.269997,104.230003,20.160000,22.01
5592958,0.413824,-0.111264,0.880352,-74.269997,105.000000,24.080000,22.00
5592969,0.392840,-0.100528,0.943792,-74.550003,105.279999,30.379999,22.00
5592980,0.365512,-0.070272,0.977952,-79.800003,103.320000,31.150000,22.00
5592991,0.295728,-0.064904,1.017968,-86.800003,99.959999,32.130001,22.00
5593002,0.251808,-0.160552,1.046272,-90.300003,95.059998,35.490002,21.98
5593013,0.269376,-0.295240,1.070672,-86.029999,91.699997,32.200001,21.93
5593024,0.304024,-0.390400,1.077992,-74.129997,89.949997,33.320000,21.93
5593035,0.293288,-0.399184,1.127280,-60.060001,88.339996,33.669998,22.01
5593046,0.225944,-0.390888,1.184376,-47.250000,85.190002,30.799999,22.01
5593057,0.184952,-0.422120,1.231712,-34.860001,79.449997,26.250000,22.00
5593068,0.161040,-0.417240,1.245376,-19.670000,74.410004,23.240000,22.02
5593079,0.164456,-0.405040,1.214632,-5.320000,68.110001,18.969999,22.02
5593090,0.154208,-0.362584,1.190720,0.910000,63.139999,17.850000,22.02
5593101,0.173728,-0.304024,1.248792,1.680000,59.220001,18.200001,22.02
5593112,0.172752,-0.245464,1.314672,-7.280000,53.619999,18.690001,22.04
5593123,0.180072,-0.326472,1.397144,-12.810000,48.790001,18.059999,22.04
5593133,0.160552,-0.373320,1.362496,-9.730000,45.009998,15.750000,21.98
5593144,0.122488,-0.347944,1.321504,-7.000000,38.080002,14.000000,22.01
5593155,0.142008,-0.366976,1.279536,-12.530000,32.410000,14.420000,22.01
5593166,0.133224,-0.384056,1.269288,-15.820000,29.400000,14.280000,22.01
5593177,0.092720,-0.387472,1.314672,-17.780001,24.360001,11.970000,22.01
5593188,0.112728,-0.434320,1.339072,-20.510000,19.110001,11.690000,22.04
5593199,0.131760,-0.560712,1.327360,-9.800000,16.940001,6.300000,22.01
5593210,0.073688,-0.570960,1.329800,9.030000,12.670000,1.050000,22.01
5593221,0.067832,-0.479216,1.347368,21.070000,4.410000,-2.240000,22.06
5593232,0.057096,-0.391864,1.395192,17.990000,-3.780000,-2.240000,22.06
5593243,0.086376,-0.428464,1.428864,14.420000,-9.450000,-6.020000,21.98
5593254,0.089792,-0.492880,1.450336,21.350000,-16.030001,-10.360000,22.00
5593266,0.098088,-0.517768,1.465952,31.639999,-24.780001,-15.330000,22.00
5593277,0.106384,-0.506544,1.445944,45.709999,-30.940001,-22.049999,22.04
5593288,0.081008,-0.404552,1.384944,67.199997,-36.049999,-27.160000,22.04
5593299,0.058072,-0.253272,1.372256,70.139999,-46.549999,-26.809999,22.05
5593310,0.089304,-0.177632,1.378112,54.320000,-54.950001,-23.240000,22.03
5593321,0.085888,-0.148840,1.379088,40.250000,-63.070000,-21.910000,22.03
5593332,0.120048,-0.207888,1.401048,29.469999,-70.070000,-23.940001,22.04
5593343,0.137616,-0.206912,1.398608,19.670000,-77.839996,-24.150000,22.04
5593354,0.151768,-0.276696,1.351760,14.840000,-84.279999,-25.690001,22.03
5593365,0.128832,-0.331840,1.289784,21.490000,-91.980003,-28.280001,22.03
5593376,0.136640,-0.283040,1.272704,26.879999,-98.769997,-27.860001,22.00
5593387,0.141032,-0.251320,1.262944,30.100000,-105.980003,-30.660000,22.02
5593398,0.163968,-0.212768,1.253672,31.010000,-112.839996,-30.520000,22.02
5593409,0.187880,-0.185440,1.225368,28.700001,-119.629997,-30.030001,22.05
5593420,0.200568,-0.178120,1.171200,29.190001,-124.250000,-31.570000,22.05
5593431,0.228872,-0.135664,1.143384,26.809999,-130.199997,-30.030001,22.02
5593442,0.248880,-0.141032,1.063840,27.440001,-132.580002,-29.959999,21.98
5593454,0.244976,-0.084912,0.942816,24.500000,-133.279999,-28.840000,21.98
5593465,0.244488,-0.066856,0.844728,21.490000,-133.979996,-27.160000,21.99
5593476,0.273280,-0.060024,0.816912,19.250000,-134.259995,-25.340000,21.99
5593487,0.329400,-0.045872,0.805200,17.290001,-133.490005,-21.700001,22.02
5593498,0.366488,-0.042456,0.765672,17.290001,-130.690002,-19.740000,22.01
5593509,0.389424,-0.067832,0.696376,19.670000,-127.470001,-18.549999,22.01
5593520,0.419192,-0.069296,0.620248,25.129999,-122.989998,-18.270000,22.02
5593531,0.482144,-0.048800,0.572912,27.860001,-112.209999,-19.600000,22.02
5593542,0.456768,-0.061976,0.482144,29.959999,-110.529999,-16.520000,22.02
5593553,0.508008,-0.075640,0.393328,35.560001,-102.059998,-14.840000,22.02
5593564,0.511912,-0.029280,0.326472,38.639999,-91.209999,-13.440000,22.02
5593575,0.520208,0.037088,0.273768,34.439999,-83.230003,-9.730000,22.00
5593586,0.548512,0.055144,0.274256,28.420000,-73.709999,-5.530000,22.00
5593597,0.551440,0.071248,0.271816,20.860001,-65.029999,-2.940000,21.99
5593608,0.586576,0.065392,0.257664,15.610000,-52.990002,-0.350000,21.99
5593619,0.580232,0.041968,0.240584,9.450000,-45.430000,1.750000,22.02
5593629,0.605120,0.009760,0.238632,3.010000,-35.000000,2.520000,21.99
5593640,0.611464,-0.046848,0.219600,3.360000,-23.309999,3.010000,21.99
5593651,0.620736,-0.061488,0.207400,2.940000,-14.070000,3.220000,22.01
5593662,0.621224,-0.093696,0.207400,5.880000,-1.330000,2.240000,22.01
5593673,0.604144,-0.103456,0.211792,10.640000,9.940000,0.840000,22.01
5593684,0.598288,-0.111264,0.237168,14.840000,17.780001,0.140000,22.00
5593695,0.598288,-0.108336,0.267912,20.020000,27.160000,-0.630000,22.00
5593706,0.588528,-0.091256,0.292800,22.750000,35.349998,-2.240000,21.98
5593717,0.622200,-0.069296,0.324520,23.309999,43.680000,-1.120000,21.98
5593728,0.612928,-0.034160,0.371856,18.549999,50.259998,-0.630000,22.00
5593739,0.605120,-0.003416,0.428464,10.360000,55.650002,0.070000,22.01
5593750,0.593896,0.015616,0.473848,4.410000,61.950001,1.400000,22.01
5593761,0.584624,0.027328,0.510936,-4.830000,65.099998,3.570000,22.00
5593772,0.576816,0.028792,0.541192,-14.280000,69.019997,4.970000,22.00
