timestamp_ms,ax,ay,az,gx,gy,gz,tempC
5946831,0.117608,0.135176,1.077016,25.549999,-1.050000,32.060001,21.05
5946842,0.158112,0.142008,1.051640,49.630001,0.210000,33.320000,21.05
5946853,0.015128,0.289872,1.283928,50.330002,31.850000,14.070000,21.11
5946864,-0.671488,0.737368,1.292712,61.459999,5.950000,32.060001,21.11
5946875,0.296216,0.488000,1.341024,44.380001,-8.190000,52.639999,21.11
5946886,0.003416,0.391864,1.275144,46.410000,-5.670000,47.040001,21.11
5946897,-0.024400,0.624640,1.214632,24.709999,-10.150000,61.110001,21.07
5946908,0.040016,0.510448,1.169248,-4.830000,-19.459999,63.910000,21.11
5946919,0.125416,0.474824,1.167296,-32.480000,-15.610000,64.750000,21.11
5946930,0.101016,0.457256,1.104344,-48.439999,-19.459999,74.059998,21.10
5946941,0.126392,0.403576,1.032608,-56.209999,-21.559999,78.260002,21.10
5946952,0.157624,0.326960,1.035536,-53.759998,-20.930000,78.680000,21.07
5946963,0.161040,0.276696,1.035536,-45.709999,-20.580000,79.730003,21.13
5946974,0.178120,0.205936,1.021384,-36.189999,-21.559999,77.910004,21.13
5946984,0.204472,0.184952,1.023336,-23.379999,-22.610001,76.230003,21.10
5946996,0.226920,0.231800,1.019432,-22.190001,-23.799999,74.760002,21.10
5947007,0.265472,0.171776,0.986248,-23.379999,-22.049999,70.910004,21.07
5947017,0.276208,0.117608,0.962336,-22.610001,-20.930000,68.669998,21.09
5947028,0.273768,0.120048,0.962336,-21.490000,-20.930000,65.870003,21.09
5947040,0.281088,0.149328,0.982832,-26.110001,-21.420000,63.419998,21.07
5947051,0.265960,0.169336,0.981368,-22.750000,-21.420000,60.270000,21.07
5947061,0.278648,0.168360,0.993568,-22.680000,-23.590000,58.520000,21.12
5947072,0.277672,0.173240,0.994544,-22.400000,-25.270000,56.840000,21.12
5947083,0.314760,0.156648,0.960384,-31.430000,-27.090000,56.070000,21.10
5947094,0.340624,0.079544,0.938912,-33.950001,-25.620001,55.160000,21.08
5947105,0.333792,0.050264,0.905240,-31.709999,-24.500000,53.060001,21.08
5947116,0.344040,0.040016,0.878400,-30.100000,-23.100000,52.150002,21.11
5947127,0.319640,0.000000,0.892064,-26.110001,-22.469999,49.419998,21.11
5947138,0.299632,-0.010248,0.904264,-18.410000,-22.049999,46.619999,21.09
5947149,0.290848,0.016104,0.886696,-9.800000,-22.330000,46.619999,21.05
5947160,0.312320,0.021472,0.857416,-3.150000,-23.030001,46.060001,21.05
5947171,0.340624,0.046360,0.853512,0.980000,-20.160000,42.279999,21.09
5947182,0.329400,0.090768,0.882792,0.350000,-19.600000,41.369999,21.09
5947193,0.331840,0.111752,0.894504,-5.390000,-21.070000,43.189999,21.11
5947205,0.340136,0.129320,0.881816,-14.280000,-19.950001,43.889999,21.10
5947215,0.331840,0.097112,0.879864,-19.459999,-20.160000,43.889999,21.10
5947226,0.330376,0.058560,0.879864,-17.080000,-19.879999,42.419998,21.09
5947237,0.330376,0.051240,0.874496,-10.710000,-20.440001,42.279999,21.09
5947248,0.340624,0.065880,0.846680,-9.450000,-19.879999,42.000000,21.11
5947260,0.338184,0.039040,0.787144,-7.140000,-16.379999,41.299999,21.11
5947271,0.341112,0.018544,0.733952,-3.010000,-14.000000,41.650002,21.12
5947282,0.338672,0.007808,0.702720,2.380000,-10.710000,41.090000,21.06
5947293,0.345504,0.025864,0.685152,6.510000,-6.440000,40.880001,21.06
5947306,0.342576,0.101016,0.667584,3.780000,-1.470000,41.439999,21.07
5947318,0.349896,0.089304,0.656848,-2.310000,3.500000,42.840000,21.11
5947329,0.362096,0.087352,0.645624,-12.320000,9.380000,45.360001,21.11
5947340,0.371368,0.044896,0.644160,-21.000000,15.610000,46.410000,21.11
5947351,0.360632,0.028792,0.500200,-24.500000,21.980000,47.320000,21.11
5947362,0.366000,0.007808,0.596824,-28.280001,29.330000,48.650002,21.07
5947373,0.360144,-0.070272,0.585600,-26.670000,37.029999,47.250000,21.09
5947384,0.332328,-0.079056,0.604144,-27.719999,44.660000,48.650002,21.09
5947395,0.336720,-0.134688,0.644648,-32.549999,49.980000,49.279999,21.13
5947406,0.324032,-0.186416,0.695888,-35.560001,56.490002,47.529999,21.13
5947417,0.309392,-0.231800,0.786168,-38.080002,60.200001,46.549999,21.06
5947428,0.298656,-0.283528,0.902800,-31.780001,63.910000,43.259998,21.09
5947439,0.270840,-0.296704,1.008696,-27.510000,64.610001,41.160000,21.09
5947450,0.252784,-0.308904,1.115080,-24.570000,64.540001,37.240002,21.05
5947461,0.223992,-0.302560,1.191208,-26.180000,62.160000,36.119999,21.05
5947472,0.214232,-0.322080,1.281000,-30.170000,57.750000,33.950001,21.07
5947484,0.182024,-0.340624,1.404464,-36.330002,51.939999,30.379999,21.09
5947495,0.129320,-0.370880,1.527928,-39.900002,40.740002,27.160000,21.09
5947506,0.116144,-0.404064,1.630408,-40.880001,30.730000,21.840000,21.06
5947518,0.111264,-0.448960,1.691408,-35.560001,13.860000,16.170000,21.06
5947529,0.123952,-0.497272,1.729960,-28.280001,2.450000,10.150000,21.11
5947540,0.133712,-0.483120,1.743624,-18.410000,-11.830000,5.320000,21.09
5947554,0.139080,-0.465064,1.704584,-4.760000,-27.230000,-2.170000,21.09
5947566,0.133224,-0.434808,1.616256,8.400000,-39.130001,-8.820000,21.10
5947578,0.144936,-0.359168,1.584536,16.660000,-50.889999,-11.760000,21.07
5947589,0.172264,-0.322568,1.565992,20.090000,-60.270000,-14.000000,21.07
5947600,0.174704,-0.302072,1.540616,24.850000,-70.209999,-15.050000,21.13
5947612,0.183000,-0.263032,1.502552,31.010000,-79.029999,-17.709999,21.13
5947623,0.196176,-0.179584,1.455704,35.139999,-86.099998,-18.340000,21.05
5947634,0.217648,-0.145912,1.412760,35.980000,-92.889999,-17.780001,21.10
5947645,0.216184,-0.061976,1.368840,30.100000,-99.610001,-14.910000,21.10
5947656,0.212768,-0.010736,1.323456,22.610001,-106.750000,-12.040000,21.09
5947667,0.222040,-0.002440,1.281488,12.250000,-112.000000,-9.870000,21.09
5947678,0.229848,-0.001464,1.243912,2.800000,-117.879997,-8.820000,21.09
5947689,0.248392,-0.029280,1.176080,-3.500000,-123.620003,-7.280000,21.09
5947700,0.252784,-0.057584,1.115080,-7.210000,-126.629997,-7.350000,21.08
5947711,0.269376,-0.063440,1.061888,-7.420000,-130.899994,-6.300000,21.07
5947723,0.286456,-0.065392,0.991616,-4.270000,-133.279999,-6.580000,21.07
5947734,0.308416,-0.063440,0.927200,1.470000,-133.699997,-6.580000,21.10
5947745,0.329888,-0.038064,0.834968,5.530000,-132.580002,-5.180000,21.10
5947756,0.338672,-0.016592,0.742736,6.440000,-130.619995,-3.290000,21.11
5947767,0.348920,-0.012200,0.705648,3.150000,-128.869995,-1.190000,21.05
5947779,0.362096,0.123952,0.665144,3.010000,-125.930000,0.490000,21.05
5947790,0.373320,0.033184,0.616832,-1.820000,-124.180000,2.240000,21.09
5947801,0.409920,-0.033184,0.550952,-2.590000,-120.540001,1.960000,21.09
5947812,0.436272,-0.073688,0.468480,1.610000,-115.500000,1.750000,21.12
5947822,0.455304,-0.080032,0.418704,5.530000,-109.830002,2.170000,21.07
5947833,0.492880,-0.081984,0.358192,10.220000,-101.290001,2.520000,21.07
5947844,0.506056,-0.053192,0.326472,10.360000,-94.220001,3.640000,21.09
5947855,0.509472,-0.061000,0.280112,11.620000,-85.400002,3.290000,21.09
5947866,0.515328,-0.042456,0.245952,9.940000,-76.440002,3.430000,21.12
5947877,0.531432,-0.051240,0.208864,5.950000,-66.989998,3.500000,21.11
5947889,0.557784,-0.097112,0.175680,2.800000,-57.820000,3.080000,21.11
5947900,0.548024,-0.116632,0.122488,3.570000,-45.990002,1.470000,21.07
5947911,0.541680,-0.148352,0.088328,7.840000,-34.650002,-0.630000,21.07
5947922,0.538264,-0.141520,0.064416,10.430000,-23.100000,-2.100000,21.10
5947935,0.549000,-0.173240,0.063440,16.240000,-11.830000,-3.780000,21.08
5947946,0.558272,-0.137128,0.083448,19.600000,-0.140000,-3.780000,21.08
5947957,0.549000,-0.136640,0.116632,24.080000,11.970000,-5.740000,21.09
5947968,0.522160,-0.121512,0.126392,32.060001,21.139999,-6.930000,21.09
5947979,0.497760,-0.068320,0.128832,38.080002,31.150000,-6.790000,21.09
5947990,0.496784,-0.011712,0.137128,35.910000,39.970001,-5.040000,21.07
5948001,0.516792,0.034648,0.175192,25.620001,47.529999,-2.520000,21.07
5948011,0.528992,0.027328,0.215696,15.050000,58.660000,-1.190000,21.09
5948023,0.517768,0.015616,0.279624,6.370000,67.480003,0.490000,21.09
5948034,0.515816,0.006832,0.339648,0.140000,74.480003,1.820000,21.07
5948045,0.508984,-0.036112,0.382592,-4.970000,78.889999,3.220000,21.10
5948056,0.519232,-0.054168,0.416264,-6.300000,84.000000,5.180000,21.10
5948066,0.511424,-0.034160,0.422608,-6.720000,90.790001,6.020000,21.09
5948077,0.493368,-0.035624,0.431392,-7.490000,94.989998,6.790000,21.09
5948088,0.485072,-0.045384,0.473848,-7.980000,100.309998,7.700000,21.12
5948099,0.476776,-0.021960,0.574864,-12.180000,102.410004,10.220000,21.12
5948110,0.455792,0.010736,0.712968,-17.920000,103.949997,19.809999,21.12
5948122,0.509960,0.053192,0.817888,-25.830000,109.900002,17.360001,21.05
5948133,0.358680,-0.057096,0.788608,-29.260000,104.440002,16.379999,21.05
5948143,0.409432,-0.106872,0.755424,-29.889999,109.129997,21.139999,21.12
5948154,0.414312,-0.047824,0.758840,-28.280001,112.980003,22.049999,21.12
5948165,0.358192,-0.062952,0.808128,-31.290001,111.860001,24.150000,21.11
5948176,0.372344,-0.075640,0.895968,-34.020000,111.510002,28.209999,21.11
5948187,0.365512,-0.143960,0.996984,-28.139999,110.669998,28.559999,21.11
5948198,0.348432,-0.108336,1.087264,-21.559999,107.870003,27.510000,21.11
5948209,0.352336,-0.146888,1.126304,-17.990000,104.930000,27.160000,21.11
5948221,0.360144,0.006832,1.360056,-10.220000,107.239998,27.299999,21.08
5948232,0.316712,-0.195200,1.100440,-11.480000,103.110001,27.790001,21.12
5948243,0.274256,-0.172264,1.159488,-14.210000,100.449997,30.379999,21.12
5948254,0.270352,-0.199592,1.280024,-18.480000,96.529999,31.360001,21.15
5948265,0.234240,-0.262056,1.387384,-17.639999,88.690002,29.750000,21.15
5948276,0.242536,-0.351360,1.478640,-13.650000,83.089996,26.250000,21.09
5948287,0.244488,-0.387960,1.546472,-4.270000,75.529999,24.219999,21.07
5948298,0.218136,-0.378200,1.604544,2.940000,67.410004,20.370001,21.07
5948309,0.173240,-0.365024,1.684576,4.340000,57.049999,17.709999,21.08
5948320,0.143472,-0.391376,1.777784,3.990000,46.549999,14.910000,21.08
5948331,0.131760,-0.396256,1.853424,6.650000,30.870001,12.600000,21.09
5948342,0.148352,-0.404552,1.867576,10.010000,15.960000,8.050000,21.09
5948353,0.146400,-0.390400,1.857328,13.300000,4.690000,2.870000,21.07
5948364,0.145424,-0.348920,1.840736,11.130000,-10.150000,0.630000,21.12
5948375,0.151768,-0.333304,1.829024,5.810000,-23.309999,-2.100000,21.12
5948386,0.161528,-0.370880,1.823656,4.340000,-36.540001,-6.720000,21.11
5948397,0.173728,-0.375760,1.778272,7.560000,-47.320000,-10.360000,21.11
5948408,0.189344,-0.363072,1.723616,12.250000,-59.570000,-13.370000,21.07
5948419,0.189832,-0.308904,1.659688,14.140000,-70.139999,-16.170000,21.06
5948430,0.190320,-0.251320,1.608448,12.460000,-81.339996,-17.709999,21.06
5948441,0.190808,-0.219112,1.545008,9.940000,-89.180000,-19.809999,21.11
5948452,0.180560,-0.167872,1.475712,6.720000,-99.050003,-20.160000,21.11
5948463,0.196176,-0.124928,1.423496,0.490000,-108.010002,-19.809999,21.12
5948475,0.216184,-0.112240,1.344928,-3.290000,-114.730003,-19.809999,21.11
5948486,0.222040,-0.102480,1.269776,-6.370000,-119.980003,-19.110001,21.11
5948498,0.231800,-0.083448,1.206824,-7.700000,-125.720001,-17.500000,21.10
5948510,0.246440,-0.082960,1.128256,-6.860000,-129.990005,-17.920000,21.10
5948521,0.255712,-0.099064,1.029680,-4.480000,-132.440002,-17.639999,21.10
5948532,0.263520,-0.113216,0.919880,2.590000,-134.610001,-17.219999,21.11
5948544,0.289872,-0.102480,0.835456,8.190000,-136.080002,-15.820000,21.11
5948555,0.328912,-0.083448,0.761280,11.200000,-134.750000,-14.070000,21.12
5948567,0.352336,-0.032696,0.701256,10.920000,-134.050003,-11.130000,21.13
5948579,0.384056,-0.041968,0.625616,10.150000,-131.389999,-10.850000,21.13
5948590,0.407480,-0.040504,0.546560,8.960000,-127.120003,-8.680000,21.09
5948602,0.424560,-0.027816,0.467504,6.020000,-121.870003,-7.000000,21.09
5948612,0.438712,0.014152,0.424072,-0.350000,-116.339996,-3.570000,21.09
5948624,0.457256,0.019032,0.367952,-10.010000,-109.410004,0.210000,21.09
5948635,0.480192,-0.006344,0.326472,-18.200001,-103.599998,2.450000,21.09
5948646,0.513376,-0.038552,0.294264,-23.100000,-95.339996,3.430000,21.08
5948657,0.533872,-0.084912,0.272792,-23.940001,-86.099998,4.340000,21.08
5948668,0.548512,-0.120536,0.238632,-21.420000,-76.580002,4.270000,21.10
5948679,0.550952,-0.152256,0.215696,-16.170000,-69.160004,3.990000,21.09
5948690,0.566568,-0.163968,0.212768,-11.410000,-59.639999,4.480000,21.09
5948702,0.564128,-0.179096,0.202520,-5.110000,-50.400002,3.430000,21.13
5948713,0.583648,-0.194224,0.185928,1.470000,-41.439999,2.170000,21.13
5948724,0.589504,-0.206912,0.157624,10.850000,-33.180000,-0.770000,21.09
5948735,0.618784,-0.204960,0.135664,19.600000,-22.610001,0.210000,21.07
5948745,0.585112,-0.157136,0.120048,23.100000,-12.040000,-0.140000,21.07
5948756,0.596336,-0.128344,0.124440,23.730000,-2.800000,0.350000,21.07
5948768,0.584624,-0.110776,0.139080,22.120001,6.650000,-1.050000,21.07
5948779,0.608048,-0.108336,0.140056,23.379999,17.850000,2.310000,21.11
5948789,0.596336,-0.112240,0.154208,22.120001,27.650000,2.450000,21.11
5948800,0.598288,-0.147376,0.162992,22.750000,36.189999,2.590000,21.07
5948811,0.592432,-0.135176,0.183000,23.520000,46.270000,2.800000,21.12
5948822,0.595360,-0.128832,0.212280,21.910000,53.619999,3.710000,21.12
5948833,0.582672,-0.117120,0.249368,19.320000,63.070000,3.640000,21.09
5948844,0.568520,-0.116632,0.302560,15.680000,70.769997,5.460000,21.09
5948855,0.551928,-0.120048,0.352824,14.070000,77.699997,5.810000,21.11
5948866,0.527528,-0.102480,0.397720,12.040000,81.620003,6.580000,21.05
5948877,0.532896,-0.087352,0.449448,7.210000,86.099998,7.770000,21.05
5948888,0.538264,-0.103944,0.472872,4.060000,91.489998,7.980000,21.12
5948899,0.533384,-0.120048,0.506056,3.780000,97.510002,8.330000,21.12
5948910,0.510448,-0.083936,0.564616,-2.940000,101.290001,10.710000,21.08
5948921,0.476288,-0.081984,0.627568,-7.490000,103.529999,11.900000,21.08
5948932,0.461160,-0.081496,0.688568,-11.200000,103.949997,12.740000,21.05
5948943,0.469456,-0.103944,0.708088,-11.550000,105.629997,10.080000,21.08
5948954,0.404552,-0.121024,0.847168,-8.330000,106.820000,9.310000,21.08
5948965,0.395768,-0.144448,0.760304,-13.790000,109.970001,15.330000,21.13
5948975,0.416752,-0.107360,0.818864,-13.090000,114.660004,14.980000,21.13
5948986,0.295728,-0.096136,0.857416,-16.100000,108.779999,15.330000,21.10
5948997,0.305976,-0.107360,0.904264,-17.709999,108.849998,15.820000,21.11
5949008,0.294264,-0.156648,0.933544,-15.470000,105.349998,15.890000,21.11
5949019,0.318176,-0.188856,0.953064,-9.450000,103.809998,15.680000,21.09
5949030,0.319152,-0.172752,0.967216,-5.040000,102.059998,14.910000,21.09
5949041,0.329400,-0.155672,1.041392,-8.120000,100.730003,18.059999,21.07
5949052,0.292312,-0.157624,1.127768,-8.050000,97.160004,16.379999,21.05
5949063,0.249368,-0.174216,1.192184,-10.080000,92.680000,17.010000,21.05
5949074,0.196176,-0.151768,1.233176,-8.680000,85.120003,17.360001,21.14
5949085,0.181048,-0.144448,1.242448,-17.290001,77.000000,18.760000,21.14
5949096,0.208376,-0.225456,1.257088,-20.510000,71.610001,18.830000,21.05
5949107,0.221552,-0.246928,1.315160,-23.030001,63.630001,19.809999,21.05
5949118,0.249856,-0.351848,1.414224,-21.629999,59.220001,15.330000,21.07
5949129,0.240584,-0.375272,1.474736,-9.660000,53.270000,11.130000,21.14
5949140,0.225944,-0.422608,1.509872,1.260000,45.009998,6.930000,21.14
5949151,0.211792,-0.450912,1.545008,14.420000,38.849998,2.310000,21.11
5949162,0.197640,-0.391376,1.569408,24.570000,32.130001,-0.280000,21.11
5949173,0.193736,-0.360632,1.589904,27.299999,24.570000,-2.940000,21.13
5949184,0.188368,-0.310368,1.614792,23.100000,16.170000,-3.010000,21.09
5949196,0.196664,-0.303536,1.656272,15.750000,7.560000,-2.450000,21.09
5949207,0.197152,-0.294264,1.720688,11.200000,1.260000,-3.920000,21.11
5949218,0.172752,-0.293288,1.735816,8.610000,-9.520000,-5.880000,21.11
5949229,0.162016,-0.315248,1.734840,8.260000,-16.870001,-8.820000,21.10
5949240,0.176656,-0.259616,1.743624,6.370000,-28.139999,-9.870000,21.06
5949251,0.188856,-0.282064,1.693848,1.750000,-36.680000,-12.250000,21.06
5949262,0.184952,-0.297680,1.600640,1.680000,-43.330002,-13.650000,21.08
5949273,0.186904,-0.285968,1.534272,1.190000,-51.660000,-14.350000,21.08
5949284,0.191784,-0.268888,1.485960,1.960000,-58.450001,-15.470000,21.11
5949295,0.188856,-0.235704,1.465464,2.310000,-64.610001,-15.540000,21.13
5949307,0.205936,-0.218624,1.444968,2.030000,-71.540001,-15.890000,21.13
5949318,0.209840,-0.200080,1.413248,2.450000,-77.980003,-16.730000,21.08
5949329,0.203008,-0.194712,1.366888,4.270000,-84.070000,-18.059999,21.08
5949340,0.206424,-0.144936,1.333704,3.920000,-89.879997,-16.870001,21.15
5949351,0.213256,-0.145424,1.296128,2.870000,-96.809998,-17.639999,21.08
5949362,0.229848,-0.151768,1.242936,3.290000,-102.900002,-17.850000,21.08
5949373,0.250344,-0.139080,1.184864,2.730000,-109.550003,-17.709999,21.10
5949384,0.278160,-0.156160,1.103368,3.430000,-114.029999,-17.780001,21.10
5949396,0.286456,-0.143960,1.036512,5.110000,-116.760002,-17.850000,21.13
5949407,0.292312,-0.118584,0.994544,4.410000,-120.120003,-15.960000,21.06
5949418,0.292800,-0.082472,0.947208,5.670000,-122.919998,-16.520000,21.06
5949429,0.303048,-0.060512,0.885720,4.550000,-125.860001,-15.190000,21.08
5949440,0.323544,-0.042944,0.801296,3.150000,-127.330002,-13.720000,21.08
5949451,0.346480,-0.043432,0.732000,0.140000,-128.309998,-12.600000,21.12
5949462,0.366488,-0.030256,0.673440,-1.120000,-127.190002,-10.780000,21.11
5949473,0.389424,0.001464,0.595360,-4.270000,-124.879997,-7.700000,21.11
5949484,0.415288,-0.002440,0.505080,-7.770000,-122.080002,-5.950000,21.05
5949496,0.454328,-0.057584,0.420168,-10.850000,-116.199997,-4.900000,21.05
5949507,0.491416,-0.090768,0.349408,-11.550000,-108.779999,-4.200000,21.11
5949518,0.515816,-0.120048,0.294264,-9.590000,-99.680000,-3.570000,21.14
5949529,0.532896,-0.138592,0.225456,-7.210000,-89.669998,-2.450000,21.14
5949541,0.544608,-0.147376,0.187880,-3.990000,-78.750000,-1.750000,21.08
5949552,0.547536,-0.151280,0.151768,-0.490000,-70.000000,-1.120000,21.08
5949563,0.548024,-0.149328,0.145912,2.030000,-59.849998,-1.050000,21.11
5949574,0.559736,-0.151768,0.151768,4.130000,-49.209999,-0.770000,21.06
5949586,0.553880,-0.168848,0.146888,9.100000,-38.709999,-2.030000,21.06
5949597,0.573400,-0.180560,0.132248,14.490000,-28.000000,-2.590000,21.07
5949608,0.584136,-0.175680,0.118096,20.930000,-1.190000,-2.940000,21.07
5949619,0.588040,-0.172264,0.106872,27.650000,-7.140000,-3.990000,21.10
5949630,0.579744,-0.137616,0.132736,28.350000,3.570000,-2.940000,21.11
5949641,0.566568,-0.109312,0.180072,28.770000,13.510000,-1.540000,21.11
5949652,0.556320,-0.093696,0.210816,28.070000,20.580000,0.210000,21.07
5949663,0.554856,-0.098576,0.227408,26.600000,28.770000,1.120000,21.07
5949674,0.561200,-0.092720,0.240096,23.940001,36.750000,2.380000,21.11
5949685,0.573400,-0.093696,0.287920,20.510000,43.330002,3.780000,21.11
5949698,0.575840,-0.084912,0.323544,16.309999,53.060001,4.410000,21.09
5949708,0.576328,-0.097112,0.353800,13.650000,59.709999,4.830000,21.17
5949719,0.567056,-0.103456,0.400648,11.690000,64.470001,4.550000,21.17
5949730,0.565104,-0.103456,0.439200,10.500000,69.160004,4.900000,21.13
5949741,0.578768,-0.110776,0.450424,9.310000,73.849998,4.760000,21.13
5949752,0.581208,-0.116144,0.454328,6.160000,78.470001,4.620000,21.09
5949763,0.569496,-0.124928,0.465064,3.990000,84.419998,4.200000,21.03
5949774,0.548024,-0.110776,0.521672,-3.710000,89.110001,5.950000,21.03
5949785,0.518256,-0.108824,0.590968,-6.440000,92.680000,5.740000,21.06
5949796,0.475312,-0.102968,0.644160,-10.500000,93.239998,6.090000,21.06
5949807,0.461648,-0.129808,0.667584,-10.710000,95.620003,4.410000,21.06
5949818,0.536312,-0.091744,0.719800,-11.060000,102.620003,5.530000,21.11
5949829,0.430416,-0.153720,0.701744,-14.070000,100.309998,7.000000,21.11
5949840,0.473848,-0.107848,0.726632,-14.910000,106.190002,8.470000,21.09
5949851,0.398696,-0.132248,0.719312,-13.650000,105.139999,6.370000,21.09
5949863,0.380152,-0.146888,0.774456,-16.730000,106.400002,9.590000,21.11
5949874,0.353312,-0.106384,0.903288,-18.270000,105.489998,11.830000,21.12
5949885,0.336232,-0.089304,1.023336,-23.240000,101.779999,14.280000,21.12
5949896,0.312808,-0.109800,1.086288,-26.600000,97.580002,14.350000,21.09
5949907,0.288408,-0.147376,1.084336,-25.830000,92.680000,14.140000,21.09
5949918,0.277184,-0.161040,1.046760,-23.730000,88.550003,12.950000,21.12
5949928,0.288408,-0.226920,1.020408,-18.969999,86.239998,11.410000,21.12
5949939,0.296216,-0.244000,1.028704,-14.910000,86.169998,13.300000,21.10
5949950,0.285968,-0.226920,1.105808,-14.070000,84.839996,14.280000,21.10
5949961,0.244488,-0.224480,1.180472,-10.220000,81.059998,13.020000,21.10
5949973,0.229360,-0.209352,1.257088,-8.610000,73.779999,11.760000,21.10
5949984,0.245952,-0.290848,1.291736,-4.550000,69.580002,9.100000,21.10
5949994,0.253272,-0.319152,1.300520,5.390000,67.269997,6.720000,21.09
5950005,0.238144,-0.296704,1.338584,9.100000,64.120003,6.300000,21.08
5950016,0.214720,-0.308904,1.418128,11.970000,61.529999,3.920000,21.08
5950027,0.165920,-0.302560,1.510848,15.400000,56.630001,2.100000,21.11
5950038,0.143960,-0.286944,1.566968,18.549999,50.470001,0.840000,21.11
5950049,0.134688,-0.251320,1.646512,16.240000,43.330002,1.260000,21.12
5950060,0.122976,-0.250344,1.728008,10.570000,33.810001,1.190000,21.12
5950071,0.122488,-0.244976,1.781200,5.390000,23.240000,0.210000,21.12
5950082,0.118584,-0.266936,1.845128,0.140000,12.530000,-1.190000,21.15
5950093,0.103456,-0.287432,1.867576,-4.130000,0.560000,-2.520000,21.15
5950104,0.088816,-0.299144,1.871968,-7.280000,-9.450000,-4.060000,21.11
5950115,0.080520,-0.316224,1.838296,-4.690000,-20.790001,-7.000000,21.11
5950126,0.080032,-0.306464,1.776808,-2.660000,-32.619999,-9.800000,21.11
5950138,0.093696,-0.314760,1.708976,-2.870000,-44.099998,-11.900000,21.08
5950149,0.110288,-0.314272,1.662616,-1.330000,-52.080002,-14.350000,21.08
5950160,0.114192,-0.299144,1.622600,2.380000,-62.930000,-16.240000,21.12
5950171,0.142984,-0.261568,1.588440,7.420000,-72.870003,-18.270000,21.11
5950182,0.151280,-0.199592,1.546472,7.560000,-82.459999,-19.250000,21.11
5950193,0.151768,-0.144936,1.523048,4.410000,-90.019997,-20.020000,21.11
5950204,0.151280,-0.120048,1.489864,-0.910000,-100.379997,-20.090000,21.11
5950215,0.146888,-0.096624,1.442528,-7.070000,-109.620003,-19.670000,21.11
5950226,0.156648,-0.082960,1.338096,-12.320000,-119.139999,-18.620001,21.11
5950238,0.178120,-0.095648,1.248792,-18.549999,-125.370003,-18.129999,21.09
5950249,0.207400,-0.112728,1.171200,-18.969999,-131.669998,-18.760000,21.07
5950260,0.228384,-0.126392,1.085312,-15.540000,-136.570007,-19.180000,21.07
5950272,0.253760,-0.126880,0.998936,-8.750000,-140.070007,-19.320000,21.10
5950283,0.283040,-0.101016,0.914512,-6.720000,-141.259995,-17.500000,21.10
5950294,0.290848,-0.095648,0.821304,-0.490000,-141.259995,-17.430000,21.12
5950305,0.313784,-0.091256,0.737856,5.810000,-140.979996,-16.660000,21.07
5950316,0.346968,-0.100528,0.663680,10.920000,-139.300003,-15.890000,21.07
5950327,0.370880,-0.086376,0.608048,13.510000,-136.710007,-13.440000,21.11
5950339,0.397720,-0.074176,0.526552,15.680000,-132.509995,-12.460000,21.09
5950351,0.419192,-0.054168,0.427488,12.180000,-126.699997,-9.660000,21.09
5950362,0.433832,-0.053680,0.338184,9.030000,-119.699997,-7.140000,21.07
5950373,0.464088,-0.050752,0.276208,4.340000,-113.540001,-4.550000,21.07
5950384,0.511424,-0.042456,0.244976,-3.780000,-104.230003,-1.330000,21.07
5950395,0.532896,-0.025864,0.223016,-11.130000,-95.059998,0.980000,21.06
5950406,0.537776,-0.027328,0.186416,-16.870001,-85.959999,3.080000,21.06
5950418,0.536800,-0.063928,0.161040,-20.930000,-75.599998,3.710000,21.06
5950429,0.536800,-0.095648,0.127368,-23.240000,-67.830002,4.620000,21.06
5950440,0.551928,-0.133712,0.099552,-23.240000,-57.259998,4.970000,21.11
5950451,0.564616,-0.185440,0.076616,-19.250000,-45.919998,3.920000,21.11
5950462,0.574864,-0.248392,0.040504,-13.790000,-34.090000,2.730000,21.08
5950473,0.594384,-0.287920,0.008296,-5.390000,-24.080000,1.610000,21.12
5950485,0.595360,-0.306952,0.002928,5.040000,-10.990000,-0.210000,21.12
5950496,0.601216,-0.302072,0.033184,14.280000,0.630000,0.210000,21.10
5950508,0.595360,-0.293776,0.068808,24.290001,11.970000,-1.190000,21.11
5950519,0.595848,-0.283040,0.098088,36.049999,22.540001,-3.080000,21.11
5950530,0.604632,-0.273768,0.118584,47.669998,32.340000,-4.830000,21.11
5950541,0.615856,-0.244976,0.160064,53.410000,41.369999,-6.090000,21.11
5950552,0.622200,-0.230824,0.201544,60.549999,49.419998,-6.930000,21.11
5950563,0.610488,-0.181536,0.233752,64.470001,58.240002,-7.350000,21.09
5950574,0.617320,-0.141032,0.281576,62.020000,67.339996,-7.700000,21.09
5950585,0.630984,-0.087840,0.342088,56.419998,73.360001,-5.460000,21.13
5950596,0.592432,-0.074664,0.388448,49.910000,80.080002,-5.950000,21.13
5950607,0.569984,-0.018056,0.448960,39.410000,85.330002,-3.710000,21.09
5950618,0.551928,0.013664,0.526552,29.540001,88.690002,-2.030000,21.09
5950629,0.536800,0.017080,0.592432,19.809999,91.139999,-0.910000,21.11
5950640,0.529968,0.024400,0.624152,9.170000,92.820000,0.910000,21.10
5950651,0.532896,0.000976,0.634400,3.780000,95.690002,1.610000,21.10
5950662,0.519720,0.006344,0.647088,-4.130000,98.839996,3.080000,21.12
5950673,0.463112,-0.049288,0.649040,-8.400000,92.820000,6.580000,21.12
5950684,0.539728,0.004880,0.729072,-23.450001,113.959999,9.870000,21.12
5950695,0.352336,0.004392,0.817400,-24.010000,107.800003,9.520000,21.07
5950706,0.385032,-0.034648,0.923784,-26.459999,103.879997,18.620001,21.07
5950717,0.396256,-0.023912,0.889136,-30.590000,101.779999,12.810000,21.08
5950728,0.359168,-0.110288,0.887672,-26.250000,100.519997,11.550000,21.08
5950739,0.381128,-0.107360,0.926712,-27.020000,99.540001,15.400000,21.07
5950750,0.383080,-0.141032,1.019920,-24.080000,100.940002,16.450001,21.09
5950761,0.327448,-0.105408,1.027240,-22.260000,98.209999,16.309999,21.09
5950772,0.280112,-0.106872,1.070672,-21.280001,95.690002,15.750000,21.05
5950783,0.244488,-0.123464,1.083360,-17.639999,90.720001,15.750000,21.05
5950794,0.240096,-0.155672,1.076040,-12.670000,84.699997,16.240000,21.11
5950805,0.259616,-0.182024,1.062376,-3.500000,83.300003,15.890000,21.11
5950816,0.281576,-0.182024,1.084824,3.290000,82.809998,16.590000,21.04
5950826,0.279136,-0.144448,1.150216,2.170000,80.919998,18.410000,21.08
5950837,0.251808,-0.103944,1.213168,3.080000,77.349998,18.270000,21.08
5950848,0.213744,-0.071736,1.266360,-2.310000,71.820000,18.969999,21.08
5950859,0.205448,-0.114680,1.276120,-5.320000,68.110001,19.600000,21.08
5950870,0.199592,-0.163968,1.277096,-7.280000,66.010002,21.770000,21.13
5950881,0.173240,-0.163480,1.279536,-9.730000,64.330002,22.469999,21.08
5950892,0.124928,-0.142008,1.304424,-16.450001,59.570000,23.940001,21.08
5950903,0.101504,-0.176656,1.343464,-22.610001,52.919998,25.129999,21.09
5950914,0.128832,-0.264008,1.398608,-24.500000,48.930000,24.570000,21.09
5950925,0.140056,-0.314760,1.441552,-21.139999,43.259998,23.730000,21.13
5950936,0.149328,-0.400648,1.462048,-11.760000,38.709999,20.580000,21.13
5950947,0.136152,-0.418704,1.499136,-2.870000,34.020000,17.290001,21.08
5950958,0.108336,-0.440176,1.547448,8.470000,28.770000,12.530000,21.14
5950969,0.091744,-0.416752,1.580144,17.219999,22.540001,9.660000,21.14
5950980,0.076616,-0.384544,1.615280,19.600000,13.510000,6.650000,21.09
5950992,0.077592,-0.355752,1.663592,17.219999,3.500000,3.990000,21.09
5951003,0.087352,-0.320128,1.706048,9.730000,-4.900000,1.260000,21.06
5951014,0.076128,-0.315248,1.738256,0.350000,-15.820000,-1.330000,21.10
5951025,0.082472,-0.356728,1.731424,-4.830000,-27.440001,-5.600000,21.10
5951036,0.083936,-0.390400,1.689456,-6.160000,-38.500000,-10.360000,21.07
5951047,0.091256,-0.415776,1.620160,-3.850000,-46.410000,-15.260000,21.07
5951058,0.098576,-0.409432,1.586000,-0.350000,-56.490002,-18.830000,21.12
5951069,0.097112,-0.356728,1.577216,0.840000,-66.779999,-22.190001,21.12
5951080,0.100040,-0.323544,1.563552,0.700000,-75.809998,-25.620001,21.12
5951091,0.114192,-0.265960,1.536712,-0.560000,-87.220001,-28.559999,21.09
5951103,0.140544,-0.227896,1.511336,-5.950000,-98.279999,-29.680000,21.09
5951114,0.139080,-0.210816,1.488888,-10.430000,-107.940002,-31.709999,21.11
5951125,0.129320,-0.161528,1.472296,-16.870001,-119.279999,-32.130001,21.08
5951136,0.130296,-0.157136,1.404464,-19.950001,-130.690002,-34.580002,21.08
5951148,0.149328,-0.167384,1.289296,-21.629999,-139.580002,-36.400002,21.11
5951159,0.184952,-0.186904,1.177056,-20.440001,-145.250000,-37.520000,21.11
5951170,0.204472,-0.195688,1.064816,-13.440000,-150.009995,-39.130001,21.10
5951181,0.244000,-0.161040,0.993080,-7.630000,-153.860001,-37.939999,21.08
5951192,0.281088,-0.125904,0.894016,-2.660000,-154.630005,-37.169998,21.08
5951206,0.305976,-0.075152,0.756400,3.500000,-154.210007,-34.299999,21.06
5951217,0.344528,-0.050264,0.646112,4.830000,-151.690002,-31.570000,21.08
5951228,0.371856,-0.026840,0.567056,7.420000,-146.860001,-28.490000,21.08
5951239,0.395280,0.034160,0.467016,7.560000,-140.839996,-23.240000,21.09
5951250,0.421632,0.081496,0.383080,1.890000,-134.820007,-17.780001,21.09
5951261,0.448960,0.087840,0.303536,-7.000000,-125.370003,-13.300000,21.08
5951272,0.473360,0.061488,0.259128,-13.580000,-115.290001,-9.310000,21.08
5951284,0.495320,0.029768,0.231800,-18.549999,-104.650002,-5.530000,21.09
5951295,0.508008,-0.005368,0.228384,-21.070000,-94.220001,-2.100000,21.12
5951306,0.509472,-0.038064,0.194712,-19.600000,-86.379997,-0.280000,21.12
5951317,0.518744,-0.064416,0.153232,-17.500000,-76.440002,0.560000,21.11
5951328,0.531432,-0.109800,0.117608,-13.790000,-65.169998,1.680000,21.11
5951339,0.534848,-0.141520,0.085400,-8.190000,-54.110001,2.380000,21.06
5951350,0.550952,-0.157624,0.079544,-1.680000,-45.150002,3.710000,21.11
5951362,0.547048,-0.156648,0.067832,5.530000,-34.369999,4.060000,21.11
5951373,0.566080,-0.160552,0.091256,10.780000,-21.420000,5.670000,21.11
5951384,0.569496,-0.163968,0.125416,12.320000,-10.850000,6.300000,21.11
5951395,0.558272,-0.171776,0.140544,18.340000,-2.310000,6.090000,21.11
5951406,0.548024,-0.186904,0.152256,23.660000,6.440000,6.370000,21.09
5951417,0.570472,-0.211792,0.151768,30.940001,15.890000,6.020000,21.09
5951428,0.565104,-0.226920,0.170800,37.869999,25.549999,4.690000,21.12
5951439,0.571936,-0.222528,0.186904,44.029999,33.110001,3.850000,21.12
5951450,0.580232,-0.203984,0.209352,47.180000,41.930000,3.150000,21.12
5951461,0.578280,-0.169336,0.244976,47.950001,50.119999,2.310000,21.07
5951472,0.583160,-0.150304,0.291824,45.570000,57.540001,2.940000,21.07
5951484,0.572912,-0.110776,0.340136,41.230000,63.770000,3.150000,21.11
5951494,0.570960,-0.101016,0.373320,34.860001,67.970001,3.220000,21.11
5951506,0.570472,-0.108336,0.406992,27.370001,73.639999,3.780000,21.09
5951517,0.556320,-0.119072,0.456280,23.870001,79.309998,3.010000,21.10
5951527,0.543144,-0.246928,0.487512,19.320000,82.529999,3.290000,21.10
5951538,0.543144,-0.138592,0.503128,18.270000,87.639999,2.940000,21.11
5951549,0.524112,-0.132736,0.521672,18.200001,92.540001,2.380000,21.11
5951560,0.508008,-0.102480,0.583648,13.860000,95.620003,3.080000,21.11
5951571,0.475312,-0.101016,0.638304,11.270000,98.349998,1.820000,21.09
5951582,0.357704,-0.105896,0.671976,4.690000,86.800003,2.800000,21.09
5951593,0.497272,-0.059536,0.774944,-3.290000,105.910004,7.910000,21.10
5951605,0.409920,-0.050264,0.819840,-4.900000,102.620003,6.650000,21.10
5951617,0.331840,-0.096136,0.807640,-5.880000,98.839996,4.900000,21.09
5951628,0.420168,-0.082960,0.842288,-7.420000,104.860001,5.950000,21.06
5951639,0.353312,-0.071736,0.936472,-15.190000,101.080002,9.450000,21.06
5951650,0.348920,-0.079544,1.046760,-35.419998,98.629997,10.920000,21.08
5951661,0.318176,-0.071736,1.105808,-22.680000,94.919998,12.740000,21.08
5951672,0.309880,-0.095160,1.121424,-25.549999,90.089996,13.020000,21.10
5951683,0.305488,-0.143960,1.098488,-22.400000,86.169998,11.690000,21.10
5951694,0.306952,-0.181536,1.083848,-20.160000,82.669998,12.250000,21.08
5951704,0.309392,-0.207400,1.113616,-15.330000,81.620003,12.460000,21.11
5951716,0.293776,-0.191296,1.185352,-14.910000,78.120003,15.190000,21.11
5951727,0.268400,-0.172752,1.266360,-13.230000,72.589996,14.700000,21.08
5951737,0.249368,-0.176656,1.329800,-13.020000,69.300003,12.320000,21.08
5951748,0.270840,-0.210816,1.313696,-9.660000,61.459999,11.690000,21.13
5951759,0.264008,-0.255224,1.284416,-3.920000,56.700001,9.380000,21.08
5951770,0.274256,-0.287920,1.269776,1.960000,55.020000,7.770000,21.08
5951781,0.271816,-0.283528,1.264408,9.240000,54.250000,6.650000,21.09
5951792,0.250344,-0.252296,1.277584,15.120000,52.150002,6.090000,21.09
5951803,0.239120,-0.213256,1.321016,14.280000,49.279999,7.700000,21.10
5951814,0.231312,-0.210328,1.369328,12.670000,45.430000,7.280000,21.05
5951825,0.203008,-0.183000,1.423984,9.030000,40.389999,8.050000,21.05
5951836,0.191784,-0.229848,1.482544,6.720000,18.620001,7.350000,21.05
5951847,0.190320,-0.229848,1.540616,5.880000,31.290001,6.930000,21.05
5951858,0.183976,-0.255712,1.578192,4.830000,25.690001,5.880000,21.13
5951868,0.162504,-0.264008,1.574288,5.250000,19.040001,3.920000,21.13
5951879,0.142008,-0.254248,1.588440,-0.070000,12.040000,4.480000,21.08
5951890,0.122000,-0.286944,1.601128,-5.950000,2.380000,3.290000,21.08
5951902,0.127856,-0.366000,1.622112,-4.060000,-6.510000,-0.980000,21.08
5951913,0.133712,-0.391376,1.626992,0.700000,-16.660000,-5.670000,21.08
5951924,0.140056,-0.388448,1.636752,7.840000,-24.430000,-10.430000,21.08
5951935,0.126392,-0.316224,1.707512,8.330000,-36.189999,-12.530000,21.08
5951946,0.091744,-0.244000,1.770464,0.700000,-51.099998,-14.910000,21.03
5951957,0.072224,-0.222528,1.779248,-7.700000,-67.970001,-17.500000,21.03
5951968,0.083448,-0.224968,1.723128,-18.690001,-80.849998,-19.459999,21.07
5951979,0.104920,-0.244488,1.658712,-24.709999,-95.690002,-22.680000,21.07
5951991,0.144448,-0.286456,1.606496,-25.340000,-107.660004,-26.320000,21.08
5952002,0.154696,-0.290360,1.513776,-21.980000,-119.000000,-29.610001,21.05
5952013,0.175192,-0.291824,1.420568,-14.840000,-129.429993,-33.389999,21.05
5952024,0.205448,-0.252296,1.334680,-6.160000,-135.449997,-36.119999,21.07
5952035,0.226920,-0.219112,1.228784,4.130000,-142.029999,-37.730000,21.07
5952046,0.261568,-0.146400,1.173640,9.940000,-146.929993,-36.330002,21.07
5952058,0.280600,-0.070760,1.077016,13.370000,-149.520004,-35.700001,21.07
5952068,0.283528,0.115656,0.988688,11.130000,-151.059998,-32.410000,21.07
5952080,0.308904,0.044896,0.891088,5.320000,-152.250000,-29.260000,21.09
5952091,0.340136,0.059536,0.792512,-2.660000,-151.479996,-24.920000,21.09
5952102,0.370880,0.070272,0.672464,-7.280000,-147.490005,-20.299999,21.11
5952113,0.395768,0.080520,0.560224,-14.280000,-143.570007,-15.470000,21.07
5952124,0.410408,0.082960,0.491416,-19.740000,-138.110001,-11.270000,21.07
5952135,0.425536,0.056608,0.427000,-21.629999,-132.229996,-7.420000,21.10
5952146,0.452864,0.031232,0.357216,-21.070000,-124.529999,-4.270000,21.10
5952157,0.459208,-0.003416,0.281088,-18.410000,-115.150002,-1.890000,21.09
5952176,0.512888,-0.028792,0.207400,-14.350000,-98.839996,3.220000,21.05
5952194,0.486048,-0.025376,0.177144,-12.460000,-83.230003,6.160000,21.12
5952205,0.496784,-0.044896,0.158112,-13.160000,-74.059998,7.840000,21.14
5952220,0.506056,-0.109800,0.119560,-11.340000,-62.230000,8.330000,21.14
5952231,0.522160,-0.167384,0.103944,-8.260000,-52.290001,8.610000,21.08
5952243,0.524112,-0.207888,0.097600,-3.850000,-42.279999,7.420000,21.07
5952255,0.533872,-0.266448,0.083936,3.500000,-32.410000,5.530000,21.07
5952269,0.531432,-0.273768,0.041480,10.080000,-20.440001,2.380000,21.11
5952280,0.572424,-0.295240,0.050264,19.040001,-7.910000,1.960000,21.04
5952291,0.591456,-0.264496,0.058072,22.959999,2.800000,0.700000,21.04
5952302,0.595360,-0.274256,0.092232,25.690001,13.650000,-1.050000,21.09
5952314,0.587064,-0.251320,0.118584,30.870001,21.420000,-3.150000,21.09
5952325,0.584624,-0.235216,0.143960,33.389999,29.680000,-4.480000,21.05
5952336,0.609512,-0.215696,0.163968,35.770000,38.360001,-5.320000,21.05
5952347,0.621712,-0.183976,0.190808,35.139999,47.459999,-6.090000,21.10
5952358,0.625616,-0.159576,0.233752,32.549999,54.669998,-6.650000,21.08
5952369,0.626104,-0.127368,0.254248,29.120001,64.330002,-6.790000,21.08
5952380,0.617320,-0.088328,0.293776,23.450001,72.940002,-5.950000,21.11
5952391,0.600728,-0.083448,0.338184,19.040001,80.360001,-5.250000,21.11
5952402,0.581208,-0.079544,0.392352,14.280000,85.610001,-4.130000,21.08
5952413,0.576328,-0.062464,0.466040,8.050000,91.279999,-0.560000,21.08
5952424,0.566080,-0.055144,0.533872,6.090000,96.180000,0.210000,21.08
5952435,0.551440,-0.067832,0.572424,5.600000,99.330002,0.420000,21.05
5952446,0.551440,-0.084912,0.566568,8.190000,103.879997,0.210000,21.05
5952457,0.552416,-0.082472,0.611952,8.330000,109.830002,7.420000,21.11
5952468,0.603168,-0.055144,0.709064,7.420000,116.970001,4.690000,21.08
5952478,0.400160,-0.089792,0.724680,8.470000,110.669998,4.480000,21.08
5952489,0.504592,-0.041480,0.779336,5.950000,116.900002,8.610000,21.12
5952500,0.440176,-0.044408,0.810080,6.860000,114.099998,4.620000,21.12
5952511,0.425536,-0.040504,0.867664,-1.330000,115.220001,7.210000,21.07
5952522,0.396256,-0.042456,0.924272,-4.340000,113.750000,9.730000,21.07
5952533,0.360632,-0.004392,0.987224,-10.710000,109.620003,13.160000,21.07
5952544,0.335256,-0.033184,1.053104,-19.389999,105.910004,13.650000,21.07
5952555,0.303048,-0.094672,1.040416,-19.389999,101.360001,13.930000,21.07
5952567,0.295240,-0.129320,1.019920,-15.540000,96.320000,14.350000,21.10
5952577,0.307440,-0.133712,1.012600,-11.830000,93.940002,14.280000,21.10
5952588,0.322080,-0.136152,1.104344,-19.040001,90.230003,18.059999,21.05
5952599,0.263032,-0.178120,1.218048,-16.799999,85.959999,16.030001,21.04
5952611,0.225456,-0.155184,1.289296,-17.639999,75.529999,17.290001,21.04
5952622,0.226920,-0.191296,1.271240,-15.260000,68.739998,14.910000,21.09
5952633,0.195688,-0.233264,1.220488,-11.270000,63.490002,11.550000,21.09
5952645,0.218136,-0.281576,1.191208,-6.440000,58.099998,10.430000,21.11
5952657,0.250344,-0.274256,1.157048,1.610000,55.790001,8.820000,21.06
5952668,0.278648,-0.266936,1.171200,5.810000,53.900002,8.960000,21.06
5952679,0.280112,-0.264984,1.199016,12.880000,54.320000,7.910000,21.12
5952689,0.262544,-0.221552,1.234152,17.290001,53.619999,6.720000,21.12
5952704,0.246928,-0.228384,1.277584,17.010000,54.389999,6.230000,21.13
5952715,0.183488,-0.170312,1.248792,17.709999,52.709999,6.370000,21.04
5952727,0.162504,-0.169336,1.202432,13.510000,51.660000,7.630000,21.04
5952738,0.126392,-0.138104,1.245864,5.530000,50.680000,9.380000,21.11
5952748,0.121024,-0.147376,1.332728,-5.950000,47.389999,13.930000,21.08
5952759,0.092720,-0.151768,1.473272,-12.530000,41.860001,14.560000,21.08
5952770,0.090768,-0.183976,1.570872,-20.440001,36.470001,15.050000,21.07
5952781,0.083448,-0.246440,1.610400,-23.450001,29.400000,13.790000,21.07
5952792,0.061000,-0.334768,1.606984,-21.209999,20.860001,10.710000,21.06
5952804,0.051728,-0.428952,1.564040,-8.470000,15.680000,6.440000,21.09
5952815,0.020984,-0.367952,1.565016,2.940000,5.740000,4.620000,21.09
5952826,0.025864,-0.309880,1.592832,1.260000,-5.180000,2.800000,21.09
5952837,0.038552,-0.352336,1.622112,0.490000,-14.350000,-0.490000,21.09
5952848,0.036600,-0.336232,1.647976,2.450000,-23.799999,-3.710000,21.16
5952859,0.063440,-0.337208,1.662616,2.030000,-35.770000,-6.580000,21.09
5952870,0.066856,-0.352824,1.669448,1.890000,-46.130001,-9.170000,21.09
5952881,0.068808,-0.343552,1.650416,3.360000,-58.029999,-12.530000,21.09
5952892,0.073688,-0.341600,1.570872,5.880000,-65.870003,-17.430000,21.09
5952903,0.056608,-0.307440,1.513288,9.590000,-76.720001,-20.860001,21.09
5952914,0.090280,-0.238632,1.501088,3.570000,-87.570000,-20.510000,21.07
5952925,0.092232,-0.237656,1.487424,0.280000,-97.510002,-22.820000,21.07
5952937,0.105408,-0.204960,1.464976,-1.680000,-108.500000,-24.850000,21.07
5952948,0.126392,-0.183488,1.417152,-4.760000,-116.760002,-26.389999,21.07
5952959,0.155672,-0.176168,1.374696,-9.310000,-125.089996,-26.740000,21.10
5952971,0.172752,-0.167872,1.316624,-11.410000,-132.580002,-27.790001,21.05
5952982,0.172264,-0.168360,1.254648,-9.870000,-138.389999,-29.540001,21.05
5952993,0.187880,-0.158600,1.169736,-8.260000,-143.710007,-28.420000,21.10
5953004,0.196176,-0.122488,1.068232,-4.410000,-147.770004,-28.700001,21.10
5953015,0.233752,-0.130296,0.991128,-0.910000,-151.270004,-28.209999,21.10
5953026,0.290848,-0.112240,0.980880,-1.050000,-152.389999,-24.850000,21.10
5953038,0.287920,-0.084424,0.928664,3.430000,-154.979996,-24.360001,21.10
5953049,0.314760,-0.061976,0.872544,2.590000,-156.029999,-22.469999,21.08
5953060,0.328424,-0.060512,0.762256,4.760000,-154.979996,-21.350000,21.08
5953071,0.344040,-0.056608,0.662216,7.700000,-153.720001,-20.160000,21.08
5953082,0.397232,-0.045384,0.537776,10.500000,-149.380005,-17.500000,21.08
5953093,0.423096,0.002440,0.435296,10.920000,-143.990005,-14.420000,21.07
5953104,0.442616,0.040016,0.344040,5.530000,-136.639999,-11.410000,21.06
5953115,0.470920,0.047336,0.286456,-0.980000,-129.149994,-6.860000,21.06
5953126,0.513376,0.045384,0.227896,-7.210000,-117.879997,-2.800000,21.07
5953137,0.537776,0.021960,0.177632,-11.690000,-108.360001,-0.840000,21.07
5953148,0.557784,-0.013664,0.153232,-14.420000,-97.510002,1.260000,21.09
5953159,0.569008,-0.046360,0.116144,-13.230000,-85.190002,2.800000,21.09
5953170,0.569984,-0.074664,0.088328,-10.990000,-76.160004,3.850000,21.09
5953181,0.588040,-0.098576,0.073688,-7.700000,-64.050003,4.900000,21.09
5953192,0.597800,-0.100040,0.057096,-5.950000,-51.869999,6.020000,21.09
5953203,0.598288,-0.142008,0.056120,-3.290000,-40.459999,6.020000,21.09
5953214,0.604144,-0.173240,0.060512,1.050000,-31.780001,5.670000,21.07
5953225,0.602192,-0.221064,0.059048,8.330000,-21.280001,4.480000,21.07
5953235,0.614880,-0.240096,0.054656,15.120000,-11.270000,3.640000,21.12
5953246,0.629032,-0.246440,0.055144,23.100000,-2.030000,2.310000,21.12
5953257,0.630984,-0.238144,0.066856,28.490000,9.170000,1.750000,21.11
5953268,0.632448,-0.226920,0.094184,30.940001,19.670000,0.420000,21.11
5953279,0.625128,-0.205448,0.120536,34.930000,28.139999,-1.680000,21.07
5953290,0.604632,-0.180560,0.143960,37.169998,36.959999,-1.680000,21.09
5953301,0.593408,-0.136640,0.213744,32.830002,44.450001,-5.460000,21.09
5953312,0.632448,-0.166408,0.194712,39.759998,55.020000,-2.380000,21.11
5953323,0.616344,-0.125904,0.247904,35.980000,60.689999,-1.680000,21.11
5953334,0.623664,-0.104432,0.279136,32.200001,69.019997,-2.170000,21.07
5953345,0.603656,-0.047336,0.364536,27.090000,74.480003,-0.770000,21.09
5953356,0.589016,-0.013664,0.453840,19.110001,77.279999,0.770000,21.09
5953367,0.588528,-0.015616,0.507032,11.340000,79.169998,2.520000,21.09
5953378,0.573888,-0.016592,0.523624,5.460000,80.849998,3.220000,21.09
5953389,0.575840,-0.053680,0.500688,1.610000,84.349998,2.940000,21.11
5953399,0.572424,-0.104432,0.484584,0.630000,89.320000,3.710000,21.11
5953410,0.565104,-0.099064,0.512888,1.540000,95.269997,4.340000,21.06
5953421,0.554856,-0.092232,0.550952,1.680000,99.260002,4.060000,21.07
5953432,0.386008,-0.092232,0.545584,0.630000,92.400002,0.700000,21.07
5953443,0.484096,-0.086864,0.632936,-3.710000,109.830002,6.790000,21.04
5953454,0.476288,-0.073200,0.702720,-3.150000,109.129997,8.120000,21.04
5953465,0.423584,-0.075152,0.816912,-9.870000,104.930000,11.550000,21.06
5953476,0.459696,-0.024888,0.820816,-14.910000,109.199997,9.030000,21.02
5953487,0.385032,-0.055632,0.840336,-18.900000,107.730003,10.010000,21.02
5953498,0.400648,-0.081008,0.854976,-21.980000,106.330002,11.550000,21.07
5953509,0.397232,-0.140544,0.891576,-21.980000,106.959999,11.200000,21.07
5953520,0.383080,-0.149328,1.014552,-25.900000,105.839996,15.050000,21.09
5953531,0.318176,-0.127856,1.089216,-25.129999,102.480003,15.330000,21.08
5953542,0.311344,-0.142008,1.102392,-25.340000,97.720001,15.960000,21.08
5953553,0.305000,-0.217160,1.066280,-20.370001,96.110001,14.210000,21.07
5953564,0.296704,-0.244976,1.034072,-11.060000,94.220001,13.580000,21.07
5953575,0.307440,-0.239608,1.042856,-6.090000,93.940002,13.860000,21.08
5953585,0.275232,-0.210328,1.115080,-4.270000,93.169998,13.860000,21.08
5953596,0.237656,-0.181048,1.180472,-4.690000,89.180000,14.000000,21.09
5953607,0.223992,-0.165920,1.236104,-6.860000,84.139999,13.720000,21.11
5953618,0.199104,-0.153720,1.273192,-7.560000,77.070000,12.880000,21.11
5953629,0.203496,-0.183488,1.260992,-8.540000,72.660004,12.670000,21.09
5953640,0.225944,-0.244488,1.243424,-4.340000,70.559998,12.320000,21.09
5953651,0.181048,-0.202032,1.268312,-1.610000,67.830002,12.040000,21.08
5953662,0.153720,-0.192760,1.341512,-8.680000,62.509998,13.090000,21.09
5953673,0.141520,-0.225456,1.403976,-10.920000,56.980000,13.440000,21.09
5953684,0.130296,-0.229848,1.432768,-13.160000,49.980000,13.160000,21.04
5953695,0.130784,-0.275232,1.470344,-13.020000,42.700001,11.970000,21.04
5953706,0.139568,-0.302560,1.513776,-12.810000,37.730000,10.710000,21.12
5953717,0.132248,-0.398696,1.532320,-6.160000,31.920000,7.840000,21.11
5953728,0.112240,-0.433832,1.557208,4.690000,25.690001,3.780000,21.11
5953739,0.100528,-0.387472,1.591856,14.070000,18.480000,2.170000,21.07
5953750,0.084424,-0.361120,1.603080,19.600000,10.360000,-0.420000,21.07
5953761,0.086864,-0.318664,1.612840,21.840000,1.680000,-2.660000,21.08
5953772,0.098088,-0.290848,1.621136,19.320000,-5.250000,-4.270000,21.08
5953783,0.104432,-0.268888,1.630896,14.560000,-13.860000,-6.020000,21.08
5953794,0.106872,-0.257664,1.627968,7.980000,-24.080000,-7.770000,21.02
5953805,0.110288,-0.261080,1.602592,4.970000,-33.740002,-9.870000,21.02
5953816,0.108336,-0.231800,1.571848,-1.190000,-41.860001,-10.920000,21.07
5953827,0.116632,-0.252296,1.580144,-9.100000,-51.380001,-11.060000,21.07
5953838,0.091744,-0.244488,1.592832,-14.910000,-61.669998,-13.020000,21.06
5953849,0.088328,-0.256200,1.591368,-17.990000,-73.919998,-15.540000,21.05
5953860,0.091256,-0.274256,1.543056,-16.450001,-83.370003,-19.040001,21.05
5953871,0.110776,-0.259128,1.492792,-16.660000,-94.220001,-21.559999,21.06
5953883,0.124928,-0.275232,1.443504,-15.120000,-104.019997,-24.570000,21.06
5953894,0.141032,-0.252784,1.405928,-14.000000,-114.099998,-25.969999,21.09
5953905,0.149328,-0.241560,1.381528,-10.920000,-124.599998,-28.420000,21.07
5953916,0.164944,-0.223504,1.321016,-6.860000,-131.600006,-30.799999,21.07
5953927,0.192272,-0.188856,1.218048,-3.150000,-138.460007,-31.219999,21.09
5953938,0.212768,-0.161040,1.128256,-0.980000,-144.059998,-30.590000,21.09
5953949,0.231312,-0.109312,1.064328,-2.310000,-147.910004,-29.049999,21.03
5953961,0.242536,-0.084912,1.017968,-4.620000,-151.550003,-27.090000,21.09
5953972,0.271816,-0.086376,0.958920,-4.340000,-154.770004,-26.250000,21.09
5953983,0.305000,-0.058072,0.894504,-5.110000,-157.149994,-24.780001,21.06
5953994,0.358680,-0.062464,0.778360,-5.250000,-157.080002,-22.610001,21.06
5954005,0.383080,-0.026352,0.651480,-6.230000,-154.139999,-19.670000,21.08
5954016,0.419192,-0.026352,0.540704,-9.240000,-150.850006,-17.080000,21.05
5954027,0.451888,-0.040016,0.451888,-10.990000,-143.639999,-15.050000,21.05
5954039,0.469456,-0.043432,0.378688,-9.380000,-136.429993,-12.530000,21.05
5954050,0.500200,-0.027328,0.290848,-10.150000,-126.629997,-9.030000,21.05
5954061,0.517768,-0.020984,0.201056,-9.940000,-117.250000,-7.000000,21.09
5954072,0.533384,-0.040992,0.126392,-8.890000,-104.300003,-4.690000,21.04
5954083,0.553392,-0.053680,0.095648,-7.140000,-91.139999,-2.310000,21.04
5954094,0.565104,-0.047336,0.084912,-7.210000,-77.349998,0.280000,21.09
5954105,0.569008,-0.046360,0.082472,-8.470000,-67.269997,2.870000,21.09
5954116,0.565104,-0.067832,0.071736,-7.280000,-54.810001,3.850000,21.04
5954127,0.564616,-0.098576,0.040504,-6.160000,-42.630001,5.320000,21.04
5954138,0.578768,-0.156648,0.015128,-3.710000,-33.250000,6.090000,21.07
5954149,0.597800,-0.196176,0.017568,0.910000,-20.020000,6.370000,21.08
5954160,0.604144,-0.219112,0.026352,6.510000,-6.790000,6.510000,21.08
5954170,0.594384,-0.231312,0.049288,9.870000,2.870000,6.440000,21.12
5954182,0.580720,-0.236192,0.086376,12.950000,13.300000,6.510000,21.12
5954192,0.564128,-0.228384,0.104432,17.010000,22.680000,5.250000,21.08
5954203,0.581696,-0.235704,0.127856,20.299999,28.770000,4.830000,21.04
5954214,0.599752,-0.240584,0.170312,24.430000,38.990002,4.340000,21.04
5954225,0.603656,-0.232776,0.201544,26.600000,48.160000,3.010000,21.03
5954236,0.592920,-0.216184,0.245952,28.000000,54.740002,1.960000,21.03
5954247,0.581208,-0.212280,0.289384,30.590000,62.160000,0.840000,21.09
5954258,0.564128,-0.178120,0.325496,31.219999,67.830002,0.280000,21.09
5954269,0.557784,-0.147864,0.370880,30.030001,71.750000,1.050000,21.10
5954279,0.548512,-0.141520,0.409432,28.490000,76.650002,1.330000,21.02
5954290,0.548512,-0.129808,0.436760,27.230000,82.180000,2.240000,21.02
5954301,0.547536,-0.089304,0.466040,24.709999,86.519997,3.570000,21.11
5954312,0.534848,-0.084424,0.493368,20.580000,91.559998,4.620000,21.11
5954323,0.535336,-0.047336,0.574376,15.610000,94.570000,6.510000,21.07
5954333,0.538752,-0.053192,0.656360,8.680000,97.440002,7.910000,21.01
5954344,0.505080,-0.078568,0.724192,5.530000,99.120003,8.260000,21.01
5954355,0.323544,-0.106872,0.719800,7.490000,88.760002,3.850000,21.09
5954366,0.523624,-0.109312,0.733952,4.830000,106.680000,10.430000,21.09
5954377,0.461648,-0.107360,0.747128,10.710000,102.830002,8.820000,21.07
5954387,0.434320,-0.132248,0.744688,9.030000,100.660004,8.120000,21.07
5954398,0.472872,-0.097112,0.815448,3.780000,107.940002,9.030000,21.09
5954409,0.372832,-0.092232,0.905728,-2.380000,104.580002,11.410000,21.08
5954420,0.358192,-0.079056,0.993568,-5.740000,102.199997,12.810000,21.08
5954431,0.313296,-0.086376,1.037488,-8.890000,95.620003,12.040000,21.07
5954442,0.322568,-0.127368,1.043344,-9.870000,91.769997,11.270000,21.07
5954453,0.319152,-0.203984,0.997960,-7.280000,89.320000,9.450000,21.08
5954464,0.332328,-0.245952,0.988200,0.000000,88.059998,9.870000,21.05
5954475,0.330376,-0.201544,0.995032,5.530000,89.110001,9.380000,21.05
5954486,0.304512,-0.171288,1.004792,8.120000,88.480003,9.380000,21.07
5954496,0.286944,-0.153720,1.017480,10.360000,86.239998,8.820000,21.07
5954507,0.298656,-0.132248,1.048224,5.950000,84.279999,8.890000,21.04
5954518,0.293288,-0.139080,1.135088,1.820000,82.739998,11.410000,21.04
5954529,0.253760,-0.115656,1.227320,-5.810000,78.400002,12.670000,21.09
5954540,0.217160,-0.115656,1.275632,-16.940001,72.169998,15.190000,21.02
5954551,0.208376,-0.150304,1.290272,-22.820000,66.500000,14.560000,21.02
5954562,0.180072,-0.190320,1.246352,-25.480000,60.759998,12.880000,21.09
5954573,0.186416,-0.248880,1.229760,-25.340000,54.950001,12.950000,21.09
5954584,0.207400,-0.259128,1.227808,-24.430000,51.869999,13.020000,21.10
5954595,0.221552,-0.267424,1.217560,-24.570000,49.630001,13.370000,21.08
5954605,0.215208,-0.293288,1.211704,-19.250000,48.369999,11.480000,21.08
5954617,0.209352,-0.315736,1.209752,-13.020000,45.990002,10.640000,21.09
5954627,0.217160,-0.331840,1.222928,-6.720000,45.990002,8.960000,21.09
5954638,0.197640,-0.349896,1.201944,4.130000,46.200001,6.860000,21.07
5954649,0.166896,-0.387472,1.164368,19.600000,47.180000,1.610000,21.07
5954660,0.124928,-0.207888,1.200968,27.790001,44.730000,3.640000,21.06
5954671,0.120048,-0.171288,1.276608,17.709999,40.950001,6.090000,21.05
5954682,0.081984,-0.153232,1.349808,7.560000,36.820000,6.090000,21.05
5954693,0.072712,-0.155184,1.427400,-1.680000,31.500000,6.720000,21.06
5954704,0.081496,-0.237168,1.443992,-7.210000,26.389999,6.020000,21.06
5954715,0.076616,-0.279624,1.427400,-7.350000,21.280001,4.270000,21.09
5954726,0.068320,-0.341112,1.412760,-6.090000,16.309999,3.220000,21.09
5954737,0.050752,-0.362584,1.435696,-0.630000,11.410000,0.350000,21.09
5954748,0.019520,-0.344040,1.457168,3.850000,3.360000,-1.400000,21.09
5954759,0.017568,-0.353800,1.486448,5.250000,-5.460000,-3.360000,21.09
5954770,0.027816,-0.357216,1.524024,9.520000,-12.390000,-7.280000,21.08
5954781,0.028792,-0.326472,1.544032,11.340000,-22.610001,-9.380000,21.02
5954792,0.045872,-0.345016,1.552328,13.440000,-30.730000,-12.460000,21.02
5954803,0.032696,-0.306464,1.563552,17.290001,-40.040001,-15.960000,21.07
5954814,0.035624,-0.259128,1.540616,16.450001,-48.790001,-18.200001,21.07
5954825,0.040016,-0.236680,1.498160,13.860000,-57.470001,-19.740000,21.08
5954836,0.036600,-0.190320,1.475712,7.700000,-67.550003,-19.530001,21.08
5954847,0.034160,-0.158600,1.505968,-5.460000,-78.889999,-18.549999,21.09
5954858,0.034648,-0.160064,1.583560,-18.549999,-88.550003,-18.830000,21.07
5954869,0.033184,-0.206912,1.606008,-25.480000,-102.550003,-21.070000,21.07
5954881,0.068320,-0.257176,1.568920,-26.879999,-115.639999,-24.080000,21.11
5954892,0.108824,-0.329888,1.486936,-22.400000,-125.930000,-28.490000,21.11
5954903,0.132736,-0.341112,1.439600,-16.730000,-133.419998,-30.660000,21.05
5954914,0.119560,-0.359656,1.380064,-4.340000,-141.539993,-35.490002,21.08
5954925,0.113216,-0.317688,1.277096,8.260000,-150.779999,-38.080002,21.08
5954936,0.145912,-0.263032,1.151680,17.639999,-157.289993,-40.180000,21.06
5954947,0.198616,-0.211304,1.050664,26.809999,-160.649994,-40.810001,21.06
5954958,0.261080,-0.137616,1.009184,29.610001,-163.169998,-38.150002,21.10
5954969,0.274256,-0.028304,0.993568,26.180000,-165.130005,-34.369999,21.09
5954980,0.282064,0.048312,0.935984,21.629999,-167.580002,-30.940001,21.09
5954991,0.330864,0.053192,0.814472,13.160000,-167.369995,-28.000000,21.10
5955002,0.360632,0.048312,0.700280,7.910000,-164.220001,-24.639999,21.10
5955013,0.385520,0.057584,0.566080,5.110000,-160.089996,-20.650000,21.06
5955024,0.426512,0.064416,0.452376,3.150000,-154.770004,-17.010000,21.04
5955035,0.459696,0.073200,0.353800,0.980000,-145.880005,-13.720000,21.04
5955046,0.481656,0.051728,0.224480,-0.280000,-133.770004,-7.700000,21.07
5955057,0.496296,0.041968,0.142008,-2.380000,-122.989998,-2.660000,21.07
5955067,0.500688,0.015616,0.117120,-1.330000,-110.040001,-0.350000,21.08
5955079,0.508984,-0.027328,0.103456,2.380000,-97.720001,2.100000,21.08
5955089,0.538264,-0.054168,0.089304,8.470000,-86.589996,4.760000,21.07
5955100,0.552416,-0.064416,0.071248,14.560000,-73.290001,6.090000,21.06
5955111,0.563640,-0.094184,0.060512,19.110001,-59.080002,7.070000,21.06
5955122,0.562664,-0.083936,0.043432,19.950001,-48.090000,9.590000,21.07
5955133,0.560224,-0.063440,0.043432,18.340000,-36.189999,11.270000,21.07
5955144,0.554856,-0.058560,0.046360,14.770000,-24.290001,12.810000,21.04
5955155,0.554368,-0.082472,0.061488,12.040000,-13.230000,14.420000,21.05
5955166,0.567544,-0.102968,0.061976,11.410000,-4.410000,15.190000,21.05
5955177,0.579256,-0.138592,0.062952,11.690000,7.070000,14.910000,21.06
5955188,0.562664,-0.162992,0.072712,7.910000,17.850000,12.530000,21.06
5955199,0.580232,-0.212768,0.098576,18.620001,27.510000,13.440000,21.07
5955209,0.579744,-0.226920,0.130296,24.290001,36.119999,11.900000,21.07
5955220,0.582672,-0.223992,0.177144,28.280001,42.980000,10.010000,21.05
5955231,0.590480,-0.221064,0.220576,31.639999,50.750000,8.400000,21.07
5955242,0.602192,-0.219112,0.258152,34.509998,58.099998,6.440000,21.07
5955253,0.600728,-0.210816,0.296704,36.610001,64.120003,4.060000,21.10
5955264,0.589992,-0.178120,0.352824,36.259998,70.209999,2.730000,21.10
5955275,0.580232,-0.155184,0.394304,33.529999,74.900002,1.540000,21.05
5955285,0.573888,-0.138592,0.429928,31.780001,78.610001,0.630000,21.03
5955296,0.578768,-0.126880,0.443592,28.420000,83.089996,-0.210000,21.03
5955307,0.576328,-0.106872,0.458232,24.010000,87.500000,-0.630000,21.08
5955318,0.581696,-0.116144,0.513864,19.389999,92.050003,-0.840000,21.08
5955329,0.562664,-0.060512,0.596336,11.060000,96.180000,0.770000,21.05
5955339,0.521184,-0.023424,0.691984,5.040000,97.860001,0.560000,21.05
5955350,0.502152,-0.072224,0.696864,1.330000,91.139999,-1.960000,21.07
5955361,0.557296,-0.032208,0.747128,-3.500000,106.540001,2.380000,21.02
5955372,0.368440,-0.087352,0.709064,1.820000,101.290001,-1.120000,21.02
5955383,0.458720,-0.106384,0.715896,-4.970000,98.839996,6.300000,21.07
5955394,0.477264,-0.052216,0.803736,-7.980000,105.839996,2.030000,21.07
5955405,0.372832,-0.039040,0.890600,-12.040000,103.529999,4.060000,21.12
5955416,0.376736,-0.054168,0.967704,-13.720000,101.220001,5.180000,21.04
5955427,0.353800,-0.070272,0.996008,-15.820000,98.209999,4.900000,21.04
5955438,0.358680,-0.128832,0.972096,-8.330000,95.900002,3.780000,21.07
5955449,0.358192,-0.121024,0.921344,-4.410000,95.269997,2.730000,21.07
5955460,0.351360,-0.099552,0.969656,-12.460000,92.750000,5.810000,21.10
5955471,0.328912,-0.097600,1.039440,-15.470000,93.169998,6.300000,21.10
5955482,0.288896,-0.064416,1.102880,-18.549999,89.180000,8.890000,21.06
5955493,0.271328,-0.064904,1.185840,-20.230000,85.120003,9.730000,21.07
5955503,0.258152,-0.016104,1.209264,-26.389999,79.449997,10.850000,21.07
5955514,0.254736,-0.096624,1.180472,-31.290001,74.900002,9.310000,21.14
5955525,0.270840,-0.165432,1.148264,-31.500000,72.309998,10.920000,21.14
5955536,0.257664,-0.208864,1.139968,-27.790001,72.449997,10.220000,21.08
5955547,0.226432,-0.201544,1.129232,-26.040001,70.070000,10.360000,21.05
5955558,0.213744,-0.232776,1.129720,-21.139999,68.529999,10.500000,21.05
5955569,0.217160,-0.251808,1.133624,-15.960000,66.919998,9.240000,21.05
5955580,0.227408,-0.261568,1.159000,-10.080000,66.150002,7.910000,21.05
5955591,0.222040,-0.267912,1.159488,-0.630000,65.870003,4.690000,21.05
5955603,0.206912,-0.269376,1.148752,7.280000,66.500000,3.920000,21.07
5955613,0.155184,-0.222040,1.164856,11.550000,65.940002,2.730000,21.07
5955624,0.117608,-0.134688,1.180472,7.490000,63.139999,4.690000,21.04
5955635,0.096136,-0.079056,1.257576,-7.070000,59.570000,8.400000,21.04
5955646,0.088328,-0.122976,1.307840,-20.930000,54.880001,9.870000,21.03
5955657,0.079056,-0.178608,1.380552,-26.879999,50.889999,11.270000,21.03
5955668,0.066856,-0.197152,1.456680,-34.230000,45.570000,12.880000,21.04
5955679,0.046360,-0.251320,1.525000,-42.070000,36.750000,13.370000,21.02
5955690,0.039040,-0.383080,1.561112,-35.700001,29.820000,8.960000,21.02
5955701,0.018056,-0.442616,1.585512,-21.350000,20.370001,3.500000,21.10
5955715,0.014152,-0.430416,1.585512,-0.910000,9.520000,-1.890000,21.05
5955726,0.016104,-0.380152,1.597224,8.120000,2.730000,-4.550000,21.05
5955737,0.013664,-0.309392,1.634312,5.810000,-8.820000,-4.620000,21.03
5955748,0.019032,-0.332328,1.680184,3.710000,-20.580000,-7.210000,21.03
5955759,0.019032,-0.327448,1.686040,4.480000,-30.590000,-9.660000,21.07
5955770,0.037576,-0.334768,1.651392,5.390000,-42.139999,-12.810000,21.03
5955781,0.043432,-0.333304,1.614304,6.790000,-51.380001,-15.050000,21.03
5955792,0.052216,-0.319640,1.569408,8.680000,-59.430000,-16.940001,21.08
5955804,0.053680,-0.325496,1.521096,10.710000,-67.129997,-19.530001,21.08
5955815,0.036112,-0.307440,1.471808,15.400000,-74.480003,-21.629999,21.02
5955826,0.059536,-0.273280,1.460584,15.750000,-84.980003,-22.680000,21.10
5955837,0.090280,-0.268888,1.473760,15.330000,-93.519997,-23.100000,21.10
5955848,0.086864,-0.207400,1.490840,13.440000,-103.739998,-23.870001,21.02
5955859,0.098576,-0.196664,1.462536,11.200000,-112.070000,-25.270000,21.02
5955870,0.123952,-0.169336,1.389824,8.330000,-119.910004,-25.549999,21.06
5955881,0.132736,-0.164944,1.311256,5.740000,-126.419998,-26.250000,21.06
5955892,0.158112,-0.180072,1.228784,3.780000,-132.369995,-25.059999,21.05
5955904,0.174704,-0.163480,1.194624,2.310000,-136.289993,-25.620001,21.05
5955914,0.201056,-0.142496,1.157536,2.030000,-141.399994,-25.200001,21.05
5955926,0.233752,-0.143960,1.109224,2.380000,-145.389999,-26.110001,21.05
5955936,0.245952,-0.133712,1.073112,1.750000,-147.699997,-24.709999,21.05
5955947,0.246440,-0.112728,1.017968,0.840000,-152.179993,-24.150000,21.02
5955959,0.257664,-0.109312,0.963800,0.910000,-156.029999,-23.870001,21.01
5955969,0.292800,-0.107848,0.873032,2.380000,-158.410004,-22.889999,21.01
5955980,0.329888,-0.108336,0.783728,4.970000,-159.250000,-22.540001,21.05
5955991,0.370392,-0.077592,0.710040,7.280000,-156.520004,-21.490000,21.05
5956002,0.385032,-0.024400,0.640744,5.460000,-153.229996,-19.040001,21.05
5956014,0.393328,0.009272,0.547536,3.360000,-149.869995,-16.590000,21.04
5956024,0.430416,-0.010248,0.429440,0.490000,-145.880005,-15.190000,21.04
5956035,0.473848,-0.044408,0.345504,2.450000,-138.250000,-13.650000,21.05
5956047,0.515328,-0.038552,0.254736,4.550000,-128.660004,-11.900000,21.05
5956058,0.540704,-0.065392,0.177144,9.450000,-118.230003,-10.570000,21.07
5956068,0.545096,-0.025376,0.111264,12.390000,-105.000000,-7.840000,20.98
5956079,0.554856,0.002928,0.076128,12.740000,-92.540001,-5.460000,20.98
5956090,0.566080,0.029280,0.053192,10.010000,-82.389999,-2.240000,21.06
5956101,0.569008,0.019032,0.047336,5.810000,-70.070000,-0.420000,21.06
5956113,0.585112,0.021960,0.054168,-2.660000,-58.310001,2.800000,21.05
5956124,0.599752,-0.032696,0.056608,-5.040000,-45.500000,3.710000,21.05
5956135,0.588040,-0.043432,0.040016,-6.650000,-36.049999,4.760000,21.04
5956146,0.593896,-0.089304,0.026840,-5.180000,-24.360001,5.320000,21.01
5956157,0.601704,-0.133224,0.010736,0.420000,-11.760000,5.110000,21.01
5956168,0.616344,-0.152256,0.020984,2.870000,-0.350000,6.440000,21.03
5956179,0.634400,-0.152256,0.055144,6.860000,10.080000,6.860000,21.03
5956190,0.616344,-0.156648,0.079056,8.540000,21.420000,6.650000,21.02
5956200,0.607072,-0.170800,0.132248,8.820000,30.450001,6.930000,21.04
5956212,0.606584,-0.175192,0.198128,8.190000,36.889999,5.880000,21.04
5956223,0.607560,-0.188856,0.228872,11.270000,43.889999,5.320000,21.07
5956233,0.636352,-0.157624,0.259616,11.200000,50.259998,4.480000,21.07
5956244,0.638304,-0.154208,0.293776,9.870000,55.930000,3.290000,21.07
5956255,0.637328,-0.168848,0.306464,9.240000,63.349998,2.100000,21.01
5956266,0.615856,-0.162016,0.325984,8.890000,69.650002,1.890000,21.01
5956277,0.602680,-0.137616,0.362584,7.840000,74.550003,1.190000,21.06
5956288,0.596824,-0.111752,0.406016,4.130000,77.839996,1.820000,21.06
5956299,0.596336,-0.102968,0.442128,1.470000,81.830002,1.960000,21.06
5956310,0.592920,-0.095160,0.462624,-0.140000,85.190002,2.310000,21.06
5956320,0.595848,-0.110288,0.480680,-0.350000,90.650002,2.590000,21.05
5956331,0.574864,-0.102968,0.491904,1.120000,96.739998,3.290000,21.06
5956342,0.569496,-0.123464,0.555832,-1.190000,102.830002,13.440000,21.06
5956353,0.685640,-0.030256,0.639280,-2.240000,114.309998,7.630000,21.06
5956364,0.396744,-0.059048,0.688568,-0.630000,102.550003,6.790000,21.06
5956375,0.522160,-0.078568,0.733952,-4.760000,108.989998,12.670000,21.08
5956386,0.502152,-0.047336,0.763232,-3.220000,107.099998,9.100000,21.05
5956397,0.461160,-0.067832,0.812032,-8.260000,106.190002,11.760000,21.05
5956408,0.453840,-0.090768,0.887672,-6.300000,125.019997,12.530000,21.04
5956419,0.419192,-0.093696,0.932568,-5.320000,106.400002,14.840000,21.04
5956430,0.391376,-0.098576,1.015528,-7.630000,102.339996,16.450001,21.05
5956441,0.349896,-0.125416,1.061888,-5.390000,96.669998,14.840000,21.05
5956452,0.336232,-0.146400,1.072136,-3.430000,91.559998,14.000000,21.02
5956463,0.352336,-0.155672,1.070672,-0.350000,87.360001,14.140000,21.06
5956474,0.354288,-0.158112,1.053104,1.260000,84.910004,12.670000,21.06
5956485,0.348432,-0.179584,1.077504,0.210000,83.370003,13.510000,21.07
5956496,0.327448,-0.158600,1.118496,4.690000,80.430000,11.270000,21.07
5956507,0.307440,-0.140544,1.127768,7.770000,74.690002,11.970000,21.07
5956518,0.322080,-0.149816,1.123864,8.400000,71.959999,12.670000,21.06
5956528,0.317200,-0.170312,1.085800,12.250000,72.730003,11.480000,21.06
5956539,0.277672,-0.138592,1.104344,7.840000,70.980003,12.950000,21.09
5956550,0.224968,-0.155672,1.151192,7.560000,68.529999,11.130000,21.09
5956561,0.213744,-0.134200,1.203896,3.640000,63.419998,13.160000,21.06
5956572,0.223504,-0.152256,1.232200,-1.120000,58.099998,12.950000,21.03
5956583,0.232776,-0.191296,1.255624,-2.170000,53.759998,12.250000,21.03
5956594,0.248880,-0.186416,1.307352,-4.060000,49.139999,12.600000,21.02
5956605,0.252296,-0.204960,1.321992,-6.230000,46.619999,11.200000,21.02
5956616,0.231312,-0.267912,1.332240,-5.110000,44.450001,10.080000,21.09
5956627,0.198616,-0.266448,1.352248,-4.340000,41.230000,8.750000,21.09
5956638,0.160064,-0.281576,1.366400,-3.850000,36.610001,8.190000,21.04
5956649,0.165920,-0.315736,1.377624,-1.610000,31.709999,6.370000,21.05
5956660,0.184952,-0.348432,1.410320,2.170000,27.299999,4.410000,21.05
5956671,0.194712,-0.331840,1.473760,5.180000,23.660000,3.570000,21.06
5956682,0.194712,-0.299144,1.535736,4.900000,18.270000,1.540000,21.06
5956692,0.173240,-0.266936,1.618696,4.060000,10.570000,-0.280000,21.08
5956703,0.150792,-0.205448,1.662128,-3.220000,2.310000,-0.350000,21.03
5956714,0.147864,-0.224480,1.654808,-11.060000,-7.070000,-2.380000,21.03
5956726,0.139080,-0.269864,1.586976,-13.440000,-14.420000,-4.480000,21.03
5956737,0.140056,-0.257664,1.529392,-14.000000,-22.540001,-5.180000,21.03
5956749,0.151280,-0.207400,1.525000,-23.730000,-31.219999,-4.900000,21.04
5956760,0.149328,-0.244000,1.537200,-29.400000,-39.689999,-6.720000,20.99
5956771,0.153232,-0.290360,1.525000,-30.379999,-48.090000,-9.100000,20.99
5956783,0.172264,-0.316712,1.473760,-26.320000,-56.209999,-11.480000,21.12
5956794,0.195688,-0.315248,1.436672,-21.000000,-62.790001,-14.140000,21.12
5956805,0.195200,-0.305976,1.398120,-12.810000,-68.320000,-17.080000,21.07
5956816,0.183488,-0.278160,1.393240,-7.350000,-74.690002,-19.110001,21.05
5956828,0.174704,-0.225944,1.378600,-4.270000,-83.510002,-19.809999,21.05
5956839,0.184952,-0.192272,1.341024,-4.760000,-90.089996,-20.299999,21.06
5956850,0.210328,-0.184952,1.309304,-8.330000,-97.720001,-19.950001,21.06
5956861,0.222528,-0.198128,1.277584,-6.160000,-104.300003,-21.770000,21.08
5956873,0.245464,-0.167384,1.240496,-9.660000,-111.160004,-20.719999,21.02
5956884,0.252296,-0.154208,1.226344,-12.320000,-117.180000,-21.000000,21.02
5956895,0.256200,-0.137616,1.217072,-18.480000,-123.970001,-19.950001,21.04
5956907,0.262544,-0.149816,1.165832,-22.540001,-129.149994,-20.370001,21.04
5956918,0.272792,-0.156160,1.072136,-24.219999,-134.889999,-20.719999,21.07
5956930,0.300608,-0.141520,0.984296,-26.809999,-138.600006,-19.809999,21.00
5956941,0.324032,-0.085888,0.926224,-30.590000,-141.119995,-17.639999,21.00
5956952,0.360632,-0.061976,0.884744,-40.529999,-141.750000,-14.980000,21.07
5956963,0.360632,-0.109312,0.816424,-42.000000,-141.610001,-16.520000,21.07
5956974,0.377712,-0.158600,0.760792,-41.930000,-141.679993,-15.820000,21.02
5956986,0.412848,-0.198616,0.693936,-34.439999,-140.630005,-16.520000,21.04
5956997,0.443592,-0.135664,0.583648,-31.360001,-137.619995,-14.840000,21.04
5957008,0.476776,-0.100528,0.461160,-29.750000,-132.229996,-13.440000,21.05
5957019,0.501176,-0.077592,0.368928,-30.870001,-127.050003,-12.250000,21.05
5957030,0.541680,-0.122976,0.305488,-30.730000,-118.089996,-11.690000,21.08
5957041,0.532896,-0.144936,0.220088,-23.520000,-107.379997,-11.550000,21.04
5957053,0.538264,-0.178608,0.170312,-14.490000,-97.160004,-11.620000,21.04
5957064,0.546072,-0.158112,0.114192,-7.070000,-87.010002,-10.150000,21.03
5957075,0.550952,-0.120536,0.079544,-1.330000,-77.699997,-8.400000,21.03
5957086,0.557784,-0.102968,0.067832,-0.070000,-66.919998,-6.370000,21.02
5957097,0.588040,-0.101992,0.064416,-1.890000,-55.369999,-3.290000,21.05
5957108,0.582184,-0.085888,0.045872,-3.290000,-43.959999,-1.050000,21.05
5957119,0.579744,-0.119560,0.021960,-3.150000,-33.389999,1.050000,21.06
5957130,0.597312,-0.147376,0.038552,-2.450000,-25.340000,3.010000,21.06
5957141,0.604632,-0.185928,0.056120,2.170000,-14.980000,3.150000,21.07
5957152,0.624640,-0.219600,0.079056,6.580000,-5.950000,4.200000,21.04
5957164,0.635864,-0.267424,0.110776,13.230000,0.910000,3.010000,21.04
5957174,0.625128,-0.298168,0.143472,21.700001,9.100000,2.030000,21.03
5957185,0.618296,-0.290360,0.159088,27.930000,16.030001,1.120000,21.03
5957196,0.631472,-0.250832,0.179584,30.240000,20.230000,0.560000,21.06
5957207,0.665144,-0.207888,0.206912,30.379999,27.440001,0.490000,21.05
5957218,0.664656,-0.169336,0.230336,25.270000,33.880001,0.840000,21.05
5957229,0.660264,-0.165920,0.277672,18.690001,39.549999,1.540000,21.03
5957240,0.646112,-0.203008,0.336720,12.250000,42.910000,1.400000,21.03
5957251,0.636352,-0.235704,0.373808,11.060000,45.500000,1.120000,21.06
5957262,0.642696,-0.258640,0.409432,11.900000,47.320000,0.490000,21.06
5957273,0.659776,-0.266936,0.431880,15.400000,49.490002,-0.490000,21.04
5957284,0.674904,-0.254736,0.436760,18.480000,53.130001,-1.260000,21.07
5957295,0.671000,-0.231312,0.456768,21.420000,57.680000,-0.910000,21.07
5957306,0.656360,-0.199592,0.480680,23.030001,61.669998,-1.470000,21.04
5957317,0.635376,-0.181048,0.536312,22.120001,64.330002,-0.910000,21.04
5957328,0.602680,-0.161528,0.579256,20.440001,65.730003,-0.910000,21.08
5957339,0.569984,-0.156648,0.627080,18.340000,65.730003,-1.470000,21.02
5957350,0.578768,-0.147376,0.626592,20.020000,66.150002,-0.700000,21.02
5957361,0.585112,-0.118096,0.640744,17.500000,69.089996,5.530000,21.07
5957372,0.691984,-0.094672,0.659288,13.790000,79.940002,2.450000,21.07
5957383,0.521184,-0.102480,0.673928,5.530000,74.900002,5.530000,21.08
5957394,0.599264,-0.099552,0.720776,1.680000,81.129997,8.960000,21.02
5957405,0.528016,-0.097600,0.781288,-2.240000,75.879997,8.190000,21.02
5957416,0.515328,-0.119560,0.808616,-6.370000,75.669998,8.890000,21.02
5957427,0.505080,-0.183000,0.817888,-3.570000,74.760002,9.030000,21.02
5957439,0.507520,-0.180072,0.811056,-0.700000,75.250000,9.870000,21.04
5957449,0.528016,-0.190808,0.792512,3.500000,78.400002,10.010000,21.04
5957460,0.508008,-0.177144,0.807640,3.990000,79.730003,12.110000,21.04
5957471,0.488976,-0.190808,0.844240,5.880000,80.639999,10.990000,21.04
5957482,0.447496,-0.193736,0.904752,9.380000,79.660004,10.570000,21.04
5957493,0.425048,-0.182512,0.955504,11.480000,75.949997,10.990000,21.08
5957504,0.419192,-0.170800,0.965752,14.910000,74.059998,8.890000,21.08
5957514,0.405040,-0.156648,0.928664,15.680000,72.800003,8.610000,21.10
5957525,0.408944,-0.164456,0.877424,17.430000,74.690002,7.140000,21.03
5957536,0.399672,-0.163480,0.832040,20.160000,76.930000,6.860000,21.03
5957547,0.382104,-0.135176,0.882792,14.560000,78.050003,11.340000,21.04
5957558,0.350384,-0.136152,0.922320,15.610000,79.169998,10.710000,21.04
5957569,0.326472,-0.112240,0.997472,10.290000,77.000000,13.930000,21.05
5957580,0.296704,-0.151768,1.055544,8.960000,73.360001,13.090000,21.03
5957591,0.280600,-0.142984,1.082872,7.840000,69.089996,12.180000,21.03
5957602,0.278160,-0.187392,1.055056,7.980000,66.080002,10.010000,21.01
5957613,0.283528,-0.201056,0.993080,11.620000,65.449997,8.890000,21.01
5957624,0.290848,-0.185928,0.964776,11.760000,64.120003,10.010000,21.03
5957635,0.305000,-0.161040,1.007232,7.910000,66.360001,12.880000,21.03
5957646,0.273768,-0.152744,1.052128,7.490000,66.010002,12.250000,21.05
5957657,0.250832,-0.157624,1.092144,5.320000,64.050003,12.250000,21.06
5957668,0.229848,-0.205936,1.107760,6.930000,61.950001,10.780000,21.06
5957679,0.216184,-0.233752,1.105320,11.760000,59.709999,10.710000,21.03
5957690,0.225944,-0.230824,1.115568,14.910000,59.570000,10.850000,21.03
5957700,0.208376,-0.220576,1.142896,16.799999,58.799999,10.850000,21.08
5957711,0.194712,-0.210816,1.230736,11.550000,57.889999,11.410000,21.00
5957722,0.152744,-0.230336,1.305888,9.100000,53.689999,10.570000,21.00
5957733,0.135176,-0.248880,1.374208,7.420000,46.689999,9.800000,21.05
5957744,0.143472,-0.292800,1.412760,7.350000,42.770000,8.820000,21.05
5957755,0.151280,-0.304024,1.441064,7.350000,36.330002,7.630000,21.02
5957766,0.151768,-0.297192,1.503040,4.270000,30.730000,6.440000,21.02
5957777,0.138592,-0.314760,1.578192,-0.560000,25.690001,4.620000,21.04
5957788,0.126880,-0.328912,1.637240,-2.310000,17.219999,3.920000,21.10
5957799,0.112728,-0.349408,1.666032,-3.710000,6.790000,1.960000,21.10
5957810,0.107848,-0.363072,1.673840,-5.670000,-3.920000,0.420000,21.05
5957821,0.110776,-0.372344,1.689456,-7.280000,-11.550000,-1.680000,21.05
5957832,0.109312,-0.385032,1.691408,-7.560000,-21.209999,-5.250000,21.07
5957843,0.110776,-0.386496,1.673840,-4.340000,-30.240000,-9.310000,20.99
5957855,0.128344,-0.379664,1.651880,-3.220000,-40.040001,-12.810000,20.99
5957866,0.126392,-0.366976,1.637728,-2.800000,-49.980000,-15.960000,21.06
5957877,0.134200,-0.356728,1.642120,-5.250000,-57.400002,-17.920000,21.06
5957888,0.118584,-0.363560,1.624064,-3.010000,-69.160004,-20.650000,21.06
5957899,0.128344,-0.358192,1.576240,1.330000,-79.309998,-24.990000,21.06
5957910,0.152744,-0.340136,1.495720,4.900000,-87.430000,-27.930000,21.06
5957922,0.164944,-0.291336,1.411296,10.640000,-93.730003,-30.590000,21.05
5957933,0.184464,-0.211792,1.350784,12.250000,-98.000000,-29.959999,21.05
5957944,0.202520,-0.120536,1.309304,9.520000,-104.440002,-28.840000,21.04
5957955,0.214720,-0.073688,1.259040,3.360000,-110.459999,-27.510000,21.04
5957966,0.238632,-0.035136,1.209264,-1.680000,-115.080002,-24.360001,21.04
5957977,0.244976,-0.015616,1.149728,-9.940000,-118.370003,-22.120001,21.02
5957988,0.260592,0.004392,1.092144,-17.150000,-121.239998,-19.459999,21.02
5957999,0.285480,-0.023424,0.997960,-21.350000,-122.290001,-18.830000,21.05
5958010,0.296216,-0.080520,0.934520,-24.360001,-122.430000,-16.940001,21.04
5958022,0.313784,-0.119072,0.878400,-20.020000,-123.059998,-16.379999,21.04
5958033,0.335256,-0.135664,0.807152,-13.300000,-122.639999,-16.660000,21.00
5958044,0.372344,-0.130296,0.754448,-7.700000,-120.959999,-15.610000,21.00
5958055,0.398208,-0.127368,0.686616,-0.210000,-117.389999,-16.100000,21.04
5958067,0.407480,-0.082960,0.652456,0.280000,-115.150002,-13.090000,21.04
5958078,0.429440,-0.066368,0.638792,2.030000,-111.580002,-11.620000,21.04
5958089,0.417728,-0.007320,0.568032,-0.560000,-108.010002,-9.800000,21.07
5958100,0.426024,-0.005368,0.500200,-4.620000,-104.930000,-7.630000,21.07
5958111,0.447984,-0.023912,0.411872,-6.860000,-99.750000,-5.530000,21.02
5958122,0.477264,-0.039528,0.344528,-9.030000,-93.940002,-2.590000,21.02
5958133,0.521672,-0.040992,0.309880,-13.160000,-85.050003,0.770000,21.02
5958144,0.540216,-0.045384,0.302560,-16.240000,-74.900002,2.730000,21.05
5958155,0.542168,-0.077104,0.309880,-17.709999,-65.730003,4.130000,21.05
5958166,0.537288,-0.116144,0.289872,-15.050000,-58.939999,4.340000,21.04
5958177,0.541192,-0.156160,0.257664,-10.780000,-51.380001,3.850000,21.05
5958189,0.562664,-0.180072,0.238632,-5.530000,-44.240002,3.850000,21.05
5958200,0.594384,-0.155672,0.205936,-4.340000,-35.419998,4.340000,21.07
5958211,0.601216,-0.130784,0.203008,-5.250000,-28.209999,5.390000,21.07
5958222,0.600240,-0.130296,0.217648,-7.070000,-19.389999,5.460000,21.05
5958233,0.575352,-0.139080,0.246928,-10.290000,-12.040000,6.160000,21.05
5958244,0.566080,-0.180560,0.265472,-9.100000,-7.000000,4.900000,21.05
5958255,0.586576,-0.209352,0.260104,-5.460000,-2.380000,4.480000,21.00
5958266,0.608048,-0.229360,0.249368,-0.840000,4.690000,3.710000,21.00
5958277,0.610488,-0.238144,0.247904,4.620000,12.180000,1.820000,21.07
5958288,0.604144,-0.199104,0.248880,9.450000,17.780001,1.820000,21.07
5958299,0.610488,-0.181048,0.298656,10.710000,24.500000,2.240000,21.05
5958310,0.583160,-0.153720,0.329888,11.760000,30.100000,2.380000,21.05
5958320,0.584624,-0.156648,0.379664,10.570000,33.459999,4.060000,21.05
5958331,0.580232,-0.162992,0.414800,10.990000,38.709999,4.130000,21.02
5958342,0.569008,-0.165432,0.438224,11.690000,42.279999,5.110000,21.02
5958353,0.573400,-0.157136,0.462624,11.760000,45.990002,6.230000,21.03
5958364,0.565592,-0.144448,0.479704,12.530000,48.860001,6.510000,21.04
5958375,0.573888,-0.122000,0.526552,7.350000,51.450001,9.310000,21.04
5958386,0.574376,-0.142496,0.569496,5.810000,55.509998,9.660000,21.00
5958397,0.564128,-0.171776,0.601704,4.970000,57.189999,9.590000,21.00
5958408,0.566080,-0.199104,0.630496,5.530000,58.520000,10.010000,21.07
5958419,0.563152,-0.216184,0.645624,8.610000,60.340000,8.400000,21.07
5958429,0.541192,-0.195200,0.676368,13.020000,60.759998,5.950000,21.06
5958440,0.638304,-0.166408,0.711016,12.810000,69.720001,7.980000,21.04
5958451,0.498248,-0.188368,0.700280,13.020000,64.750000,6.860000,21.04
5958462,0.576328,-0.164944,0.766648,8.330000,70.070000,10.500000,21.06
5958473,0.513864,-0.172752,0.826184,10.290000,66.779999,6.510000,21.06
5958484,0.513864,-0.170312,0.841800,10.010000,66.919998,6.090000,21.00
5958495,0.502152,-0.189344,0.821304,11.900000,68.040001,6.790000,21.03
5958506,0.472384,-0.181048,0.777872,16.799999,70.980003,5.530000,21.03
5958516,0.448960,-0.158600,0.758840,18.200001,71.190002,6.020000,21.04
5958527,0.445544,-0.142008,0.796904,17.010000,72.029999,5.740000,21.04
5958538,0.445056,-0.124440,0.871568,11.900000,72.379997,8.960000,21.06
5958549,0.435296,-0.117608,0.946720,10.010000,71.889999,8.750000,21.06
5958560,0.408456,-0.112240,0.973072,8.680000,69.650002,8.470000,21.01
5958571,0.390400,-0.121512,0.956480,7.700000,67.550003,8.120000,21.05
5958582,0.383568,-0.155672,0.903288,9.240000,67.339996,6.580000,21.05
5958593,0.368928,-0.153720,0.867664,11.900000,66.849998,6.720000,21.03
5958604,0.374784,-0.104920,0.906704,6.370000,67.339996,11.550000,21.03
5958614,0.349896,-0.092232,0.968680,2.800000,67.269997,12.460000,21.02
5958625,0.317688,-0.101992,1.003816,-0.840000,66.500000,12.810000,21.00
5958636,0.304512,-0.132248,1.011624,-2.800000,64.889999,12.460000,21.00
5958647,0.305000,-0.166408,1.003328,-3.500000,63.139999,13.300000,21.02
5958658,0.316712,-0.184952,0.993568,-2.660000,63.000000,13.720000,21.02
5958669,0.305976,-0.166408,1.029192,-6.650000,62.650002,16.030001,20.99
5958680,0.271816,-0.207400,1.059936,-5.180000,62.509998,13.440000,20.99
5958691,0.245464,-0.215208,1.083848,-3.780000,60.549999,12.460000,21.06
5958702,0.231312,-0.213256,1.087264,-3.640000,57.119999,12.250000,21.04
5958713,0.234728,-0.200568,1.081408,-3.780000,55.090000,12.810000,21.04
5958724,0.252296,-0.181536,1.132648,-8.540000,53.970001,15.680000,21.02
5958735,0.240096,-0.201544,1.223416,-15.680000,52.639999,16.520000,21.02
5958746,0.201056,-0.230824,1.311256,-21.559999,47.950001,16.590000,21.05
5958758,0.186416,-0.283040,1.403000,-22.820000,42.630001,15.120000,21.04
5958769,0.187392,-0.349408,1.435208,-22.610001,38.430000,13.440000,21.04
5958779,0.170312,-0.387960,1.431792,-19.040001,35.070000,12.670000,21.05
5958790,0.152744,-0.321592,1.577704,-16.660000,33.180000,13.300000,21.05
5958801,0.141520,-0.400160,1.504504,-17.990000,24.990000,9.030000,21.04
5958812,0.116632,-0.437736,1.564528,-13.720000,18.690001,5.810000,21.00
5958823,0.135664,-0.461160,1.597224,-8.540000,9.800000,3.220000,21.00
5958834,0.145912,-0.466528,1.608448,-4.410000,2.240000,0.910000,21.02
5958845,0.155184,-0.440176,1.609424,-1.400000,-3.080000,-1.120000,21.02
5958856,0.154208,-0.426024,1.609424,-0.070000,-10.080000,-3.780000,21.02
5958867,0.152744,-0.424072,1.599664,1.680000,-16.660000,-7.140000,21.02
5958879,0.150792,-0.425536,1.573312,4.620000,-24.150000,-9.240000,21.04
5958890,0.160552,-0.428952,1.529392,9.170000,-29.260000,-13.160000,21.05
5958901,0.163480,-0.363072,1.490840,11.970000,-33.529999,-13.860000,21.05
5958912,0.164944,-0.332328,1.474736,11.130000,-40.599998,-14.280000,21.01
5958923,0.166896,-0.285968,1.466440,7.630000,-46.549999,-15.120000,21.01
5958934,0.163480,-0.276696,1.466928,3.290000,-54.529999,-16.590000,21.03
5958945,0.172264,-0.243024,1.467904,-4.200000,-61.529999,-15.540000,20.99
5958956,0.180072,-0.227896,1.445944,-11.690000,-70.000000,-16.309999,20.99
5958967,0.187392,-0.230336,1.415688,-17.639999,-78.610001,-17.500000,21.05
5958979,0.202032,-0.254248,1.361032,-20.510000,-86.309998,-18.900000,21.05
5958990,0.206912,-0.244000,1.292712,-23.520000,-91.980003,-20.090000,21.00
5959001,0.210816,-0.237168,1.228296,-24.290001,-98.279999,-20.790001,21.00
5959012,0.223992,-0.204472,1.186328,-26.879999,-105.139999,-20.580000,21.00
5959023,0.234240,-0.197152,1.135576,-26.670000,-109.760002,-21.770000,21.00
5959034,0.247416,-0.200080,1.084824,-26.320000,-115.430000,-22.889999,21.00
5959045,0.275232,-0.199104,1.031632,-26.459999,-119.279999,-22.120001,21.04
5959057,0.296704,-0.154696,0.966728,-28.980000,-123.550003,-22.330000,20.99
5959068,0.311832,-0.158112,0.916952,-28.280001,-125.300003,-22.120001,20.99
5959079,0.309392,-0.127856,0.883280,-32.410000,-129.990005,-20.719999,20.96
5959090,0.303048,-0.150304,0.849608,-31.150000,-131.880005,-22.120001,20.96
5959101,0.310856,-0.139568,0.785192,-32.130001,-135.589996,-20.580000,21.01
5959112,0.331840,-0.140544,0.711992,-28.490000,-136.639999,-20.090000,21.03
5959124,0.363072,-0.110776,0.615856,-27.719999,-136.360001,-19.389999,21.03
5959135,0.391864,-0.144936,0.504104,-25.830000,-133.350006,-19.740000,21.04
5959146,0.414800,-0.171776,0.411872,-22.400000,-129.990005,-22.120001,21.04
5959157,0.476776,-0.177144,0.312808,-16.170000,-122.639999,-19.110001,20.99
5959168,0.486536,-0.163480,0.239120,-10.780000,-114.870003,-18.200001,21.02
5959179,0.517280,-0.160552,0.202032,-5.810000,-105.209999,-16.590000,21.02
5959191,0.519232,-0.120536,0.167384,-4.270000,-96.809998,-14.420000,21.04
5959202,0.515816,-0.112728,0.133712,-2.170000,-87.220001,-12.040000,21.04
5959213,0.537776,-0.121024,0.104432,-1.680000,-77.910004,-11.130000,21.00
5959224,0.576816,-0.111264,0.075640,-1.400000,-65.660004,-6.510000,20.98
5959236,0.583648,-0.112240,0.054168,-3.500000,-54.180000,-3.710000,20.98
5959247,0.588528,-0.142008,0.040992,-5.040000,-42.560001,-1.470000,21.07
5959258,0.589016,-0.184952,0.059048,-4.130000,-33.180000,-0.070000,21.07
5959269,0.587552,-0.206424,0.085400,-1.610000,-24.150000,0.980000,21.03
5959280,0.610000,-0.239120,0.096136,4.480000,-15.190000,1.610000,21.02
5959291,0.639280,-0.242048,0.110288,7.560000,-5.530000,2.450000,21.02
5959302,0.649040,-0.257664,0.133712,10.780000,2.870000,3.500000,21.01
5959313,0.650992,-0.251320,0.168848,11.690000,12.250000,3.850000,21.01
5959324,0.629032,-0.244000,0.184464,13.860000,20.230000,3.710000,21.00
5959335,0.634888,-0.232776,0.221552,13.580000,25.549999,5.600000,21.05
5959346,0.640744,-0.230824,0.263520,13.650000,32.480000,5.670000,21.05
5959357,0.640256,-0.228384,0.306952,13.580000,38.009998,6.230000,21.01
5959367,0.650992,-0.245952,0.364048,13.020000,41.930000,6.300000,21.01
5959378,0.649040,-0.250344,0.406992,13.020000,46.340000,6.160000,21.04
5959389,0.646600,-0.267424,0.455792,14.490000,49.419998,5.390000,21.04
5959400,0.647088,-0.262056,0.494344,17.780001,51.520000,5.110000,21.00
5959411,0.639280,-0.238144,0.509960,19.250000,53.900002,4.620000,20.98
5959422,0.632936,-0.228872,0.544608,18.480000,56.560001,5.180000,20.98
5959433,0.607560,-0.216672,0.582184,18.549999,57.610001,4.690000,21.02
5959443,0.581208,-0.213256,0.612440,18.340000,58.029999,3.640000,21.02
5959454,0.564616,-0.230824,0.624152,20.160000,57.610001,1.750000,21.02
5959465,0.562664,-0.236192,0.629520,22.959999,57.119999,1.540000,20.97
5959476,0.578768,-0.223016,0.625616,27.090000,58.520000,0.210000,20.97
5959488,0.659776,-0.159088,0.673440,26.879999,67.269997,2.590000,21.02
5959500,0.524600,-0.187392,0.671488,24.219999,64.540001,4.270000,21.02
5959511,0.578768,-0.162016,0.711016,23.590000,70.489998,7.420000,21.02
5959522,0.544608,-0.153232,0.735416,22.959999,68.599998,5.880000,21.02
5959533,0.528992,-0.162016,0.754448,21.559999,70.070000,5.880000,21.02
5959544,0.518256,-0.172752,0.777872,20.370001,69.790001,7.490000,21.02
5959555,0.518744,-0.171776,0.827648,18.690001,70.769997,9.450000,21.02
5959565,0.496784,-0.156648,0.864248,16.660000,70.279999,9.380000,21.03
5959576,0.482632,-0.158112,0.893040,12.530000,67.550003,9.590000,21.03
5959587,0.477752,-0.192760,0.913536,11.060000,65.449997,8.190000,21.01
5959598,0.471896,-0.209840,0.903776,13.440000,63.910000,7.280000,21.01
5959609,0.484584,-0.203008,0.924760,11.410000,63.279999,9.310000,21.01
5959620,0.475312,-0.208376,0.959896,12.530000,63.840000,8.400000,20.99
5959631,0.445544,-0.189832,0.968680,12.810000,63.349998,7.980000,20.99
5959641,0.412360,-0.206912,0.955992,14.700000,62.090000,7.000000,21.02
5959652,0.399672,-0.223016,0.939888,17.080000,61.040001,6.720000,21.01
5959663,0.386984,-0.218136,0.938912,18.620001,58.730000,6.650000,21.01
5959674,0.393816,-0.218624,0.967704,19.809999,58.240002,7.210000,21.04
5959685,0.391376,-0.192272,1.013088,16.799999,56.209999,7.490000,21.04
5959696,0.366976,-0.191784,1.067744,14.630000,54.599998,6.790000,21.00
5959707,0.356240,-0.175192,1.088240,12.670000,50.889999,6.510000,21.00
5959718,0.358192,-0.212280,1.079944,9.520000,48.230000,4.480000,21.01
5959729,0.354288,-0.236192,1.031144,11.130000,45.639999,3.710000,20.99
5959739,0.367952,-0.235216,0.994056,12.810000,45.779999,2.800000,20.99
5959750,0.363072,-0.210816,0.996496,10.990000,46.480000,4.130000,21.03
5959761,0.346480,-0.212768,1.032120,6.650000,46.900002,5.040000,21.03
5959772,0.310856,-0.229360,1.049688,6.230000,45.009998,3.780000,21.00
5959783,0.307928,-0.250832,1.066280,6.790000,43.119999,3.080000,21.02
5959794,0.321104,-0.229360,1.081896,8.330000,41.509998,3.360000,21.02
5959805,0.348432,-0.223992,1.092632,6.930000,41.790001,3.500000,21.04
5959815,0.350384,-0.232288,1.151192,4.060000,42.490002,4.200000,21.04
5959826,0.324032,-0.242536,1.198528,2.100000,42.560001,3.850000,20.99
5959837,0.293776,-0.275232,1.233176,2.520000,39.830002,3.220000,20.99
5959848,0.285480,-0.291824,1.240984,5.250000,38.290001,2.730000,21.01
5959858,0.289384,-0.282064,1.250256,6.650000,36.959999,2.870000,21.02
5959869,0.311344,-0.288408,1.290272,5.950000,36.189999,2.870000,21.02
5959880,0.299144,-0.264984,1.339072,3.710000,34.860001,2.800000,21.01
5959891,0.278160,-0.243512,1.423984,-1.750000,29.889999,2.940000,21.01
5959902,0.264008,-0.234728,1.506456,-8.330000,23.170000,3.570000,20.99
5959913,0.243512,-0.269864,1.554768,-14.350000,17.010000,3.920000,20.99
5959924,0.237168,-0.324032,1.574776,-14.350000,9.870000,2.660000,20.99
5959935,0.220088,-0.340624,1.605520,-12.880000,1.890000,1.050000,21.01
5959946,0.193248,-0.342088,1.663104,-12.880000,-5.880000,-1.050000,21.01
5959957,0.185928,-0.370392,1.681160,-11.060000,-17.570000,-3.010000,21.01
5959968,0.204472,-0.391376,1.670424,-6.790000,-29.330000,-6.020000,21.01
5959979,0.210816,-0.397232,1.647488,-3.920000,-38.150002,-9.380000,20.99
5959990,0.212280,-0.391376,1.629432,1.960000,-48.509998,-13.790000,21.02
5960002,0.198616,-0.328424,1.598200,5.810000,-60.970001,-15.470000,21.02
5960013,0.208864,-0.284504,1.568432,6.580000,-71.680000,-17.219999,21.02
5960024,0.223504,-0.224480,1.546960,2.590000,-83.650002,-16.870001,21.02
5960035,0.222528,-0.190808,1.531832,-1.820000,-94.919998,-17.219999,21.00
5960046,0.209840,-0.185440,1.514752,-6.370000,-104.160004,-18.690001,21.00
5960058,0.212280,-0.179584,1.466928,-9.450000,-116.620003,-19.530001,21.00
5960070,0.237656,-0.169824,1.370304,-11.270000,-127.120003,-21.139999,21.01
5960081,0.257176,-0.163968,1.243912,-12.320000,-135.169998,-21.770000,21.00
5960092,0.276696,-0.180072,1.161928,-11.760000,-140.839996,-22.820000,21.00
5960103,0.279624,-0.176168,1.038952,-6.860000,-145.039993,-25.129999,20.98
5960116,0.293776,-0.159088,0.892064,-1.120000,-148.539993,-25.549999,20.98
5960127,0.318176,-0.138104,0.747616,5.180000,-148.610001,-26.110001,20.96
5960138,0.327936,-0.071248,0.648552,7.490000,-146.580002,-23.240000,21.00
5960149,0.353312,-0.017080,0.534848,8.890000,-141.119995,-20.020000,21.00
5960161,0.378688,0.029280,0.422608,5.880000,-136.360001,-16.309999,20.99
5960172,0.424560,0.032696,0.357216,-0.770000,-127.820000,-12.110000,20.99
5960183,0.448472,0.021960,0.304024,-4.550000,-117.949997,-8.260000,21.00
5960194,0.451400,0.002928,0.260104,-8.190000,-108.570000,-4.690000,20.98
5960205,0.472384,-0.008296,0.219112,-13.930000,-100.589996,-0.770000,20.98
5960216,0.490928,-0.010736,0.166896,-18.200001,-90.230003,1.400000,21.00
5960228,0.512400,-0.059536,0.120536,-20.719999,-78.889999,2.520000,21.00
5960239,0.545096,-0.125416,0.099064,-20.719999,-66.919998,3.150000,21.01
5960250,0.558760,-0.170800,0.100528,-16.870001,-54.950001,2.660000,20.98
5960261,0.546072,-0.231800,0.052704,-9.870000,-47.459999,1.400000,20.98
5960272,0.572912,-0.206424,0.111264,-5.320000,-36.119999,2.590000,21.02
5960283,0.571936,-0.197640,0.119072,-0.840000,-26.389999,2.170000,21.02
5960294,0.568032,-0.185440,0.120048,2.450000,-17.709999,1.610000,21.04
5960305,0.584624,-0.180072,0.125416,5.530000,-9.870000,0.840000,20.97
5960316,0.596824,-0.179584,0.122488,8.750000,0.000000,0.770000,20.97
5960327,0.615856,-0.169336,0.139080,9.940000,9.800000,1.750000,21.02
5960337,0.634400,-0.171288,0.171288,12.040000,18.480000,1.820000,21.02
5960348,0.628056,-0.170312,0.184464,14.630000,27.510000,2.380000,21.03
5960359,0.635864,-0.161528,0.230336,15.330000,33.320000,3.920000,21.03
5960370,0.635376,-0.150304,0.276208,14.840000,40.810001,5.040000,21.00
5960381,0.618296,-0.125904,0.318664,13.370000,45.709999,6.160000,20.98
5960391,0.619272,-0.003416,0.370392,10.430000,49.490002,7.840000,20.98
5960402,0.601704,-0.116632,0.405528,7.700000,53.480000,8.120000,21.00
5960413,0.588040,-0.125904,0.424560,6.230000,56.770000,9.100000,21.00
5960424,0.595360,-0.136152,0.453352,3.570000,59.779999,10.920000,21.01
5960435,0.592920,-0.159576,0.472384,4.060000,64.889999,10.780000,20.98
5960446,0.582672,-0.166896,0.493856,5.600000,68.250000,11.410000,20.98
5960457,0.587064,-0.187880,0.515328,7.350000,70.980003,11.620000,21.04
5960468,0.575352,-0.204472,0.525088,11.270000,74.620003,10.920000,21.04
5960479,0.564616,-0.216184,0.553392,12.600000,77.559998,11.760000,21.04
5960490,0.565592,-0.218136,0.573400,18.480000,81.199997,10.220000,21.04
5960500,0.479216,-0.225944,0.571936,23.379999,75.389999,8.470000,21.05
5960512,0.528504,-0.192760,0.622200,19.180000,91.279999,11.830000,21.03
5960523,0.470920,-0.149816,0.691496,21.770000,92.330002,11.970000,21.03
5960534,0.428464,-0.136640,0.705160,19.459999,87.360001,9.380000,21.03
5960544,0.492880,-0.122000,0.730048,15.120000,91.070000,8.960000,21.03
5960555,0.430904,-0.143472,0.718336,15.120000,90.930000,8.960000,21.00
5960566,0.441640,-0.124928,0.767624,9.380000,91.139999,12.250000,21.00
5960577,0.425048,-0.122488,0.812032,7.140000,93.099998,12.390000,21.00
5960588,0.415776,-0.110776,0.863272,2.520000,92.330002,15.190000,21.03
5960599,0.405040,-0.132248,0.913536,0.700000,91.839996,15.190000,21.03
5960609,0.379664,-0.138104,0.924760,1.540000,90.300003,15.190000,21.02
5960620,0.375760,-0.153720,0.950136,-0.910000,88.830002,17.010000,21.02
5960631,0.354288,-0.183000,0.967704,1.890000,89.320000,16.309999,21.02
5960642,0.331352,-0.163480,0.986248,1.610000,88.760002,17.920000,20.98
5960653,0.316712,-0.162992,1.019432,0.980000,88.480003,17.850000,20.98
5960664,0.292312,-0.159088,1.057496,0.280000,86.169998,18.410000,20.98
5960675,0.282552,-0.166408,1.098488,-1.050000,82.809998,20.020000,20.98
5960686,0.274744,-0.173728,1.127280,-0.490000,80.010002,19.389999,21.04
5960697,0.261568,-0.187392,1.193160,-5.460000,77.139999,21.209999,21.03
5960708,0.227896,-0.223992,1.232688,-5.250000,74.199997,20.090000,21.03
5960719,0.196176,-0.219112,1.245864,-5.810000,68.389999,20.230000,21.00
5960730,0.226432,-0.255224,1.258552,1.330000,68.459999,24.010000,21.00
5960741,0.175192,-0.264496,1.311256,-9.030000,59.709999,17.219999,20.96
5960752,0.192272,-0.306464,1.363960,-10.850000,55.650002,17.500000,20.96
5960763,0.179584,-0.353312,1.431792,-9.660000,50.330002,15.190000,21.02
5960774,0.162992,-0.384056,1.460584,-3.220000,43.680000,12.670000,21.01
5960785,0.165432,-0.407480,1.468880,3.640000,36.610001,9.310000,21.01
5960796,0.147864,-0.424560,1.467416,9.800000,30.799999,4.900000,21.01
5960807,0.129808,-0.419680,1.480592,16.379999,25.900000,2.870000,21.01
5960817,0.115168,-0.381616,1.512312,18.410000,19.250000,0.630000,20.98
5960828,0.088816,-0.355752,1.552328,19.389999,11.130000,-1.680000,21.02
5960839,0.083448,-0.330376,1.598200,17.990000,3.220000,-2.800000,21.02
5960850,0.084912,-0.305000,1.613816,13.440000,-5.880000,-3.920000,21.02
5960861,0.094672,-0.300120,1.615280,9.310000,-14.560000,-4.830000,21.02
5960872,0.095648,-0.305976,1.623088,2.800000,-21.490000,-5.810000,20.99
5960883,0.093208,-0.335744,1.628944,-0.490000,-29.260000,-7.770000,21.00
5960896,0.086376,-0.357216,1.644072,-2.170000,-38.849998,-10.290000,21.00
5960907,0.085400,-0.369416,1.646024,-3.360000,-49.560001,-12.250000,21.03
5960918,0.086864,-0.379176,1.647000,-5.250000,-60.480000,-14.980000,21.03
5960929,0.088328,-0.383080,1.637240,-7.140000,-72.099998,-18.129999,21.02
5960941,0.105896,-0.411384,1.616744,-4.410000,-83.370003,-23.100000,21.00
5960952,0.124440,-0.399184,1.575752,-0.490000,-92.260002,-28.000000,21.00
5960963,0.152744,-0.356728,1.529880,3.360000,-101.849998,-30.940001,21.01
5960974,0.164456,-0.294264,1.461560,4.900000,-111.089996,-33.880001,21.01
5960985,0.173728,-0.233752,1.405928,3.500000,-120.400002,-35.419998,21.03
5960996,0.190808,-0.180072,1.320040,2.100000,-128.449997,-36.540001,20.99
5961007,0.215208,-0.138104,1.212192,0.070000,-133.490005,-36.470001,20.99
5961018,0.251320,-0.083448,1.131184,-3.010000,-137.830002,-34.790001,21.03
5961029,0.283040,-0.038552,1.042368,-4.830000,-139.509995,-32.970001,21.03
5961040,0.305488,-0.007320,0.962336,-11.270000,-140.770004,-28.910000,21.07
5961051,0.325984,-0.010248,0.868152,-13.230000,-140.350006,-27.440001,20.99
5961063,0.353312,0.013176,0.795440,-14.700000,-140.139999,-23.660000,20.99
5961074,0.393328,0.049776,0.702232,-18.059999,-137.899994,-20.020000,21.00
5961085,0.406992,0.065392,0.605608,-20.230000,-134.889999,-15.400000,21.00
5961096,0.445056,0.057584,0.519232,-23.240000,-131.179993,-12.110000,21.03
5961107,0.435296,0.005856,0.450912,-22.330000,-125.230003,-10.570000,21.03
5961118,0.448960,-0.014640,0.367464,-19.180000,-119.769997,-7.210000,21.03
5961129,0.476288,-0.027816,0.301584,-15.120000,-111.790001,-4.690000,21.01
5961140,0.507032,-0.008784,0.234728,-12.810000,-104.230003,-1.820000,21.01
5961151,0.508008,0.009272,0.184952,-12.530000,-93.870003,1.190000,21.00
5961162,0.524600,-0.013664,0.161040,-13.580000,-83.300003,4.620000,21.00
5961173,0.502152,-0.047824,0.163968,-17.920000,-75.879997,4.830000,20.95
5961184,0.516304,-0.105408,0.149328,-13.090000,-65.870003,7.980000,21.02
5961197,0.527040,-0.127368,0.133224,-10.780000,-55.860001,9.800000,21.02
5961210,0.548512,-0.165920,0.104920,-6.160000,-45.570000,10.080000,20.98
5961222,0.556808,-0.175192,0.098088,-3.920000,-35.349998,10.990000,21.01
5961233,0.567056,-0.213256,0.110288,-2.030000,-24.709999,11.060000,21.01
5961244,0.564616,-0.247904,0.130296,1.610000,-15.260000,10.850000,21.04
5961255,0.575840,-0.268400,0.141032,5.250000,-5.530000,9.660000,21.04
5961266,0.581696,-0.276696,0.153720,7.630000,1.190000,9.310000,21.00
5961277,0.602192,-0.288896,0.176656,10.710000,10.220000,8.050000,21.00
5961288,0.601704,-0.279624,0.206424,12.740000,34.509998,6.580000,21.00
5961298,0.601704,-0.285968,0.237168,14.770000,24.219999,5.320000,21.01
5961311,0.593896,-0.279136,0.265472,17.150000,33.180000,3.360000,21.01
5961322,0.599264,-0.266936,0.300608,18.129999,38.080002,2.520000,20.98
5961333,0.610976,-0.256688,0.331840,19.670000,44.869999,2.170000,20.99
5961344,0.603656,-0.232288,0.376248,19.879999,51.169998,1.540000,20.99
5961355,0.597312,-0.207888,0.424072,19.320000,55.860001,1.540000,21.01
5961366,0.579256,-0.175680,0.474336,15.960000,60.549999,2.310000,21.01
5961376,0.559248,-0.153232,0.530456,14.420000,63.910000,2.660000,20.98
5961387,0.544608,-0.146400,0.570472,12.530000,65.379997,3.290000,21.00
5961398,0.555344,-0.143472,0.583648,12.740000,68.110001,4.270000,21.00
5961409,0.547536,-0.140544,0.595360,12.110000,69.860001,5.460000,20.97
5961420,0.544608,-0.157624,0.647576,11.480000,72.379997,6.440000,20.97
5961431,0.527528,-0.139568,0.692472,12.390000,73.919998,6.440000,20.99
5961441,0.532408,-0.150304,0.763232,10.220000,75.949997,15.400000,20.99
5961452,0.664168,-0.074664,0.806664,8.890000,83.860001,9.590000,21.01
5961463,0.437248,-0.102968,0.814960,8.680000,72.309998,9.450000,21.00
5961474,0.555344,-0.100040,0.838872,4.620000,75.739998,14.980000,21.00
5961485,0.504592,-0.095648,0.871080,3.010000,71.540001,12.180000,20.97
5961496,0.490440,-0.123952,0.918904,-3.990000,72.239998,14.700000,20.97
5961507,0.460184,-0.169336,0.975024,-2.940000,68.389999,15.680000,20.98
5961518,0.444568,-0.185928,1.008696,-3.010000,63.910000,15.820000,21.01
5961529,0.437736,-0.232776,1.016504,0.140000,59.919998,13.860000,21.01
5961540,0.428464,-0.267912,0.996008,6.370000,56.279999,11.480000,21.00
5961550,0.442128,-0.267424,0.946720,14.280000,53.830002,9.030000,21.00
5961561,0.442128,-0.258152,0.893040,23.940001,53.759998,5.880000,20.99
5961572,0.439200,-0.222528,0.860832,28.559999,54.599998,6.090000,20.99
5961583,0.430904,-0.199104,0.875472,32.970001,56.560001,5.670000,21.02
5961594,0.396256,-0.152256,0.909144,32.549999,56.980000,6.020000,20.99
5961605,0.372344,-0.147864,0.935496,31.080000,56.279999,5.600000,20.99
5961615,0.366488,-0.145424,0.930128,30.660000,55.790001,5.530000,21.04
5961626,0.378200,-0.139568,0.910608,29.120001,56.139999,5.320000,21.04
5961637,0.366976,-0.122488,0.859856,29.190001,57.610001,4.690000,21.00
5961648,0.351360,-0.112728,0.845216,24.850000,59.009998,5.530000,20.97
5961659,0.341112,-0.096624,0.917440,16.940001,60.970001,9.030000,20.97
5961670,0.320128,-0.106384,0.978928,10.080000,61.389999,10.290000,21.00
5961681,0.293776,-0.137128,1.002352,6.650000,62.090000,10.850000,21.00
5961692,0.282064,-0.176168,0.995520,7.630000,62.790001,9.660000,20.98
5961704,0.280600,-0.197640,0.991128,9.870000,63.700001,8.820000,20.98
5961715,0.273280,-0.214232,1.032608,10.010000,65.029999,9.520000,21.00
5961725,0.243512,-0.219600,1.109224,10.640000,64.959999,9.870000,20.99
5961737,0.209840,-0.207400,1.157048,10.640000,62.860001,9.520000,20.99
5961747,0.203008,-0.234728,1.206824,10.500000,60.689999,8.820000,21.01
5961758,0.212768,-0.271816,1.235616,15.750000,59.430000,7.630000,21.01
5961769,0.228384,-0.239608,1.272216,18.549999,57.400002,7.560000,21.00
5961780,0.239608,-0.234728,1.341024,16.940001,56.840000,7.840000,20.98
5961791,0.210816,-0.231312,1.409344,17.430000,54.599998,6.580000,20.98
5961802,0.181536,-0.197152,1.471808,12.460000,49.000000,6.930000,20.99
5961812,0.167384,-0.178608,1.532808,6.230000,43.750000,6.860000,20.99
5961823,0.156648,-0.189832,1.576728,-3.850000,36.259998,6.720000,21.02
5961834,0.144448,-0.237168,1.594784,-10.360000,27.930000,6.160000,21.02
5961845,0.128832,-0.266936,1.604056,-13.440000,19.670000,5.040000,20.96
5961856,0.125904,-0.291824,1.621624,-15.470000,11.690000,3.990000,21.02
5961867,0.125904,-0.314272,1.637240,-14.980000,2.800000,1.960000,21.02
5961878,0.123464,-0.317688,1.651880,-15.050000,-6.860000,-0.350000,20.99
5961889,0.121024,-0.350872,1.658224,-12.740000,-14.980000,-4.620000,20.99
5961900,0.127368,-0.365512,1.653344,-7.700000,-25.480000,-7.560000,20.99
5961912,0.123464,-0.351848,1.644560,-2.380000,-35.700001,-12.040000,20.97
5961923,0.122000,-0.331352,1.593808,2.520000,-45.290001,-15.190000,20.97
5961934,0.129320,-0.284016,1.555744,4.760000,-53.480000,-16.309999,21.00
5961945,0.127856,-0.223504,1.581608,0.630000,-63.910000,-16.590000,21.00
5961956,0.104432,-0.167872,1.630408,-9.030000,-76.510002,-17.219999,20.98
5961967,0.096624,-0.140544,1.667496,-19.950001,-92.470001,-17.500000,20.97
5961978,0.103944,-0.164944,1.643584,-29.680000,-104.370003,-20.090000,20.97
5961989,0.122000,-0.192760,1.563064,-36.119999,-118.089996,-21.980000,21.01
5962000,0.152256,-0.223504,1.494744,-37.240002,-129.429993,-24.570000,21.01
5962011,0.175680,-0.205448,1.413248,-36.820000,-138.880005,-26.250000,21.00
5962022,0.185440,-0.214720,1.313208,-31.360001,-145.039993,-29.820000,20.94
5962033,0.196176,-0.177144,1.244400,-28.209999,-152.949997,-29.190001,20.94
5962044,0.212280,-0.177144,1.188768,-22.120001,-159.880005,-31.360001,20.98
5962055,0.227896,-0.137616,1.142408,-20.719999,-166.110001,-29.820000,20.98
5962067,0.233752,-0.081496,1.045784,-14.980000,-170.100006,-29.750000,21.02
5962078,0.255712,-0.012200,0.936472,-16.520000,-172.479996,-27.440001,21.01
5962089,0.266448,-0.003416,0.846192,-20.090000,-173.320007,-25.969999,21.01
5962100,0.292800,0.020984,0.690032,-22.120001,-173.389999,-23.730000,21.01
5962111,0.348920,-0.034648,0.543632,-21.629999,-170.660004,-22.469999,21.01
5962122,0.410408,-0.028792,0.403088,-17.990000,-164.500000,-19.320000,21.01
5962133,0.477264,0.001464,0.323056,-16.799999,-154.839996,-14.350000,21.00
5962144,0.498248,0.062464,0.218624,-17.290001,-142.029999,-9.310000,21.00
5962155,0.510936,0.109312,0.122000,-21.629999,-130.970001,-3.570000,21.00
5962166,0.514840,0.100528,0.060512,-28.209999,-117.110001,0.560000,21.00
5962177,0.522648,0.049776,0.014640,-30.590000,-103.040001,4.410000,21.00
5962188,0.534360,-0.022448,-0.015616,-32.689999,-74.199997,7.000000,21.00
5962199,0.569984,-0.093696,-0.035136,-29.120001,-77.000000,8.470000,21.01
5962210,0.581208,-0.141032,-0.055144,-23.799999,-62.790001,9.520000,21.00
5962221,0.593408,-0.208376,-0.042456,-16.170000,-48.650002,9.450000,21.00
5962233,0.581696,-0.241072,-0.031720,-6.230000,-35.770000,7.840000,21.01
5962244,0.590480,-0.261568,-0.007808,3.430000,-27.090000,7.490000,21.01
5962255,0.605120,-0.258640,0.022936,12.390000,-16.100000,7.070000,20.99
5962266,0.610000,-0.214232,0.037576,16.520000,-6.090000,7.350000,20.99
5962277,0.597312,-0.169824,0.050264,16.590000,2.730000,7.490000,20.99
5962288,0.583160,-0.162992,0.083936,13.860000,9.660000,7.700000,21.00
5962299,0.579744,-0.184952,0.102480,12.110000,17.080000,7.000000,21.00
5962310,0.615368,-0.203496,0.146400,9.800000,24.570000,8.400000,20.97
5962320,0.595360,-0.244488,0.170800,11.620000,29.820000,6.230000,20.98
5962331,0.603656,-0.273280,0.197640,15.260000,36.959999,5.320000,20.98
5962342,0.600728,-0.276208,0.241072,17.990000,41.720001,4.270000,20.99
5962353,0.598288,-0.278648,0.299632,21.980000,46.480000,3.360000,20.99
5962364,0.602680,-0.275720,0.342576,25.830000,50.820000,1.820000,21.00
5962374,0.604144,-0.257664,0.370880,30.660000,54.180000,1.120000,21.00
5962386,0.621224,-0.212768,0.406016,30.590000,57.959999,2.310000,20.98
5962396,0.633424,-0.170312,0.436760,28.980000,63.070000,2.800000,20.97
5962407,0.610488,-0.122976,0.467016,24.780001,66.010002,3.780000,20.97
5962418,0.598776,-0.123952,0.517768,16.309999,69.089996,5.320000,21.00
5962429,0.563152,-0.137616,0.573888,13.230000,71.190002,5.670000,21.00
5962440,0.557296,-0.156160,0.601704,11.130000,71.120003,5.740000,20.96
5962450,0.559248,-0.187880,0.589992,13.230000,72.800003,5.110000,20.91
5962461,0.570472,-0.207400,0.554368,17.850000,76.440002,3.990000,20.91
5962472,0.586088,-0.176168,0.562176,17.780001,78.610001,4.620000,20.94
5962483,0.536800,-0.142008,0.618784,20.299999,83.860001,3.360000,20.94
5962494,0.547536,-0.152256,0.639280,17.430000,86.940002,7.420000,21.01
5962505,0.574864,-0.120536,0.704184,16.520000,93.660004,9.940000,21.01
5962515,0.488488,-0.122488,0.760304,18.549999,90.720001,9.380000,21.00
5962526,0.539728,-0.105896,0.731024,16.870001,93.870003,8.050000,20.98
5962537,0.505568,-0.141520,0.793000,12.670000,94.849998,10.780000,20.98
5962548,0.484584,-0.123952,0.865224,8.890000,94.989998,12.810000,20.98
5962559,0.452864,-0.129808,0.975024,3.430000,94.080002,12.740000,20.98
5962570,0.414312,-0.136152,1.034560,0.000000,90.230003,13.230000,21.00
5962580,0.402600,-0.159576,1.035536,-1.610000,85.120003,12.180000,21.00
5962591,0.399184,-0.207888,1.004304,-2.450000,82.669998,11.130000,20.98
5962602,0.398696,-0.240584,0.973560,0.210000,80.989998,10.570000,20.98
5962613,0.412360,-0.236192,1.008208,-1.260000,80.080002,13.650000,20.98
5962624,0.395280,-0.245464,1.054080,3.780000,79.730003,10.920000,21.01
5962635,0.365024,-0.252784,1.062864,10.500000,77.489998,9.450000,21.01
5962646,0.357704,-0.263520,1.048224,17.570000,75.180000,7.210000,21.00
5962657,0.359656,-0.249856,1.009184,27.510000,74.410004,5.950000,20.94
5962667,0.350872,-0.198616,1.005280,29.540001,73.010002,6.370000,20.94
5962678,0.333304,-0.182024,1.045784,28.980000,73.360001,6.720000,20.99
5962689,0.300120,-0.132736,1.104344,25.200001,71.260002,8.960000,20.99
5962700,0.265960,-0.102968,1.169736,14.350000,66.150002,10.710000,21.04
5962711,0.248392,-0.107848,1.234152,7.000000,60.130001,11.550000,21.04
5962721,0.237168,-0.117608,1.247816,-3.850000,55.439999,12.250000,20.98
5962732,0.243024,-0.191296,1.224392,-9.800000,49.209999,10.990000,20.97
5962743,0.258640,-0.246440,1.178520,-9.590000,46.410000,9.100000,20.97
5962754,0.271328,-0.260104,1.180472,-8.960000,43.750000,9.660000,20.99
5962765,0.276208,-0.308904,1.187792,-1.750000,42.349998,7.420000,20.99
5962776,0.259128,-0.326960,1.154608,7.000000,41.020000,4.270000,21.03
5962787,0.253760,-0.318664,1.132160,18.410000,40.110001,2.170000,20.98
5962798,0.241560,-0.289384,1.127280,25.549999,40.250000,1.400000,20.98
5962809,0.233752,-0.242536,1.189256,23.309999,39.130001,2.450000,20.98
5962820,0.208376,-0.247416,1.278560,20.090000,38.080002,2.240000,20.98
5962831,0.160552,-0.236192,1.338096,17.709999,33.740002,1.330000,20.98
5962841,0.145424,-0.253760,1.386896,16.379999,28.350000,0.280000,20.98
5962852,0.140544,-0.242536,1.438624,14.910000,23.379999,-0.140000,20.96
5962863,0.151280,-0.203496,1.479616,6.720000,15.750000,0.490000,21.01
5962874,0.146400,-0.205936,1.538664,-1.820000,9.240000,0.350000,21.01
5962885,0.140544,-0.227896,1.559648,-9.870000,3.640000,-0.700000,20.99
5962896,0.137616,-0.263032,1.555744,-15.120000,-3.780000,-2.450000,20.99
5962907,0.132248,-0.314272,1.541104,-16.660000,-12.530000,-4.620000,21.01
5962918,0.137616,-0.355264,1.525976,-13.090000,-20.230000,-7.560000,20.98
5962929,0.142008,-0.339648,1.513776,-8.960000,-26.389999,-10.220000,20.98
5962940,0.149816,-0.355752,1.498160,-2.590000,-32.759998,-13.300000,21.02
5962951,0.169336,-0.337696,1.481080,2.730000,-39.200001,-16.309999,21.02
5962962,0.179584,-0.291336,1.484496,6.580000,-44.520000,-17.219999,21.01
5962974,0.164944,-0.254736,1.504016,6.650000,-52.430000,-17.920000,20.96
5962984,0.157624,-0.200080,1.512800,3.640000,-62.580002,-17.500000,20.96
5962995,0.164944,-0.152744,1.516704,-3.220000,-71.610001,-17.780001,21.02
5963007,0.178608,-0.140056,1.498648,-11.060000,-78.330002,-17.080000,21.02
5963018,0.196664,-0.133712,1.481080,-21.770000,-87.570000,-16.240000,21.01
5963029,0.201056,-0.163968,1.439112,-26.320000,-97.370003,-18.129999,21.04
5963040,0.228872,-0.183976,1.379576,-28.700001,-106.400002,-19.320000,21.04
5963051,0.238632,-0.210816,1.287344,-24.010000,-112.559998,-22.469999,20.96
5963062,0.274256,-0.210816,1.227808,-20.299999,-120.330002,-23.030001,20.96
5963073,0.282064,-0.202032,1.181448,-15.820000,-125.580002,-24.570000,20.99
5963084,0.276208,-0.150792,1.139480,-13.440000,-132.369995,-24.080000,20.99
5963095,0.304024,-0.076616,1.118984,-17.430000,-137.690002,-21.770000,20.99
5963107,0.292312,-0.047824,1.066280,-19.320000,-142.660004,-20.790001,21.00
5963118,0.305488,-0.004392,1.033584,-28.280001,-149.029999,-17.010000,21.00
5963129,0.310856,-0.019520,0.949648,-30.940001,-153.089996,-16.379999,21.01
5963140,0.346968,-0.009760,0.843752,-36.119999,-155.960007,-14.210000,21.01
5963151,0.381128,-0.044408,0.707112,-36.119999,-155.119995,-13.930000,20.96
5963162,0.420168,-0.082472,0.564128,-33.669998,-152.179993,-13.860000,20.97
5963173,0.457744,-0.135664,0.445056,-28.629999,-145.949997,-13.370000,20.97
5963185,0.487512,-0.173240,0.352336,-23.660000,-138.110001,-11.270000,20.98
5963196,0.500688,-0.164944,0.276208,-13.510000,-129.850006,-11.410000,20.98
5963207,0.503616,-0.120048,0.209840,-7.490000,-119.910004,-9.170000,20.96
5963218,0.517280,-0.069296,0.132736,-6.370000,-108.430000,-7.280000,20.96
5963229,0.518256,-0.033184,0.081008,-7.420000,-96.389999,-5.110000,20.96
5963240,0.522160,-0.008296,0.045384,-12.320000,-86.870003,-1.540000,20.98
5963251,0.547048,-0.037576,0.030744,-17.219999,-72.800003,17.780001,20.98
5963262,0.541680,-0.100528,0.026840,-18.969999,-59.360001,1.680000,20.98
5963273,0.535824,-0.147376,0.009760,-17.290001,-46.130001,1.820000,21.00
5963284,0.538752,-0.174704,-0.010248,-14.000000,-36.049999,2.170000,21.00
5963295,0.530944,-0.207888,-0.021960,-11.340000,-25.059999,-1.400000,20.99
5963306,0.579256,-0.257664,-0.019520,-0.770000,-11.200000,2.800000,20.99
5963317,0.576816,-0.244488,-0.006832,3.570000,-0.280000,2.310000,20.98
5963328,0.575840,-0.251808,0.018544,8.050000,8.540000,2.450000,20.98
5963339,0.567056,-0.236680,0.045872,10.220000,18.480000,2.870000,20.98
5963350,0.569008,-0.234240,0.084912,11.550000,27.580000,2.590000,20.98
5963361,0.573400,-0.224480,0.118584,12.460000,34.439999,2.450000,20.98
5963371,0.583648,-0.215208,0.153232,11.620000,42.700001,2.800000,20.98
5963382,0.577304,-0.203008,0.203496,10.640000,49.139999,2.310000,20.98
5963393,0.579744,-0.219112,0.260592,10.080000,56.000000,2.520000,21.01
5963404,0.582672,-0.223016,0.306952,10.360000,62.160000,2.380000,20.98
5963414,0.576816,-0.210816,0.370392,11.340000,65.589996,2.870000,20.98
5963425,0.576328,-0.207888,0.409432,12.600000,69.440002,3.360000,21.02
5963436,0.573400,-0.195200,0.455792,15.190000,72.169998,3.640000,21.02
5963447,0.587552,-0.158112,0.478240,15.750000,75.669998,4.690000,21.00
5963457,0.596336,-0.143960,0.518256,15.750000,80.080002,5.810000,21.00
5963468,0.575352,-0.132736,0.569008,12.110000,82.529999,7.700000,21.01
5963479,0.552904,-0.141032,0.619272,9.450000,84.489998,8.890000,20.98
5963489,0.534360,-0.161040,0.686616,8.540000,84.139999,9.660000,20.98
5963500,0.533384,-0.182024,0.721264,10.220000,83.650002,9.310000,21.00
5963511,0.551928,-0.242536,0.730536,13.230000,77.349998,16.170000,21.00
5963522,0.692472,-0.186904,0.727120,18.830000,95.970001,9.100000,21.01
5963533,0.437736,-0.213744,0.729560,23.240000,85.750000,5.600000,20.98
5963544,0.538264,-0.225944,0.710040,19.040001,93.099998,15.190000,20.98
5963554,0.456768,-0.149328,0.902800,14.770000,86.870003,9.310000,21.00
5963565,0.442616,-0.203496,0.931104,15.330000,84.419998,8.540000,21.00
5963576,0.451888,-0.207400,0.953552,19.530001,81.690002,8.400000,21.02
5963587,0.465552,-0.208864,0.921344,25.620001,80.290001,7.210000,21.02
5963598,0.481168,-0.163480,0.926224,24.430000,80.150002,7.910000,21.01
5963608,0.471408,-0.143472,0.996496,16.309999,80.779999,8.750000,21.00
5963619,0.418704,-0.124928,1.077992,7.770000,77.349998,10.150000,21.00
5963630,0.372832,-0.147864,1.138016,5.180000,71.820000,9.100000,20.96
5963640,0.337208,-0.168848,1.149240,3.360000,65.309998,9.310000,20.96
5963651,0.353800,-0.195688,1.127280,2.030000,59.430000,8.610000,21.04
5963662,0.369904,-0.237656,1.067744,4.200000,57.750000,5.810000,21.04
5963673,0.371856,-0.240584,1.006256,9.660000,56.419998,4.900000,21.02
5963684,0.385520,-0.212768,0.986736,12.810000,57.119999,4.830000,21.01
5963695,0.372832,-0.199592,1.001376,13.300000,58.169998,5.950000,21.01
5963705,0.353312,-0.182024,1.016016,16.660000,58.730000,5.950000,21.00
5963716,0.343064,-0.167872,1.011136,18.969999,58.590000,6.230000,21.00
5963727,0.330864,-0.158112,0.993568,21.070000,59.360001,7.490000,21.01
5963737,0.320128,-0.120048,1.013576,15.820000,60.340000,10.500000,21.01
5963748,0.295240,-0.125904,1.060424,9.660000,60.340000,11.760000,20.99
5963759,0.258152,-0.125904,1.117032,2.240000,57.400002,14.000000,20.96
5963770,0.234728,-0.145424,1.163392,-2.590000,54.250000,13.580000,20.96
5963781,0.210816,-0.173240,1.177544,-7.560000,50.330002,13.860000,20.99
5963791,0.218624,-0.205448,1.175104,-9.800000,46.619999,13.230000,20.99
5963802,0.218136,-0.244976,1.149240,-8.330000,44.450001,11.340000,21.00
5963813,0.227408,-0.262056,1.124840,-3.710000,42.840000,10.430000,20.95
5963824,0.247904,-0.258640,1.133624,-1.890000,42.490002,10.290000,20.95
5963835,0.241560,-0.272792,1.159000,2.030000,41.509998,9.450000,21.00
5963845,0.217160,-0.284504,1.200480,7.140000,39.759998,8.400000,21.00
5963856,0.213744,-0.298168,1.215608,12.250000,37.939999,6.440000,20.98
5963867,0.191784,-0.269864,1.203896,15.610000,35.000000,5.600000,20.98
5963877,0.200568,-0.245464,1.195600,16.100000,34.020000,5.110000,21.00
5963888,0.189832,-0.241072,1.206336,13.650000,33.110001,5.320000,20.96
5963899,0.176168,-0.232776,1.252208,9.100000,31.290001,5.460000,20.96
5963910,0.159088,-0.243024,1.320528,7.700000,27.090000,4.410000,20.98
5963920,0.148840,-0.240096,1.382992,3.080000,22.260000,4.760000,20.98
5963931,0.136152,-0.250832,1.409344,-0.140000,15.540000,4.410000,21.02
5963942,0.134688,-0.275232,1.428376,-4.690000,10.150000,3.780000,21.02
5963953,0.150304,-0.295240,1.435208,-7.210000,4.480000,2.450000,21.00
5963964,0.135664,-0.320128,1.468880,-8.820000,-1.820000,0.490000,21.02
5963975,0.112728,-0.354776,1.545984,-9.240000,-9.660000,-1.820000,21.02
5963986,0.077592,-0.390400,1.603080,-6.020000,-20.719999,-5.670000,21.01
5963997,0.071736,-0.389424,1.611864,-3.010000,-33.599998,-8.820000,21.01
5964008,0.083448,-0.398696,1.571848,0.420000,-44.520000,-13.510000,21.01
5964019,0.122976,-0.405528,1.545984,4.130000,-52.500000,-17.360001,20.99
5964030,0.140544,-0.390888,1.533296,10.780000,-61.459999,-21.350000,20.99
5964041,0.170800,-0.349408,1.514264,15.330000,-71.330002,-23.379999,21.01
5964052,0.182024,-0.283040,1.482544,20.090000,-77.980003,-26.459999,21.01
5964062,0.190808,-0.223504,1.473760,17.570000,-87.010002,-25.900000,21.00
5964073,0.200568,-0.159088,1.469856,13.510000,-96.180000,-25.200001,21.00
5964084,0.206912,-0.106384,1.448384,4.900000,-102.339996,-24.010000,20.98
5964095,0.207888,-0.065392,1.448384,-8.960000,-111.230003,-21.840000,21.01
5964106,0.209840,-0.064416,1.395192,-17.430000,-120.400002,-21.350000,21.01
5964117,0.236192,-0.093696,1.305400,-25.830000,-125.860001,-21.350000,21.00
5964128,0.249368,-0.112728,1.278560,-35.910000,-132.789993,-18.200001,21.00
5964139,0.237168,-0.175680,1.251232,-32.619999,-139.020004,-20.790001,20.99
5964150,0.251808,-0.204960,1.182912,-25.690001,-145.250000,-22.610001,20.97
5964161,0.268888,-0.240584,1.065304,-11.060000,-148.750000,-25.760000,20.97
5964172,0.300608,-0.269864,0.929152,8.330000,-151.479996,-28.559999,21.03
5964183,0.331352,-0.285480,0.839848,22.820000,-151.199997,-30.100000,21.03
5964194,0.329888,-0.145424,0.760792,35.070000,-152.320007,-26.670000,20.99
5964205,0.366000,-0.021472,0.764208,27.930000,-152.039993,-21.070000,21.02
5964216,0.320616,0.109800,0.730536,20.370001,-152.529999,-17.920000,21.02
5964227,0.342576,0.220088,0.632448,4.060000,-154.490005,-10.710000,20.98
5964238,0.376248,0.213256,0.511912,-15.680000,-152.600006,-5.880000,20.98
5964249,0.420168,0.179584,0.419680,-33.320000,-146.160004,-2.030000,21.01
5964260,0.454816,0.083936,0.321104,-40.389999,-136.639999,0.980000,21.01
5964270,0.482144,0.003416,0.209352,-38.990002,-126.980003,1.330000,20.99
5964281,0.513864,-0.097112,0.132248,-28.559999,-114.730003,1.750000,20.96
5964292,0.539240,-0.178608,0.051240,-15.890000,-103.040001,1.190000,20.96
5964303,0.588528,-0.213256,0.007320,-0.770000,-88.620003,2.940000,21.00
5964314,0.577304,-0.188856,-0.015616,12.250000,-74.199997,3.640000,21.00
5964325,0.596336,-0.172752,0.008784,19.110001,-60.689999,4.620000,20.98
5964336,0.609024,-0.144448,0.048800,24.990000,-49.490002,6.580000,20.91
5964347,0.608048,-0.102968,0.088328,24.360001,-38.360001,7.840000,20.91
5964358,0.628544,-0.062952,0.086864,20.090000,-27.580000,9.800000,20.98
5964369,0.647576,-0.063928,0.104920,12.740000,-19.250000,10.430000,20.98
5964379,0.671000,-0.098088,0.128832,3.220000,-9.870000,12.320000,21.01
5964390,0.658312,-0.159576,0.160552,0.210000,-0.630000,11.410000,21.01
5964401,0.650504,-0.197152,0.187880,-2.590000,4.830000,11.130000,20.98
5964412,0.641720,-0.243024,0.195688,-0.700000,11.900000,9.660000,20.93
5964423,0.670024,-0.266448,0.200080,2.030000,18.969999,9.170000,20.93
5964434,0.684664,-0.276696,0.203984,6.160000,25.830000,7.980000,20.98
5964445,0.691008,-0.280112,0.228872,10.010000,34.160000,6.720000,20.98
5964456,0.679784,-0.276696,0.270840,15.540000,42.209999,4.200000,20.99
5964467,0.661728,-0.237168,0.324032,17.290001,46.619999,3.570000,20.98
5964478,0.655384,-0.206912,0.389912,15.190000,50.049999,3.290000,20.98
5964488,0.646600,-0.169336,0.440664,12.040000,53.130001,3.570000,21.02
5964499,0.639768,-0.146888,0.476776,6.580000,54.180000,3.640000,21.02
5964510,0.644160,-0.154208,0.493856,1.820000,55.509998,3.570000,20.98
5964521,0.661240,-0.192272,0.484584,1.330000,57.610001,2.240000,20.98
5964531,0.662216,-0.203008,0.480680,1.610000,60.759998,1.890000,21.00
5964542,0.670512,-0.214720,0.489464,2.520000,65.519997,1.540000,20.96
5964553,0.655384,-0.211792,0.500200,5.670000,69.440002,1.190000,20.96
5964564,0.632448,-0.192760,0.554856,2.940000,72.309998,2.450000,21.00
5964574,0.607072,-0.197152,0.625616,4.340000,74.900002,1.540000,21.00
5964585,0.564616,-0.168360,0.655872,6.580000,74.970001,1.330000,20.96
5964596,0.577304,-0.170312,0.663680,8.400000,77.769997,3.360000,20.96
5964606,0.629520,-0.147864,0.645624,12.460000,84.489998,0.280000,20.93
5964617,0.471896,-0.150792,0.626104,9.450000,79.449997,0.000000,21.02
5964628,0.570472,-0.138104,0.698328,6.090000,86.169998,4.970000,21.02
5964638,0.517280,-0.098088,0.753960,4.690000,85.190002,3.430000,20.95
5964649,0.489952,-0.099552,0.787144,1.470000,83.580002,3.570000,20.95
5964660,0.470432,-0.127368,0.781288,2.450000,81.830002,4.130000,20.98
5964670,0.474336,-0.147376,0.759816,6.090000,83.230003,2.940000,20.98
5964681,0.477752,-0.160552,0.726144,10.990000,84.489998,3.360000,20.94
5964692,0.492392,-0.135664,0.757864,9.310000,87.709999,5.390000,20.98
5964703,0.470920,-0.108824,0.866200,4.340000,88.550003,7.490000,20.98
5964714,0.416264,-0.110776,0.964288,2.800000,86.940002,6.720000,20.98
5964725,0.367952,-0.106872,0.994544,0.630000,82.110001,7.140000,20.98
5964735,0.362584,-0.143472,0.996984,-0.420000,77.419998,5.530000,21.00
5964746,0.357704,-0.170312,0.965264,0.280000,73.849998,4.340000,20.98
5964757,0.394792,-0.187880,0.953064,-0.490000,72.309998,5.110000,20.98
5964768,0.424560,-0.186904,1.028216,-5.320000,74.269997,6.230000,20.98
5964778,0.383080,-0.169336,1.037488,-9.520000,70.629997,5.460000,20.98
5964789,0.335256,-0.195200,1.088240,-10.360000,67.199997,4.550000,20.98
5964800,0.316224,-0.226920,1.104832,-8.190000,63.209999,2.800000,20.98
5964811,0.308904,-0.272304,1.075552,0.700000,59.009998,0.560000,21.00
5964822,0.325496,-0.279624,1.012600,8.820000,58.939999,-1.680000,20.95
5964833,0.328424,-0.256688,0.977952,16.520000,60.270000,-2.730000,20.95
5964844,0.316224,-0.176656,1.003816,14.000000,60.900002,-0.420000,20.98
5964854,0.291824,-0.148840,1.063840,12.600000,60.480000,-1.120000,20.98
5964865,0.260104,-0.120048,1.107272,10.150000,57.959999,-0.980000,21.00
5964876,0.255712,-0.124440,1.122888,7.770000,54.459999,0.280000,21.00
5964887,0.264496,-0.129808,1.104344,7.210000,53.689999,1.050000,21.02
5964897,0.270840,-0.133224,1.088728,4.130000,53.619999,3.290000,20.99
5964908,0.276208,-0.134200,1.103368,2.170000,55.020000,4.550000,20.99
5964919,0.252296,-0.126880,1.137040,-1.960000,54.669998,6.300000,20.99
5964930,0.215208,-0.142496,1.145336,-3.500000,53.060001,6.300000,20.99
5964940,0.202520,-0.177632,1.140944,-1.960000,51.380001,6.230000,21.00
5964951,0.188368,-0.175192,1.154120,-0.840000,48.160000,7.840000,20.95
5964962,0.195200,-0.182512,1.171200,0.140000,45.779999,8.330000,20.95
5964973,0.185440,-0.185928,1.199504,-0.420000,44.799999,9.100000,20.96
5964984,0.169824,-0.210328,1.222928,1.260000,43.189999,8.680000,20.96
5964994,0.158112,-0.199104,1.260504,1.820000,40.250000,8.680000,20.98
5965005,0.138104,-0.214232,1.292712,1.400000,36.680000,7.980000,20.98
5965016,0.129320,-0.235216,1.302472,2.520000,31.850000,7.910000,20.98
5965027,0.128344,-0.244000,1.314184,2.870000,28.350000,6.580000,20.97
5965037,0.114192,-0.239120,1.342488,2.870000,23.309999,5.950000,20.97
5965048,0.110288,-0.235704,1.373720,2.170000,17.500000,5.180000,20.98
5965059,0.097112,-0.219600,1.385920,-0.910000,11.620000,4.060000,20.98
5965070,0.105896,-0.246928,1.395192,-4.130000,5.600000,3.710000,20.98
5965081,0.115656,-0.263032,1.411784,-5.110000,-0.910000,2.940000,20.98
5965092,0.126880,-0.282064,1.420568,-5.110000,-5.390000,0.630000,20.98
5965103,0.125416,-0.334280,1.427400,-1.750000,-10.780000,-1.820000,21.01
5965113,0.122976,-0.382592,1.440088,3.710000,-15.680000,-4.620000,21.01
