timestamp_ms,ax,ay,az,gx,gy,gz,tempC
6092523,0.297680,0.471896,1.019920,21.139999,-6.230000,44.450001,20.64
6092534,0.307928,0.461160,1.010160,14.000000,-10.640000,45.150002,20.64
6092546,0.309880,0.430416,0.986248,10.570000,-14.070000,43.610001,20.59
6092557,0.306464,0.410896,0.944768,1.750000,-18.830000,44.730000,20.61
6092569,0.312320,0.343552,0.908656,-0.490000,-22.260000,44.310001,20.61
6092580,0.315248,0.294752,0.878400,2.310000,-25.270000,42.349998,20.61
6092592,0.346480,0.315248,0.888160,-0.140000,-27.860001,43.959999,20.61
6092604,0.346480,0.353312,0.869616,1.050000,-31.990000,45.849998,20.62
6092615,0.362096,0.360632,0.848632,-0.910000,-32.480000,44.520000,20.60
6092626,0.388936,0.346480,0.835944,-10.010000,-33.320000,47.459999,20.60
6092636,0.405528,0.282552,0.812032,-17.150000,-32.830002,48.860001,20.64
6092647,0.415776,0.225456,0.790560,-17.639999,-31.219999,48.160000,20.64
6092659,0.396256,0.227896,0.792024,-19.320000,-31.780001,50.750000,20.64
6092670,0.386984,0.247416,0.808128,-25.620001,-32.270000,53.830002,20.59
6092681,0.387960,0.201056,0.816424,-27.580000,-31.360001,53.549999,20.59
6092693,0.250344,0.175680,0.815936,-23.940001,-30.379999,53.619999,20.60
6092704,0.353800,0.185928,0.793976,-18.760000,-31.080000,53.340000,20.60
6092715,0.360144,0.196176,0.777384,-21.000000,-30.799999,52.570000,20.64
6092726,0.371368,0.131272,0.761768,-20.299999,-28.770000,47.740002,20.64
6092737,0.387960,0.050752,0.742736,-14.210000,-26.320000,42.070000,20.64
6092748,0.393816,0.039528,0.730048,-5.460000,-24.080000,35.209999,20.62
6092759,0.395280,0.065880,0.733464,-2.240000,-22.120001,30.450001,20.62
6092770,0.404552,0.078080,0.746152,-1.680000,-19.740000,24.219999,20.59
6092781,0.382592,0.073200,0.811544,-2.800000,-19.459999,17.150000,20.62
6092791,0.381616,0.101504,0.773480,-2.660000,-16.309999,13.720000,20.62
6092802,0.371368,0.160064,0.793000,-4.900000,-14.420000,9.310000,20.68
6092813,0.354288,0.195688,0.784704,-10.430000,-12.320000,7.910000,20.68
6092824,0.357216,0.223504,0.759816,-18.969999,-8.890000,7.560000,20.64
6092835,0.363560,0.206424,0.751520,-28.910000,-5.040000,9.030000,20.64
6092846,0.380152,0.130784,0.765672,-35.139999,-1.750000,9.450000,20.61
6092857,0.394304,0.092232,0.771528,-37.660000,5.040000,10.430000,20.60
6092868,0.409920,-0.001464,0.778848,-36.400002,11.550000,10.010000,20.60
6092879,0.420168,-0.094184,0.760792,-26.530001,17.920000,7.840000,20.63
6092890,0.416752,-0.173728,0.754936,-10.080000,25.969999,6.650000,20.63
6092900,0.407968,-0.211792,0.744200,5.180000,33.389999,5.040000,20.65
6092911,0.404064,-0.159088,0.805200,19.879999,37.660000,4.480000,20.59
6092922,0.367952,-0.045384,0.847168,27.510000,42.770000,5.740000,20.59
6092933,0.356728,0.013664,0.868152,26.950001,46.830002,9.310000,20.61
6092944,0.348920,-0.001464,0.864248,24.080000,50.189999,7.140000,20.61
6092954,0.355264,0.032208,0.859856,22.049999,56.139999,11.620000,20.67
6092965,0.317200,0.069296,0.882304,14.490000,56.419998,14.210000,20.67
6092976,0.332328,0.081008,0.937448,2.660000,56.980000,15.820000,20.61
6092987,0.314272,0.098576,0.988200,-6.020000,56.980000,16.660000,20.58
6092997,0.300608,0.073200,1.040904,-14.210000,54.810001,17.500000,20.58
6093008,0.297680,0.045384,1.073112,-19.530001,52.500000,16.940001,20.63
6093019,0.276696,0.040992,1.098976,-21.629999,47.880001,17.219999,20.63
6093030,0.279624,0.007808,1.114104,-23.940001,44.380001,15.540000,20.62
6093041,0.289384,-0.037088,1.126792,-19.809999,41.509998,13.300000,20.62
6093052,0.277672,-0.026840,1.138992,-19.250000,37.590000,11.410000,20.64
6093063,0.284504,-0.064416,1.156560,-17.360001,33.459999,7.910000,20.61
6093073,0.265960,-0.042456,1.165344,-14.000000,29.610001,4.270000,20.61
6093084,0.244976,-0.008784,1.183400,-11.550000,22.820000,2.870000,20.64
6093096,0.265960,0.043920,1.225856,-12.250000,16.799999,2.520000,20.64
6093108,0.280600,0.061976,1.266848,-20.299999,11.760000,1.890000,20.62
6093120,0.281088,-0.001464,1.280512,-21.629999,8.050000,0.490000,20.62
6093131,0.271816,-0.015616,1.275144,-17.920000,4.830000,-0.140000,20.62
6093142,0.249856,0.010248,1.251232,-15.750000,0.210000,0.000000,20.62
6093153,0.265960,0.000976,1.252696,-15.190000,-2.800000,0.560000,20.62
6093164,0.275232,-0.030744,1.256600,-12.320000,-4.900000,1.470000,20.60
6093175,0.294264,-0.047824,1.275144,-7.350000,-6.370000,2.450000,20.62
6093186,0.313784,-0.051728,1.278560,-3.500000,-7.280000,3.430000,20.62
6093197,0.294264,-0.060024,1.305888,0.140000,-10.710000,4.410000,20.62
6093208,0.295240,-0.013176,1.344928,1.470000,-13.720000,5.460000,20.62
6093219,0.299632,-0.039528,1.375184,2.170000,-16.170000,6.020000,20.61
6093230,0.292800,-0.079544,1.388848,5.950000,-20.090000,5.670000,20.59
6093241,0.295728,-0.076128,1.385920,10.290000,-23.799999,4.830000,20.59
6093252,0.283040,-0.036112,1.370304,11.690000,-30.030001,4.760000,20.61
6093263,0.278160,0.009760,1.370304,7.700000,-35.070000,5.600000,20.61
6093274,0.271816,0.061000,1.378600,-1.400000,-41.930000,6.860000,20.64
6093285,0.270352,0.094184,1.388360,-8.610000,-49.630001,8.820000,20.59
6093296,0.285968,0.113216,1.394704,-20.510000,-56.910000,11.410000,20.59
6093307,0.293776,0.084424,1.402024,-33.180000,-64.959999,11.970000,20.65
6093318,0.289872,-0.010248,1.378600,-32.619999,-71.680000,9.520000,20.65
6093329,0.280600,-0.066856,1.332728,-29.049999,-77.559998,8.680000,20.66
6093341,0.280112,-0.096624,1.292712,-20.440001,-86.800003,6.580000,20.58
6093352,0.291824,-0.089304,1.262944,-11.620000,-94.080002,5.600000,20.58
6093363,0.295728,-0.051240,1.226832,-3.990000,-101.360001,4.060000,20.65
6093374,0.301096,-0.015616,1.186328,-0.350000,-109.269997,4.620000,20.65
6093385,0.315736,0.022936,1.113128,1.470000,-114.099998,4.690000,20.64
6093396,0.326960,0.068320,1.053592,-3.990000,-120.190002,6.440000,20.59
6093406,0.336720,0.087840,0.982832,-8.820000,-123.830002,7.490000,20.59
6093417,0.344040,0.087840,0.920368,-14.070000,-126.489998,9.030000,20.61
6093429,0.359656,0.079544,0.847168,-19.040001,-129.500000,10.220000,20.61
6093439,0.385520,0.053680,0.784704,-21.770000,-130.270004,10.640000,20.62
6093450,0.406016,0.047336,0.697352,-22.049999,-123.970001,8.400000,20.62
6093461,0.410408,0.008784,0.593408,-22.260000,-126.839996,7.770000,20.65
6093472,0.447008,-0.022448,0.516304,-20.090000,-123.339996,8.610000,20.61
6093483,0.460184,-0.037088,0.448960,-18.830000,-116.059998,8.890000,20.61
6093495,0.466040,-0.043432,0.393816,-17.010000,-111.580002,7.630000,20.63
6093506,0.486048,-0.057096,0.336720,-14.070000,-103.459999,6.440000,20.63
6093517,0.481168,-0.051240,0.292800,-13.020000,-95.620003,6.440000,20.67
6093528,0.491416,-0.050264,0.255712,-13.440000,-88.129997,6.860000,20.64
6093539,0.516304,-0.037088,0.221064,-16.030001,-79.099998,7.350000,20.64
6093550,0.520696,-0.045384,0.208864,-20.370001,-72.169998,6.370000,20.65
6093562,0.524112,-0.065880,0.204960,-21.910000,-63.209999,5.880000,20.65
6093573,0.530944,-0.083936,0.198128,-21.490000,-53.830002,4.480000,20.62
6093584,0.543144,-0.103456,0.188368,-19.459999,-43.610001,3.780000,20.62
6093595,0.552416,-0.112240,0.175192,-17.010000,-34.860001,2.590000,20.62
6093606,0.553880,-0.133712,0.166408,-12.600000,-23.870001,1.120000,20.62
6093617,0.550464,-0.142008,0.163480,-6.650000,-12.740000,-0.490000,20.62
6093628,0.553880,-0.139568,0.169336,-2.100000,-2.590000,-1.330000,20.64
6093639,0.553392,-0.129808,0.176656,3.430000,5.460000,-1.960000,20.59
6093650,0.549000,-0.125416,0.185928,7.840000,15.050000,-3.080000,20.59
6093661,0.551440,-0.123952,0.205448,10.850000,24.709999,-4.690000,20.68
6093672,0.548024,-0.099552,0.256688,13.230000,31.780001,-5.320000,20.68
6093683,0.533872,-0.094184,0.316224,15.470000,39.060001,-5.950000,20.61
6093694,0.542168,-0.085888,0.346480,18.480000,45.570000,-7.210000,20.61
6093705,0.549488,-0.057096,0.395768,19.670000,49.980000,-7.910000,20.68
6093716,0.552904,-0.057584,0.429440,20.719999,55.299999,-8.470000,20.62
6093727,0.548512,-0.036600,0.451888,18.969999,59.849998,-8.540000,20.62
6093738,0.548024,-0.011712,0.494344,14.140000,63.419998,-8.540000,20.66
6093749,0.543144,-0.002440,0.542656,10.360000,65.800003,-7.770000,20.66
6093760,0.549000,-0.001464,0.586576,4.480000,67.970001,-6.580000,20.64
6093771,0.507032,0.011224,0.632448,1.610000,66.430000,-7.700000,20.60
6093782,0.558272,-0.045872,0.644160,1.470000,71.050003,-4.900000,20.60
6093792,0.575840,-0.051240,0.643184,8.960000,76.580002,-6.720000,20.64
6093803,0.531432,-0.056120,0.670512,11.830000,77.980003,-7.490000,20.64
6093815,0.514840,-0.038064,0.719312,15.260000,80.570000,-8.680000,20.60
6093826,0.489464,-0.020008,0.770064,17.780001,81.900002,-8.540000,20.63
6093837,0.473360,-0.007320,0.788120,20.230000,81.129997,-8.330000,20.63
6093848,0.484584,-0.005368,0.799832,21.209999,82.320000,-8.260000,20.60
6093859,0.481168,-0.007320,0.813008,21.559999,83.019997,-7.420000,20.60
6093870,0.473360,-0.003904,0.850096,21.840000,83.650002,-7.210000,20.62
6093880,0.456768,0.016104,0.898896,19.389999,81.970001,-6.370000,20.62
6093891,0.446520,0.024400,0.956480,17.709999,80.500000,-6.090000,20.61
6093902,0.430416,0.021472,0.980392,18.059999,76.580002,-6.090000,20.62
6093913,0.429440,0.040504,0.996984,15.190000,73.010002,-5.110000,20.62
6093924,0.422120,0.039528,0.979904,12.740000,71.190002,-5.390000,20.63
6093935,0.420168,0.027816,0.978440,10.780000,72.660004,-4.970000,20.63
6093946,0.398696,0.033672,0.957456,11.900000,74.830002,-5.530000,20.65
6093956,0.374784,0.048800,0.941840,12.670000,74.550003,-3.850000,20.60
6093967,0.373808,0.077592,0.957944,7.140000,73.919998,-1.050000,20.60
6093978,0.348920,0.091744,0.998936,3.920000,72.099998,-0.840000,20.64
6093989,0.351360,0.084424,1.035048,-0.630000,70.349998,2.310000,20.64
6094000,0.350872,0.068808,1.048712,-2.800000,70.070000,3.150000,20.64
6094011,0.332328,0.035624,1.037976,-1.680000,70.139999,4.340000,20.64
6094022,0.321592,0.022448,1.032608,0.350000,69.650002,5.110000,20.63
6094032,0.313296,0.010736,1.078480,-1.190000,69.440002,6.860000,20.61
6094043,0.299144,-0.000488,1.121912,-0.280000,65.519997,7.000000,20.61
6094054,0.289384,0.004880,1.156072,-1.050000,62.369999,7.420000,20.65
6094065,0.294264,-0.019032,1.175592,-2.870000,59.570000,7.070000,20.65
6094076,0.295240,-0.023912,1.190232,-3.080000,58.240002,7.350000,20.64
6094087,0.295240,-0.037088,1.236104,-6.090000,56.070000,8.680000,20.63
6094098,0.269376,-0.058560,1.290272,-6.860000,52.150002,8.190000,20.63
6094109,0.238632,-0.068808,1.313696,-5.530000,47.040001,7.280000,20.67
6094120,0.233264,-0.062464,1.336632,-4.340000,42.630001,7.070000,20.67
6094131,0.232776,-0.052704,1.343464,-6.090000,36.750000,7.000000,20.61
6094142,0.244976,-0.072224,1.356640,-8.190000,31.850000,7.350000,20.62
6094153,0.244976,-0.086864,1.365424,-7.840000,28.070000,6.580000,20.62
6094164,0.243024,-0.096624,1.385920,-7.490000,24.990000,6.650000,20.61
6094175,0.223504,-0.108336,1.422520,-6.930000,20.090000,5.810000,20.61
6094186,0.213744,-0.155184,1.438624,-1.190000,15.050000,3.780000,20.62
6094197,0.204472,-0.153720,1.460096,4.690000,8.680000,2.100000,20.62
6094208,0.214232,-0.145912,1.452288,11.830000,3.500000,0.210000,20.64
6094219,0.215696,-0.116632,1.449360,16.590000,-1.610000,-0.420000,20.65
6094230,0.214232,-0.057584,1.458632,14.560000,-7.070000,0.560000,20.65
6094241,0.202520,-0.005368,1.478640,8.260000,-11.200000,1.330000,20.67
6094252,0.193248,0.024400,1.483520,-0.140000,-17.500000,2.800000,20.67
6094263,0.200568,0.026840,1.484008,-8.960000,-23.799999,4.200000,20.64
6094274,0.207888,0.026840,1.483520,-16.309999,-30.240000,6.160000,20.65
6094285,0.215696,-0.015128,1.486936,-21.700001,-34.299999,6.860000,20.65
6094296,0.211792,-0.046848,1.504504,-24.010000,-41.090000,7.420000,20.62
6094307,0.203496,-0.079544,1.511336,-20.930000,-47.320000,6.930000,20.62
6094318,0.189832,-0.080520,1.497672,-15.890000,-52.990002,6.160000,20.64
6094329,0.176656,-0.088816,1.457656,-9.380000,-62.720001,5.180000,20.68
6094341,0.205936,-0.065392,1.414224,-4.900000,-68.739998,4.900000,20.68
6094353,0.215208,-0.037576,1.359080,-3.150000,-75.879997,3.990000,20.63
6094364,0.228872,-0.005856,1.312720,-5.040000,-81.900002,3.780000,20.63
6094375,0.240096,0.035136,1.258552,-8.470000,-86.870003,4.340000,20.64
6094386,0.241072,0.071736,1.230736,-17.780001,-91.629997,6.790000,20.61
6094397,0.261568,0.050752,1.193648,-25.200001,-96.669998,7.560000,20.61
6094408,0.263520,0.030744,1.157048,-29.049999,-101.500000,8.190000,20.66
6094419,0.278648,0.030256,1.112152,-32.480000,-107.169998,9.240000,20.66
6094430,0.296704,0.018544,1.054080,-32.900002,-109.690002,8.890000,20.66
6094441,0.311344,0.007320,0.998936,-34.160000,-112.839996,9.520000,20.66
6094452,0.326960,-0.002440,0.964288,-34.580002,-114.379997,10.080000,20.66
6094463,0.331352,0.005368,0.931104,-34.720001,-117.180000,10.920000,20.62
6094474,0.338184,0.010248,0.876448,-35.209999,-118.930000,11.200000,20.62
6094485,0.349408,-0.028792,0.807152,-31.080000,-120.050003,10.220000,20.66
6094496,0.368928,-0.059536,0.712480,-28.700001,-119.559998,9.590000,20.66
6094507,0.382104,-0.088328,0.612928,-23.799999,-118.510002,8.120000,20.60
6094518,0.411872,-0.088328,0.548024,-21.139999,-114.940002,7.700000,20.61
6094529,0.420168,-0.090768,0.504592,-18.410000,-110.529999,6.300000,20.61
6094540,0.439688,-0.076128,0.440664,-16.870001,-104.930000,6.720000,20.59
6094551,0.454328,-0.046848,0.379664,-19.040001,-99.680000,7.420000,20.59
6094562,0.470432,-0.022936,0.328424,-23.379999,-91.139999,7.350000,20.63
6094573,0.471896,-0.025864,0.327936,-30.799999,-84.349998,9.380000,20.62
6094584,0.467504,-0.063928,0.311832,-33.669998,-77.349998,8.540000,20.62
6094595,0.451888,-0.100528,0.283528,-35.980000,-71.889999,7.280000,20.64
6094606,0.471896,-0.182512,0.244000,-34.090000,-64.470001,5.390000,20.64
6094617,0.497272,-0.228384,0.177632,-29.750000,-55.020000,4.200000,20.62
6094628,0.522648,-0.235704,0.147376,-27.650000,-46.970001,3.080000,20.63
6094639,0.544120,-0.261568,0.141032,-23.379999,-34.860001,0.770000,20.63
6094650,0.533872,-0.276208,0.147864,-18.200001,-23.170000,-1.680000,20.65
6094662,0.519232,-0.302560,0.170312,-11.760000,-12.810000,-5.110000,20.65
6094673,0.510936,-0.299632,0.188856,-0.560000,-5.040000,-7.840000,20.63
6094684,0.523136,-0.273768,0.208376,8.680000,3.920000,-9.170000,20.64
6094695,0.537776,-0.249368,0.217648,15.050000,13.440000,-10.290000,20.64
6094706,0.547536,-0.236680,0.237656,17.990000,22.610001,-11.270000,20.62
6094717,0.542656,-0.222040,0.272304,22.120001,30.030001,-12.320000,20.62
6094728,0.521672,-0.177144,0.307928,22.959999,37.310001,-12.250000,20.64
6094738,0.520696,-0.148840,0.364048,21.980000,42.980000,-12.390000,20.64
6094749,0.529968,-0.127856,0.418704,19.250000,47.180000,-11.830000,20.63
6094760,0.542656,-0.117608,0.466040,15.890000,52.009998,-11.690000,20.65
6094771,0.542656,-0.102968,0.498248,13.160000,56.490002,-11.830000,20.65
6094782,0.541680,-0.119560,0.530456,10.150000,59.500000,-11.060000,20.63
6094793,0.533872,-0.124928,0.562664,9.730000,63.279999,-11.200000,20.63
6094804,0.519720,-0.117608,0.602192,9.590000,65.379997,-10.920000,20.64
6094815,0.512400,-0.122976,0.631472,10.640000,66.570000,-11.130000,20.64
6094826,0.505080,-0.122976,0.646112,14.630000,68.739998,-12.320000,20.64
6094837,0.490440,-0.138104,0.660264,18.200001,59.990002,-9.310000,20.71
6094848,0.586576,-0.102968,0.708088,21.420000,81.830002,-7.770000,20.71
6094859,0.471408,-0.088816,0.754936,24.850000,78.470001,-12.600000,20.67
6094870,0.416752,-0.099064,0.854976,23.870001,70.839996,-9.800000,20.63
6094881,0.487512,-0.056608,0.772016,26.879999,80.709999,-10.150000,20.63
6094892,0.425536,-0.053680,0.782264,27.440001,77.419998,-10.920000,20.66
6094903,0.452376,-0.044408,0.816912,26.530001,78.400002,-9.170000,20.66
6094914,0.441640,-0.029768,0.893040,22.190001,77.769997,-8.400000,20.62
6094925,0.413336,-0.022936,0.966728,20.090000,74.410004,-8.820000,20.62
6094936,0.393328,-0.020008,0.994056,18.340000,71.330002,-9.030000,20.63
6094947,0.394304,-0.049288,0.967704,19.110001,67.620003,-10.150000,20.62
6094958,0.384544,-0.075640,0.911096,23.100000,66.639999,-11.270000,20.62
6094969,0.387472,-0.061976,0.919392,20.719999,64.470001,-8.470000,20.62
6094980,0.407968,-0.064416,0.952576,23.170000,66.360001,-9.940000,20.62
6094991,0.398208,-0.040504,0.966240,23.870001,66.709999,-8.960000,20.62
6095002,0.382592,-0.019520,0.992592,21.980000,64.680000,-8.120000,20.59
6095013,0.359168,-0.022448,0.991616,23.240000,63.980000,-9.240000,20.59
6095024,0.346968,-0.030744,0.991128,22.889999,62.230000,-9.310000,20.61
6095035,0.350384,-0.019520,0.992592,23.520000,61.320000,-8.890000,20.61
6095046,0.347456,0.007808,1.014552,19.040001,60.900002,-6.580000,20.65
6095057,0.342576,0.003904,1.056520,14.980000,62.509998,-6.090000,20.60
6095068,0.335744,-0.005856,1.070672,13.580000,62.930000,-5.390000,20.60
6095079,0.320616,-0.001952,1.069208,13.370000,62.020000,-4.550000,20.64
6095090,0.319640,0.002928,1.060424,12.530000,61.389999,-2.590000,20.64
6095101,0.317688,0.021472,1.071160,9.730000,61.599998,-0.420000,20.66
6095112,0.308904,0.012688,1.131672,4.970000,62.930000,1.750000,20.66
6095122,0.280600,-0.004392,1.189744,3.080000,62.160000,2.800000,20.65
6095133,0.260592,-0.014152,1.233664,1.050000,58.939999,4.270000,20.66
6095144,0.258640,-0.001952,1.267336,-0.350000,57.540001,5.810000,20.66
6095155,0.245952,-0.012200,1.276608,-1.820000,55.509998,6.860000,20.66
6095166,0.247904,-0.056608,1.296128,-1.820000,53.900002,8.190000,20.66
6095177,0.240096,-0.092720,1.324432,2.590000,53.270000,6.790000,20.65
6095188,0.215208,-0.102480,1.371768,4.830000,49.840000,7.490000,20.64
6095199,0.201056,-0.099064,1.419104,7.280000,45.080002,6.930000,20.64
6095210,0.186904,-0.081984,1.451312,6.720000,39.270000,7.000000,20.67
6095221,0.187880,-0.082960,1.470832,5.040000,34.439999,7.140000,20.67
6095232,0.172752,-0.063928,1.484496,-0.770000,28.209999,7.210000,20.63
6095242,0.163968,-0.071736,1.534760,-6.720000,20.580000,8.190000,20.63
6095253,0.147864,-0.076616,1.583072,-13.230000,14.350000,8.120000,20.67
6095264,0.125904,-0.048800,1.614304,-19.879999,4.900000,8.610000,20.60
6095275,0.127368,-0.093696,1.625040,-24.360001,-3.990000,8.330000,20.60
6095286,0.122976,-0.157136,1.635776,-22.680000,-12.180000,6.300000,20.62
6095297,0.122488,-0.203984,1.619184,-15.120000,-19.180000,4.410000,20.62
6095308,0.111264,-0.181536,1.623576,-7.420000,-29.540001,3.640000,20.68
6095319,0.107360,-0.152744,1.654808,-3.710000,-40.459999,2.100000,20.66
6095330,0.101504,-0.105896,1.675792,-2.170000,-49.700001,0.700000,20.66
6095341,0.122488,-0.081008,1.658224,-4.130000,-60.340000,-0.980000,20.64
6095352,0.133224,-0.073688,1.607472,-8.680000,-72.870003,-1.050000,20.64
6095364,0.156160,-0.114680,1.554280,-12.600000,-82.529999,-1.400000,20.62
6095375,0.153232,-0.122000,1.546960,-10.570000,-90.580002,-4.060000,20.67
6095386,0.134688,-0.109800,1.533784,-7.840000,-100.309998,-6.090000,20.67
6095397,0.155184,-0.080520,1.512312,-6.650000,-112.000000,-5.670000,20.62
6095408,0.159576,-0.049776,1.486936,-6.860000,-121.870003,-7.420000,20.62
6095419,0.172264,-0.022936,1.465952,-10.920000,-133.490005,-6.860000,20.64
6095430,0.160552,0.000488,1.414712,-15.400000,-143.639999,-8.470000,20.63
6095441,0.177632,0.002440,1.343464,-19.740000,-154.279999,-8.680000,20.63
6095452,0.204472,-0.002928,1.201456,-21.700001,-162.539993,-9.590000,20.67
6095463,0.226432,-0.010736,1.039928,-20.510000,-167.369995,-9.940000,20.67
6095474,0.271328,-0.004880,0.904264,-19.950001,-169.259995,-9.380000,20.64
6095485,0.285480,0.011224,0.826184,-18.760000,-170.100006,-9.170000,20.64
6095496,0.307928,0.063928,0.815448,-23.240000,-172.130005,-4.760000,20.62
6095508,0.311344,0.099064,0.773480,-26.389999,-173.039993,-4.550000,20.64
6095519,0.307928,0.097600,0.652456,-30.450001,-174.509995,-3.640000,20.64
6095530,0.362096,0.073688,0.534848,-33.389999,-168.490005,-4.130000,20.65
6095541,0.489464,0.005856,0.376736,-32.900002,-164.289993,-1.960000,20.65
6095552,0.414800,0.000488,0.249368,-32.480000,-157.429993,0.630000,20.63
6095563,0.444080,0.012688,0.174216,-32.270000,-145.250000,1.750000,20.61
6095574,0.460672,0.032696,0.095648,-33.389999,-133.350006,3.290000,20.61
6095585,0.477264,0.003416,0.053680,-32.970001,-122.709999,5.460000,20.62
6095595,0.496784,-0.006344,0.031720,-31.290001,-108.919998,6.860000,20.62
6095606,0.531920,-0.064416,0.002928,-27.230000,-93.660004,7.490000,20.66
6095617,0.549976,-0.111752,-0.028304,-21.139999,-81.410004,7.630000,20.65
6095628,0.565592,-0.140056,-0.035136,-14.700000,-66.150002,6.860000,20.65
6095639,0.570472,-0.152256,-0.042944,-6.860000,-50.540001,5.110000,20.63
6095651,0.577304,-0.153720,-0.050752,-1.750000,-35.139999,4.620000,20.63
6095662,0.581208,-0.150792,-0.055144,1.890000,-22.610001,4.690000,20.64
6095673,0.586088,-0.152744,-0.046848,4.480000,-7.070000,4.410000,20.68
6095684,0.583160,-0.153720,-0.020496,5.040000,6.650000,4.410000,20.68
6095694,0.573400,-0.171288,0.029280,5.950000,17.010000,3.710000,20.65
6095705,0.560712,-0.178120,0.064416,10.150000,28.209999,2.870000,20.65
6095716,0.554368,-0.169336,0.096136,13.300000,38.150002,2.450000,20.65
6095727,0.564128,-0.167384,0.142496,15.260000,45.430000,2.240000,20.65
6095737,0.575352,-0.172264,0.180560,16.590000,54.740002,1.330000,20.64
6095748,0.566080,-0.179096,0.239608,17.850000,62.509998,0.140000,20.66
6095759,0.549488,-0.169336,0.301584,20.299999,67.550003,-1.330000,20.66
6095770,0.539728,-0.161528,0.341600,22.400000,72.309998,-1.820000,20.62
6095781,0.549000,-0.148352,0.395768,22.750000,76.510002,-1.820000,20.62
6095793,0.562176,-0.137128,0.442128,24.010000,80.639999,-3.220000,20.63
6095803,0.571448,-0.131760,0.458720,26.530001,84.279999,-3.850000,20.64
6095814,0.582184,-0.109800,0.456768,28.910000,90.089996,-4.970000,20.64
6095825,0.577304,-0.094672,0.456280,30.660000,95.830002,-6.090000,20.61
6095836,0.569496,-0.070760,0.528504,24.500000,99.610001,-3.920000,20.61
6095847,0.535824,-0.081496,0.627568,18.690001,101.639999,-4.340000,20.62
6095858,0.472384,-0.035136,0.743224,16.309999,102.550003,-6.300000,20.62
6095870,0.409920,-0.066368,0.763232,15.330000,98.209999,-1.890000,20.66
6095881,0.514352,-0.021472,0.800320,18.760000,109.410004,2.590000,20.61
6095891,0.492880,-0.052704,0.783240,17.150000,100.169998,-5.180000,20.61
6095902,0.529968,-0.040016,0.815936,13.230000,104.440002,-1.540000,20.64
6095913,0.486536,-0.015128,0.933056,7.420000,105.699997,-0.140000,20.64
6095924,0.428952,-0.031720,1.002352,4.550000,102.830002,0.630000,20.61
6095935,0.398696,-0.040504,1.057984,6.160000,99.889999,0.490000,20.61
6095945,0.395768,-0.046360,1.065304,6.230000,93.099998,1.820000,20.61
6095956,0.412360,-0.073688,1.039440,7.490000,88.199997,1.890000,20.67
6095967,0.429928,-0.100040,1.014552,10.500000,87.779999,1.610000,20.67
6095977,0.422120,-0.105408,1.032608,13.790000,86.730003,1.120000,20.64
6095988,0.390400,-0.110288,1.099464,13.300000,83.019997,2.030000,20.64
6095999,0.351848,-0.111264,1.138992,20.719999,80.430000,-0.280000,20.59
6096010,0.322568,-0.078080,1.160952,23.799999,74.970001,-0.140000,20.64
6096021,0.311344,-0.084912,1.150216,27.230000,70.279999,-2.450000,20.64
6096031,0.320128,-0.082472,1.114104,28.700001,64.260002,-1.890000,20.62
6096042,0.339160,-0.048800,1.104832,26.600000,62.369999,-2.240000,20.62
6096053,0.345992,-0.025864,1.082384,25.059999,63.560001,-2.170000,20.67
6096064,0.322568,0.002928,1.057008,21.629999,64.540001,-0.630000,20.67
6096075,0.302072,0.012200,1.025776,20.230000,65.309998,0.490000,20.56
6096085,0.288408,0.032696,1.076040,8.190000,61.880001,4.900000,20.62
6096096,0.264008,-0.002440,1.170712,4.060000,60.340000,4.620000,20.62
6096106,0.249856,-0.030744,1.204872,2.170000,56.209999,6.300000,20.64
6096117,0.249368,-0.043920,1.187304,0.140000,52.709999,6.790000,20.64
6096128,0.245464,-0.068320,1.150216,-1.540000,51.450001,6.300000,20.63
6096139,0.237656,-0.087840,1.121912,-1.260000,50.119999,5.670000,20.62
6096149,0.248392,-0.115656,1.119960,0.140000,49.910000,5.110000,20.62
6096160,0.246928,-0.122000,1.154120,2.660000,48.720001,5.460000,20.62
6096171,0.236192,-0.133224,1.209752,3.080000,45.919998,5.670000,20.62
6096182,0.223504,-0.154208,1.273680,8.050000,43.540001,3.290000,20.64
6096192,0.211792,-0.149816,1.301984,14.140000,39.619999,1.680000,20.64
6096203,0.211792,-0.128832,1.309792,17.290001,36.259998,0.350000,20.68
6096214,0.209352,-0.105408,1.299056,19.740000,34.860001,-0.910000,20.62
6096225,0.201544,-0.069784,1.309792,17.080000,32.270000,-0.560000,20.62
6096235,0.199104,-0.030256,1.374696,9.310000,30.100000,0.910000,20.61
6096246,0.162504,-0.034160,1.431792,1.470000,25.059999,0.910000,20.61
6096257,0.151280,-0.043920,1.482056,-2.450000,18.129999,2.520000,20.64
6096268,0.154208,-0.066368,1.523536,-5.740000,12.600000,2.660000,20.64
6096279,0.154208,-0.085400,1.565016,-7.140000,5.390000,3.080000,20.63
6096290,0.147376,-0.092720,1.613328,-7.000000,-3.780000,2.380000,20.63
6096301,0.136640,-0.089304,1.654320,-7.490000,-11.830000,2.450000,20.63
6096312,0.132736,-0.096136,1.667496,-7.910000,-21.490000,1.890000,20.66
6096323,0.120048,-0.070272,1.654320,-8.960000,-31.850000,0.770000,20.66
6096333,0.123464,-0.065880,1.621624,-10.360000,-40.529999,0.700000,20.62
6096344,0.138592,-0.058072,1.595760,-13.370000,-49.070000,0.140000,20.64
6096355,0.137128,-0.076128,1.586000,-15.750000,-59.849998,-0.630000,20.64
6096366,0.144936,-0.089792,1.582096,-19.600000,-70.139999,-0.350000,20.67
6096378,0.148352,-0.101992,1.560624,-19.389999,-78.820000,-1.260000,20.67
6096388,0.152744,-0.107360,1.522072,-17.219999,-89.879997,-2.450000,20.65
6096399,0.176656,-0.107360,1.484008,-14.490000,-98.279999,-3.990000,20.65
6096410,0.196664,-0.066856,1.490352,-16.590000,-106.120003,-2.170000,20.65
6096422,0.204960,-0.040992,1.510848,-21.209999,-114.940002,-2.100000,20.63
6096433,0.185440,-0.021472,1.486936,-25.200001,-125.160004,-3.360000,20.63
6096444,0.161040,-0.017568,1.397632,-27.580000,-137.199997,-3.780000,20.64
6096455,0.182512,-0.054168,1.273680,-28.070000,-145.600006,-5.180000,20.64
6096466,0.205448,-0.060024,1.136064,-24.500000,-149.869995,-6.580000,20.62
6096477,0.220088,-0.057584,1.043344,-20.440001,-154.350006,-8.050000,20.64
6096488,0.245952,-0.031720,0.955992,-20.510000,-156.940002,-6.650000,20.64
6096499,0.260104,0.005368,0.849608,-15.260000,-159.179993,-6.790000,20.62
6096510,0.282552,0.059536,0.723704,-17.990000,-160.020004,-4.760000,20.62
6096521,0.310368,0.099552,0.618784,-21.350000,-156.589996,-3.220000,20.65
6096532,0.333792,0.119560,0.503128,-25.969999,-151.619995,-0.140000,20.68
6096543,0.353312,0.090768,0.416264,-31.360001,-146.020004,2.380000,20.68
6096554,0.373808,0.043432,0.356240,-32.830002,-139.089996,3.850000,20.64
6096565,0.394792,-0.004392,0.307440,-34.160000,-130.759995,5.810000,20.64
6096576,0.400648,-0.059536,0.240096,-29.540001,-123.970001,5.250000,20.65
6096587,0.432856,-0.089304,0.164944,-24.219999,-114.800003,6.160000,20.66
6096598,0.465064,-0.108336,0.110776,-21.280001,-102.480003,6.510000,20.66
6096608,0.477264,-0.126392,0.069296,-17.920000,-92.400002,6.090000,20.63
6096619,0.487512,-0.138592,0.069784,-14.700000,-80.570000,6.020000,20.63
6096630,0.491416,-0.157624,0.088816,-10.500000,-68.879997,4.270000,20.67
6096641,0.493856,-0.170800,0.077592,-4.480000,-60.060001,3.150000,20.67
6096652,0.518744,-0.182024,0.061976,1.120000,-49.209999,2.380000,20.64
6096663,0.544120,-0.192272,0.051728,6.720000,-36.330002,1.610000,20.61
6096674,0.552904,-0.186416,0.044408,9.660000,-26.320000,0.700000,20.61
6096685,0.558760,-0.198128,0.055144,13.160000,-14.350000,-0.210000,20.63
6096696,0.546560,-0.208864,0.064416,18.129999,-2.380000,-2.240000,20.63
6096707,0.538264,-0.191784,0.081008,21.910000,7.910000,-3.010000,20.66
6096718,0.564128,-0.174216,0.116144,24.430000,15.610000,-3.430000,20.62
6096729,0.590480,-0.154696,0.147376,23.940001,27.090000,-3.920000,20.62
6096740,0.591456,-0.154208,0.186416,22.190001,36.750000,-4.270000,20.67
6096750,0.597312,-0.168360,0.240584,21.490000,43.540001,-5.110000,20.67
6096761,0.593896,-0.166408,0.290360,20.510000,50.750000,-6.230000,20.65
6096772,0.583648,-0.176168,0.357216,19.879999,55.090000,-7.700000,20.65
6096783,0.575352,-0.183000,0.421632,19.670000,58.799999,-8.680000,20.63
6096794,0.575352,-0.193736,0.460184,22.400000,61.459999,-10.570000,20.61
6096805,0.584624,-0.188856,0.481168,25.969999,64.330002,-12.810000,20.61
6096816,0.603656,-0.171288,0.481168,30.940001,69.230003,-14.140000,20.65
6096826,0.602192,-0.129808,0.467992,34.160000,75.599998,-16.100000,20.65
6096837,0.597800,-0.098576,0.495808,32.759998,80.080002,-15.820000,20.65
6096848,0.563152,-0.073688,0.557784,30.030001,86.029999,-16.100000,20.64
6096859,0.406992,-0.035136,0.601704,29.260000,75.949997,-17.850000,20.64
6096870,0.598288,-0.027328,0.664656,27.580000,96.879997,-11.410000,20.62
6096880,0.515816,0.045872,0.711992,26.389999,94.360001,-15.960000,20.62
6096891,0.455304,0.011712,0.683688,22.330000,84.769997,-14.770000,20.62
6096902,0.547048,0.054656,0.751032,13.930000,96.599998,-10.360000,20.62
6096912,0.456768,0.034160,0.802272,12.460000,97.510002,-12.180000,20.64
6096923,0.449936,0.046360,0.841312,7.910000,99.959999,-9.100000,20.62
6096934,0.391376,0.032208,0.873032,5.740000,97.440002,-9.030000,20.62
6096945,0.389912,-0.003904,0.876936,7.000000,94.430000,-7.770000,20.64
6096956,0.397232,-0.006832,0.878888,8.610000,91.139999,-5.950000,20.64
6096967,0.418704,-0.017568,0.898896,9.520000,90.790001,-5.250000,20.66
6096978,0.408944,-0.006832,0.954040,9.870000,91.419998,-4.760000,20.66
6096989,0.369416,-0.002928,1.014064,9.660000,91.419998,-4.900000,20.61
6097000,0.341112,-0.012200,1.035536,11.970000,89.250000,-4.760000,20.60
6097010,0.340136,-0.000488,1.040416,13.090000,84.980003,-4.340000,20.60
6097021,0.337208,-0.124440,1.007720,13.930000,83.230003,-4.970000,20.62
6097032,0.345016,-0.018544,1.002352,10.640000,81.339996,-3.430000,20.62
6097043,0.349896,0.003416,1.041392,10.640000,82.669998,-4.270000,20.67
6097054,0.305488,0.047824,1.154120,0.560000,80.010002,-1.050000,20.62
6097064,0.238144,0.049776,1.234152,-2.240000,75.949997,-1.190000,20.62
6097075,0.219112,0.065392,1.273680,-7.910000,69.230003,1.050000,20.66
6097086,0.227896,0.026840,1.259528,-13.860000,62.020000,1.540000,20.66
6097097,0.249856,-0.033672,1.199992,-14.210000,58.029999,1.890000,20.65
6097108,0.245464,-0.058072,1.165832,-12.600000,55.720001,2.590000,20.65
6097119,0.245952,-0.081496,1.199992,-10.780000,54.950001,3.220000,20.66
6097129,0.233264,-0.103944,1.215608,-4.760000,51.869999,2.940000,20.62
6097140,0.226432,-0.080032,1.220488,-0.070000,49.070000,3.360000,20.62
6097151,0.234728,-0.065880,1.221952,4.130000,46.060001,3.430000,20.64
6097162,0.247416,-0.034160,1.227320,3.430000,44.660000,5.180000,20.64
6097172,0.244000,-0.042456,1.288320,-3.570000,44.380001,7.070000,20.62
6097183,0.226432,-0.108824,1.313696,-2.450000,44.869999,5.460000,20.62
6097194,0.189344,-0.111264,1.324432,-0.980000,42.840000,6.160000,20.59
6097204,0.157624,-0.073200,1.331264,-6.510000,38.150002,6.720000,20.58
6097221,0.178120,-0.116632,1.375184,-15.680000,31.360001,8.470000,20.58
6097232,0.185928,-0.159576,1.443016,-17.920000,27.719999,7.840000,20.60
6097243,0.172752,-0.204960,1.517680,-14.210000,23.520000,5.950000,20.62
6097254,0.159576,-0.250832,1.574288,-5.600000,16.940001,4.060000,20.62
6097264,0.144936,-0.253760,1.623576,1.960000,9.100000,1.470000,20.65
6097275,0.139080,-0.247904,1.633336,12.390000,2.520000,-0.350000,20.65
6097287,0.122488,-0.203496,1.622600,21.490000,-6.160000,-3.640000,20.64
6097298,0.120048,-0.132736,1.621624,21.559999,-15.820000,-4.200000,20.63
6097309,0.114192,-0.087352,1.628944,18.270000,-25.620001,-5.250000,20.63
6097320,0.108824,-0.044408,1.613328,11.410000,-34.580002,-4.830000,20.68
6097331,0.125904,-0.023912,1.582096,0.630000,-45.080002,-3.710000,20.68
6097342,0.140544,-0.047824,1.565504,-5.530000,-54.950001,-3.150000,20.65
6097353,0.158112,-0.058560,1.563552,-13.440000,-63.560001,-2.030000,20.62
6097364,0.178120,-0.090768,1.566968,-16.379999,-72.239998,-2.870000,20.62
6097375,0.176656,-0.135664,1.549888,-11.270000,-81.550003,-5.740000,20.62
6097386,0.170312,-0.146888,1.486448,-3.850000,-91.769997,-7.490000,20.62
6097397,0.187880,-0.119072,1.427888,4.130000,-97.790001,-8.540000,20.66
6097407,0.200568,-0.089304,1.388848,9.380000,-105.000000,-8.750000,20.66
6097418,0.209840,-0.029280,1.353712,9.310000,-112.209999,-7.910000,20.65
6097430,0.200568,0.004880,1.341512,6.020000,-118.790001,-7.420000,20.63
6097440,0.203008,0.062464,1.314184,-0.420000,-128.240005,-5.600000,20.63
6097451,0.233264,0.080032,1.265872,-8.610000,-136.289993,-3.500000,20.61
6097462,0.249856,0.071736,1.188280,-16.240000,-141.259995,-3.010000,20.61
6097473,0.257664,0.055144,1.123864,-20.930000,-146.509995,-2.590000,20.59
6097484,0.264008,0.058072,1.039440,-22.540001,-151.339996,-1.680000,20.64
6097495,0.278648,0.050752,0.932568,-22.540001,-153.020004,-1.260000,20.64
6097506,0.297192,0.051728,0.844728,-22.820000,-153.509995,0.490000,20.65
6097516,0.324520,0.044408,0.760792,-24.010000,-151.970001,2.590000,20.65
6097527,0.346480,0.034648,0.665144,-24.219999,-149.940002,3.360000,20.57
6097538,0.355752,0.038064,0.583160,-24.639999,-146.720001,4.340000,20.57
6097549,0.370880,0.020496,0.501176,-23.730000,-143.149994,4.830000,20.61
6097560,0.406992,0.014152,0.447008,-25.129999,-136.990005,6.230000,20.65
6097570,0.433832,-0.021960,0.398696,-22.820000,-128.940002,6.510000,20.65
6097581,0.452376,-0.036112,0.321104,-19.670000,-122.150002,6.860000,20.63
6097592,0.486536,-0.070272,0.274256,-16.590000,-112.629997,6.790000,20.63
6097603,0.514352,-0.068320,0.223016,-15.540000,-101.919998,6.650000,20.65
6097614,0.535824,-0.075640,0.214720,-15.540000,-93.589996,7.070000,20.65
6097625,0.550464,-0.088816,0.195200,-12.670000,-82.529999,6.650000,20.65
6097636,0.550952,-0.085400,0.163968,-11.410000,-71.050003,6.440000,20.64
6097647,0.556320,-0.108336,0.145424,-10.640000,-61.880001,6.440000,20.64
6097657,0.574376,-0.117120,0.122488,-8.750000,-50.259998,6.090000,20.63
6097668,0.596824,-0.114192,0.125416,-8.680000,-38.290001,5.950000,20.63
6097679,0.602192,-0.113704,0.134200,-9.450000,-28.910000,5.600000,20.67
6097690,0.592432,-0.125416,0.156160,-10.010000,-18.059999,4.620000,20.62
6097701,0.581696,-0.145424,0.167384,-8.470000,-7.910000,3.570000,20.62
6097712,0.588040,-0.149328,0.174216,-6.090000,17.570000,3.640000,20.66
6097723,0.597800,-0.154208,0.189344,-3.850000,8.820000,3.080000,20.66
6097734,0.602192,-0.160064,0.193248,-0.350000,18.480000,2.030000,20.69
6097744,0.595848,-0.160064,0.218624,2.520000,25.340000,0.840000,20.59
6097755,0.587064,-0.159088,0.246440,5.180000,33.810001,0.210000,20.59
6097766,0.577792,-0.156648,0.296216,6.370000,39.480000,-0.700000,20.62
6097777,0.577304,-0.159088,0.342088,9.240000,45.150002,-1.120000,20.62
6097788,0.570960,-0.143472,0.373808,11.200000,50.049999,-1.190000,20.65
6097798,0.567544,-0.131760,0.410408,11.550000,53.270000,-1.890000,20.65
6097809,0.569496,-0.133712,0.433344,12.600000,57.259998,-2.450000,20.60
6097820,0.568520,-0.137128,0.479216,12.740000,60.410000,-2.940000,20.63
6097831,0.562664,-0.136152,0.526552,14.980000,62.650002,-4.200000,20.63
6097841,0.559248,-0.126880,0.564128,15.680000,63.910000,-4.270000,20.64
6097852,0.563640,-0.131760,0.589992,18.900000,65.800003,-5.740000,20.64
6097863,0.567056,-0.117120,0.593896,22.330000,68.040001,-5.950000,20.63
6097874,0.483608,-0.089792,0.575840,24.360001,64.959999,-8.610000,20.63
6097885,0.630496,-0.110776,0.570472,23.309999,79.870003,-5.600000,20.62
6097895,0.603168,-0.038552,0.646600,17.570000,83.440002,-2.800000,20.64
6097906,0.492880,-0.043920,0.703208,17.709999,80.080002,-6.860000,20.64
6097917,0.510936,-0.031232,0.753960,12.740000,80.290001,-3.220000,20.66
6097928,0.502640,-0.037088,0.797880,12.250000,80.150002,-3.850000,20.66
6097939,0.497272,-0.068808,0.781288,14.210000,80.150002,-3.500000,20.62
6097949,0.497760,-0.072224,0.725656,19.809999,82.949997,-4.690000,20.61
6097960,0.492392,-0.069784,0.705160,21.910000,86.239998,-4.270000,20.61
6097971,0.475312,-0.057096,0.741272,22.120001,87.639999,-3.360000,20.69
6097982,0.451888,-0.050264,0.840824,19.950001,88.480003,-1.400000,20.69
6097992,0.419192,-0.037088,0.905240,22.680000,86.940002,-2.450000,20.66
6098003,0.399672,-0.023912,0.925248,24.920000,85.330002,-3.570000,20.66
6098014,0.403088,-0.037088,0.902312,29.330000,85.050003,-4.270000,20.62
6098025,0.417728,-0.010736,0.863272,29.260000,87.010002,-2.940000,20.65
6098036,0.413336,0.010736,0.882304,23.730000,88.830002,-1.330000,20.65
6098046,0.399672,0.020984,0.955992,16.590000,89.250000,0.910000,20.67
6098057,0.363072,0.020008,1.030168,12.600000,86.870003,0.980000,20.67
6098068,0.329888,0.018544,1.064816,9.450000,82.250000,1.470000,20.66
6098078,0.319640,-0.011224,1.051152,6.650000,80.220001,1.680000,20.66
6098089,0.318176,-0.050264,1.027240,7.210000,79.379997,1.820000,20.63
6098100,0.320128,-0.067832,1.037000,6.790000,79.449997,2.730000,20.60
6098110,0.291824,-0.060512,1.117032,4.690000,77.839996,2.660000,20.60
6098121,0.256200,-0.073200,1.178032,6.790000,73.080002,1.400000,20.62
6098132,0.249856,-0.060512,1.214144,7.770000,67.830002,1.680000,20.62
6098143,0.248880,-0.040992,1.223904,6.300000,61.320000,1.400000,20.65
6098153,0.271816,-0.062464,1.213656,5.460000,57.470001,1.050000,20.65
6098164,0.279136,-0.081496,1.207312,4.550000,56.840000,1.470000,20.65
6098175,0.256200,-0.111264,1.208288,5.600000,55.160000,0.700000,20.62
6098186,0.246440,-0.124928,1.249768,5.180000,53.830002,0.560000,20.62
6098196,0.217648,-0.131272,1.274168,9.170000,50.330002,-1.960000,20.62
6098207,0.202032,-0.109800,1.289784,10.710000,45.849998,-1.120000,20.62
6098218,0.218136,-0.110776,1.320040,11.340000,42.209999,-1.400000,20.62
6098229,0.249368,-0.091256,1.358592,10.780000,41.439999,-1.190000,20.62
6098239,0.235704,-0.069784,1.443504,7.980000,37.939999,-1.610000,20.62
6098250,0.203496,-0.068320,1.515728,7.350000,33.880001,-2.030000,20.64
6098261,0.179584,-0.026840,1.557696,1.400000,26.250000,-0.070000,20.64
6098272,0.166408,-0.039528,1.581120,-4.270000,20.090000,0.770000,20.66
6098283,0.154208,-0.068320,1.580632,-8.400000,12.950000,1.890000,20.66
6098293,0.157624,-0.097600,1.596248,-10.500000,6.860000,1.610000,20.66
6098304,0.147376,-0.120536,1.613816,-8.330000,1.120000,0.630000,20.60
6098315,0.136152,-0.110776,1.627968,-4.480000,-6.370000,-0.280000,20.60
6098326,0.134688,-0.099552,1.663104,-3.710000,-16.170000,0.490000,20.62
6098337,0.121024,-0.081008,1.693360,-2.310000,-25.059999,0.210000,20.62
6098348,0.112728,-0.053192,1.690432,-3.850000,-37.380001,0.210000,20.63
6098359,0.133224,-0.046360,1.661152,-8.050000,-47.110001,0.140000,20.58
6098370,0.140544,-0.050264,1.603568,-10.080000,-56.209999,-1.050000,20.58
6098381,0.143472,-0.051240,1.564528,-14.420000,-65.870003,0.070000,20.62
6098392,0.160064,-0.047824,1.555744,-18.549999,-74.620003,-0.140000,20.62
6098403,0.148352,-0.043920,1.535248,-19.459999,-84.910004,-1.260000,20.68
6098414,0.142008,-0.053192,1.489376,-19.110001,-92.889999,-2.870000,20.68
6098425,0.158600,-0.051728,1.411296,-17.219999,-102.900002,-2.520000,20.65
6098436,0.187392,-0.041480,1.344440,-15.960000,-110.669998,-3.570000,20.63
6098447,0.201544,-0.017568,1.291736,-16.730000,-117.529999,-3.150000,20.63
6098458,0.209352,0.121512,1.252208,-16.520000,-123.129997,-3.220000,20.65
6098469,0.203984,0.009272,1.235616,-17.150000,-130.619995,-3.360000,20.65
6098480,0.223504,0.016592,1.196088,-17.150000,-137.970001,-2.240000,20.62
6098491,0.237168,0.029280,1.113616,-17.920000,-143.289993,-2.520000,20.59
6098502,0.257664,0.036600,0.994544,-20.580000,-146.929993,-1.750000,20.59
6098513,0.283528,0.028304,0.910120,-23.520000,-148.750000,-0.700000,20.63
6098524,0.289384,0.030256,0.835456,-26.459999,-150.080002,0.560000,20.63
6098535,0.302072,0.044896,0.791048,-28.980000,-150.919998,2.170000,20.58
6098546,0.322080,0.051240,0.765184,-33.320000,-150.919998,3.360000,20.66
6098557,0.338184,0.019032,0.682712,-33.599998,-150.080002,2.520000,20.66
6098568,0.366488,-0.002928,0.573888,-35.070000,-148.539993,3.640000,20.58
6098579,0.411384,-0.008296,0.460672,-41.020000,-143.710007,5.040000,20.58
6098590,0.449448,-0.064416,0.405528,-42.419998,-136.080002,4.410000,20.62
6098601,0.457256,-0.091256,0.329400,-38.500000,-127.260002,3.780000,20.62
6098612,0.470920,-0.122976,0.254736,-30.870001,-119.629997,3.010000,20.65
6098623,0.497272,-0.139568,0.198616,-21.070000,-108.989998,2.800000,20.65
6098633,0.510448,-0.122488,0.162504,-15.960000,-100.940002,3.150000,20.65
6098644,0.538752,-0.148840,0.144448,-7.210000,-89.040001,2.520000,20.63
6098655,0.552904,-0.140056,0.138104,-1.400000,-77.489998,2.800000,20.63
6098666,0.565592,-0.103944,0.141520,-0.210000,-68.389999,3.570000,20.60
6098677,0.568520,-0.085888,0.147376,-0.280000,-57.119999,3.430000,20.59
6098688,0.573888,-0.063440,0.127368,-3.920000,-46.830002,4.060000,20.59
6098699,0.589504,-0.081984,0.110776,-7.700000,-38.990002,4.830000,20.61
6098710,0.616344,-0.110288,0.111264,-11.410000,-28.209999,5.600000,20.61
6098721,0.640256,-0.145424,0.126880,-14.210000,-17.150000,6.230000,20.62
6098732,0.640256,-0.188856,0.167384,-14.910000,-6.650000,5.460000,20.62
6098743,0.629520,-0.215696,0.203496,-11.410000,0.280000,3.850000,20.62
6098754,0.623664,-0.233752,0.230336,-5.950000,7.490000,2.660000,20.62
6098765,0.634888,-0.245952,0.253760,-2.240000,14.280000,1.260000,20.62
6098776,0.639768,-0.256200,0.279624,4.550000,19.809999,-1.050000,20.65
6098787,0.651480,-0.225944,0.306464,8.820000,26.110001,-1.470000,20.65
6098798,0.656848,-0.203008,0.349408,9.520000,32.200001,-2.940000,20.63
6098808,0.645136,-0.189832,0.410896,9.730000,35.209999,-4.060000,20.64
6098819,0.639280,-0.188856,0.464088,9.100000,37.380001,-4.760000,20.64
6098830,0.630496,-0.179096,0.516304,9.310000,38.290001,-5.810000,20.65
6098841,0.632936,-0.165920,0.545584,8.050000,37.730000,-6.650000,20.65
6098852,0.643672,-0.176168,0.560224,8.470000,38.849998,-7.350000,20.65
6098863,0.644160,-0.162992,0.553880,9.520000,39.970001,-8.750000,20.65
6098874,0.652456,-0.156648,0.541680,10.710000,41.509998,-9.170000,20.64
6098885,0.666120,-0.149816,0.538264,11.200000,45.779999,-8.890000,20.66
6098896,0.672464,-0.161040,0.546560,15.330000,50.680000,-9.170000,20.66
6098906,0.644160,-0.148352,0.547536,18.129999,37.310001,-3.500000,20.64
6098917,0.730048,-0.119560,0.580720,20.510000,62.790001,-9.310000,20.64
6098928,0.537776,-0.121024,0.592432,26.600000,57.959999,-12.460000,20.65
6098939,0.592920,-0.082472,0.637816,24.780001,61.810001,-6.790000,20.62
6098950,0.600728,-0.066368,0.660752,27.719999,62.020000,-9.100000,20.62
6098962,0.565592,-0.056608,0.631472,29.680000,63.000000,-8.470000,20.64
6098972,0.584136,-0.043920,0.591944,31.639999,69.370003,-8.190000,20.64
6098983,0.567544,-0.025864,0.576328,30.730000,73.150002,-6.510000,20.61
6098994,0.561200,-0.024888,0.615368,27.440001,77.769997,-5.180000,20.66
6099005,0.525576,-0.022448,0.687104,26.250000,78.470001,-2.590000,20.66
6099016,0.520696,-0.014152,0.740784,23.870001,78.050003,-1.330000,20.63
6099027,0.522160,-0.037576,0.748104,24.639999,79.870003,-1.540000,20.63
6099038,0.518256,-0.043920,0.732976,25.760000,82.949997,-3.080000,20.68
6099049,0.376736,-0.041968,0.745176,23.379999,85.680000,-1.750000,20.68
6099060,0.475312,-0.040504,0.799832,20.299999,86.379997,-1.050000,20.62
6099071,0.441152,-0.034648,0.887672,16.240000,85.120003,-0.140000,20.64
6099082,0.406016,-0.025376,0.966728,15.470000,81.830002,-1.890000,20.64
6099092,0.392352,-0.031720,0.978928,15.890000,78.610001,-1.960000,20.66
6099103,0.415776,-0.051240,0.959408,17.570000,76.650002,-2.170000,20.66
6099114,0.420656,-0.059048,0.920368,19.530001,77.279999,-2.940000,20.64
6099125,0.413336,-0.041480,0.962824,15.190000,76.930000,-0.700000,20.62
6099136,0.381616,-0.015128,1.004792,15.190000,75.110001,-2.170000,20.62
6099147,0.352824,-0.016104,1.032608,14.770000,72.169998,-1.890000,20.62
6099158,0.341600,-0.035624,1.038464,17.850000,69.440002,-3.220000,20.62
6099169,0.325008,-0.025864,1.011624,21.559999,68.599998,-4.900000,20.66
6099180,0.333304,-0.009272,0.977952,21.980000,68.180000,-2.800000,20.66
6099191,0.345992,0.010248,0.996496,17.920000,69.510002,-0.910000,20.68
6099202,0.320128,0.021472,1.052128,12.320000,69.510002,0.280000,20.62
6099213,0.287432,0.013176,1.102880,9.660000,66.919998,0.630000,20.62
6099224,0.282552,0.007808,1.144848,8.190000,63.139999,1.540000,20.63
6099235,0.283528,-0.014152,1.137040,7.070000,61.459999,1.260000,20.63
6099246,0.286456,-0.045384,1.106784,7.560000,60.270000,1.190000,20.62
6099257,0.290848,-0.071248,1.121912,5.810000,60.759998,3.010000,20.68
6099268,0.278160,-0.083936,1.148752,8.750000,62.650002,0.980000,20.68
6099278,0.241072,-0.079056,1.174616,10.780000,60.900002,0.840000,20.63
6099289,0.215208,-0.071248,1.224392,11.340000,58.590000,0.280000,20.63
6099300,0.190808,-0.067832,1.268312,9.450000,53.549999,1.540000,20.67
6099311,0.207400,-0.051728,1.327848,4.760000,50.820000,1.540000,20.67
6099322,0.209840,-0.058560,1.398120,-0.560000,47.250000,1.960000,20.63
6099333,0.213744,-0.064416,1.483032,-4.970000,41.930000,2.660000,20.64
6099343,0.210328,-0.061488,1.548424,-9.310000,34.930000,3.150000,20.64
6099354,0.204960,-0.098576,1.610888,-10.150000,28.000000,2.730000,20.65
6099365,0.190320,-0.122000,1.634800,-6.230000,20.370001,2.030000,20.65
6099377,0.189832,-0.122488,1.645536,-3.780000,12.390000,2.380000,20.63
6099388,0.183976,-0.112728,1.655784,-3.150000,5.530000,1.190000,20.59
6099399,0.176656,-0.086376,1.676280,-5.390000,-3.640000,1.120000,20.59
6099410,0.168360,-0.103456,1.702144,-7.910000,-12.810000,0.630000,20.68
6099421,0.158600,-0.101016,1.724104,-8.680000,-26.320000,0.280000,20.68
6099432,0.171288,-0.081008,1.719224,-9.520000,-38.779999,0.560000,20.62
6099444,0.185440,-0.084912,1.678720,-9.940000,-48.650002,-0.630000,20.61
6099455,0.185440,-0.104920,1.647000,-9.450000,-58.169998,-0.560000,20.61
6099466,0.183976,-0.079544,1.647000,-7.980000,-68.110001,-1.610000,20.63
6099478,0.162504,-0.061976,1.655784,-9.450000,-79.940002,-0.140000,20.63
6099489,0.188368,-0.061976,1.627480,-8.540000,-91.559998,-1.190000,20.60
6099500,0.195200,-0.059536,1.568432,-7.490000,-101.709999,-1.680000,20.64
6099511,0.210328,-0.043920,1.502064,-10.780000,-111.930000,0.070000,20.64
6099522,0.224480,-0.048312,1.436184,-12.320000,-118.860001,-1.190000,20.64
6099533,0.222040,-0.001464,1.379576,-17.080000,-126.839996,-0.630000,20.64
6099544,0.228872,0.001464,1.287344,-18.410000,-134.539993,-2.030000,20.65
6099555,0.245464,0.007320,1.196088,-21.840000,-139.860001,-1.400000,20.61
6099566,0.266936,-0.008296,1.075064,-19.809999,-145.039993,-2.240000,20.61
6099577,0.292312,0.015128,0.995032,-19.110001,-147.630005,-1.330000,20.65
6099588,0.298168,0.018056,0.892552,-16.100000,-148.259995,-1.820000,20.65
6099599,0.311344,0.056608,0.819840,-15.890000,-147.910004,0.630000,20.66
6099610,0.322080,0.077592,0.733952,-16.940001,-146.580002,2.450000,20.61
6099621,0.328912,0.082472,0.662704,-16.590000,-146.580002,3.920000,20.61
6099632,0.349896,0.097112,0.641232,-23.870001,-145.320007,8.470000,20.64
6099643,0.360144,0.074664,0.598288,-23.379999,-143.639999,7.070000,20.64
6099654,0.361608,0.096136,0.560712,-28.559999,-143.220001,10.290000,20.60
6099665,0.380152,0.042944,0.480680,-30.379999,-138.880005,9.800000,20.60
6099676,0.365024,0.033184,0.351848,-33.529999,-135.729996,10.430000,20.66
6099687,0.389424,-0.034648,0.223504,-32.900002,-130.199997,9.730000,20.64
6099698,0.406992,-0.091744,0.132248,-26.950001,-121.730003,8.960000,20.64
6099709,0.438224,-0.100040,0.072224,-23.870001,-113.260002,9.240000,20.61
6099720,0.522648,-0.116144,0.059048,-20.860001,-102.970001,10.430000,20.61
6099731,0.549488,-0.119560,0.056120,-17.570000,-87.919998,9.170000,20.64
6099742,0.549000,-0.112240,0.061000,-14.630000,-74.760002,9.170000,20.64
6099753,0.558760,-0.116632,0.092720,-12.390000,-65.169998,9.240000,20.64
6099764,0.564128,-0.111752,0.098088,-9.310000,-53.549999,8.610000,20.62
6099776,0.589016,-0.110776,0.087840,-6.160000,-42.279999,9.310000,20.62
6099787,0.620248,-0.133224,0.062464,-4.060000,-28.559999,9.240000,20.66
6099798,0.623664,-0.149328,0.076128,-5.600000,-15.190000,10.080000,20.62
6099809,0.627568,-0.177632,0.097600,-3.850000,-5.390000,8.960000,20.62
6099820,0.628544,-0.218624,0.118096,0.000000,6.160000,8.330000,20.72
6099831,0.631960,-0.250832,0.138592,4.550000,15.960000,6.230000,20.72
6099841,0.659288,-0.270840,0.181048,9.730000,23.100000,5.320000,20.64
6099852,0.686128,-0.267912,0.221064,14.140000,33.740002,3.850000,20.64
6099863,0.669536,-0.261568,0.272792,17.360001,42.840000,1.120000,20.63
6099874,0.634888,-0.252296,0.321592,21.910000,48.230000,-0.770000,20.61
6099885,0.616344,-0.223016,0.374784,25.620001,53.689999,-2.870000,20.61
6099896,0.614392,-0.193248,0.416264,26.740000,57.680000,-4.550000,20.62
6099907,0.622200,-0.165432,0.452376,27.160000,60.619999,-5.810000,20.62
6099918,0.633912,-0.139080,0.471896,24.990000,64.889999,-6.160000,20.64
6099929,0.641720,-0.118096,0.514352,19.809999,69.370003,-5.740000,20.63
6099940,0.631472,-0.107360,0.553392,14.980000,72.589996,-5.810000,20.63
6099951,0.610488,-0.087352,0.611464,8.120000,74.760002,-5.110000,20.66
6099962,0.621712,-0.083936,0.671976,4.130000,76.720001,2.800000,20.66
6099973,0.689056,-0.067832,0.713944,5.250000,85.820000,-3.710000,20.66
6099984,0.468968,-0.099552,0.709552,5.810000,76.720001,-7.840000,20.62
6099995,0.556320,-0.122976,0.686616,6.580000,78.400002,-1.050000,20.62
6100006,0.585600,-0.094184,0.721264,7.140000,82.110001,-4.340000,20.64
6100017,0.522160,-0.121512,0.732976,11.410000,84.699997,-7.630000,20.64
6100028,0.529480,-0.125904,0.744688,14.350000,83.160004,-5.110000,20.63
6100039,0.519720,-0.123464,0.751520,19.600000,85.540001,-6.860000,20.61
6100050,0.492880,-0.105408,0.769576,24.850000,86.309998,-8.260000,20.61
6100061,0.473360,-0.085400,0.822768,25.900000,84.070000,-7.350000,20.65
6100072,0.462136,-0.073688,0.882304,28.629999,82.180000,-8.120000,20.65
6100083,0.449448,-0.023424,0.900360,28.139999,79.379997,-6.860000,20.63
6100094,0.448960,0.000976,0.886696,25.620001,77.489998,-6.650000,20.63
6100104,0.449448,0.008784,0.863272,21.559999,78.050003,-6.790000,20.66
6100115,0.429440,0.034648,0.889136,13.230000,76.720001,-3.150000,20.60
6100126,0.412848,0.024888,0.937936,5.320000,74.620003,-2.590000,20.60
6100137,0.399184,0.013176,0.993080,-2.940000,71.050003,0.490000,20.68
6100148,0.389912,-0.002440,1.048224,-5.950000,65.800003,0.350000,20.68
6100159,0.382592,-0.026352,1.060912,-10.080000,62.790001,0.210000,20.68
6100170,0.371856,-0.081984,1.043832,-7.630000,56.910000,-1.190000,20.64
6100181,0.381128,-0.126880,0.993568,16.309999,55.299999,-2.800000,20.64
6100192,0.392352,-0.127368,0.972584,5.600000,54.110001,-1.750000,20.60
6100203,0.411384,-0.128344,0.997960,12.250000,55.509998,-2.380000,20.60
6100214,0.393328,-0.117608,1.020896,20.650000,55.580002,-3.360000,20.64
6100226,0.379664,-0.087352,1.049200,27.230000,55.020000,-3.010000,20.62
6100237,0.371368,-0.055144,1.046760,31.570000,54.599998,-2.450000,20.62
6100248,0.363072,-0.018056,1.066768,28.420000,54.040001,0.000000,20.62
6100259,0.345504,-0.030256,1.080432,28.000000,53.340000,-1.050000,20.62
6100270,0.333304,-0.017080,1.093608,23.379999,52.290001,0.070000,20.61
6100281,0.323056,-0.041968,1.123376,19.389999,50.259998,0.210000,20.61
6100291,0.312320,-0.051240,1.134112,16.309999,48.299999,0.350000,20.64
6100302,0.314272,-0.058560,1.133136,11.270000,46.619999,0.700000,20.63
6100313,0.317200,-0.073200,1.137040,8.820000,46.410000,1.120000,20.63
6100324,0.311832,-0.080520,1.155584,4.970000,45.779999,2.030000,20.68
6100335,0.311832,-0.108824,1.196576,1.960000,44.799999,2.520000,20.68
6100346,0.290360,-0.127368,1.257088,3.780000,43.889999,1.400000,20.66
6100357,0.282552,-0.126880,1.315160,6.650000,42.349998,0.980000,20.63
6100368,0.266448,-0.100040,1.344440,7.560000,38.779999,0.630000,20.63
6100379,0.258152,-0.092720,1.367376,6.650000,35.419998,1.190000,20.64
6100390,0.257664,-0.082960,1.401536,2.590000,32.619999,2.310000,20.64
6100401,0.243024,-0.084912,1.450336,-1.540000,28.139999,2.100000,20.63
6100412,0.216184,-0.097112,1.481080,-4.340000,21.280001,2.310000,20.63
6100423,0.203984,-0.112240,1.508896,-5.180000,15.750000,1.610000,20.59
6100433,0.199592,-0.117608,1.516704,-3.430000,8.820000,0.560000,20.63
6100444,0.210816,-0.123952,1.515728,-1.680000,0.770000,0.630000,20.63
6100456,0.227408,-0.115168,1.515728,-0.350000,-5.110000,-0.560000,20.65
6100467,0.222528,-0.112240,1.522560,0.770000,-11.340000,-1.680000,20.65
6100478,0.214720,-0.081984,1.532808,1.260000,-19.040001,-0.630000,20.64
6100489,0.222528,-0.056120,1.533784,-0.630000,-26.459999,-0.280000,20.62
6100500,0.224968,-0.046360,1.520120,-4.200000,-34.790001,0.280000,20.62
6100511,0.221064,-0.057584,1.495720,-8.400000,-41.930000,0.700000,20.60
6100522,0.221064,-0.063440,1.477664,-11.480000,-49.070000,0.350000,20.60
6100533,0.222040,-0.084424,1.464000,-13.090000,-57.820000,0.070000,20.65
6100544,0.242536,-0.100528,1.486448,-17.850000,-63.000000,0.630000,20.62
6100555,0.217160,-0.112240,1.492792,-16.940001,-73.150002,-1.750000,20.62
6100566,0.212280,-0.105408,1.475712,-16.309999,-83.580002,-3.150000,20.64
6100577,0.200568,-0.072712,1.443992,-18.200001,-95.690002,-3.850000,20.64
6100588,0.211792,-0.068808,1.385920,-18.690001,-103.879997,-6.370000,20.72
6100600,0.228384,-0.055632,1.289296,-17.850000,-112.070000,-7.910000,20.64
6100611,0.228872,-0.045872,1.182912,-16.309999,-119.419998,-9.870000,20.64
6100622,0.264496,-0.016592,1.143384,-17.150000,-124.809998,-8.050000,20.66
6100633,0.268888,0.017568,1.088240,-17.500000,-129.360001,-8.190000,20.66
6100644,0.270840,0.022448,1.011624,-18.480000,-132.720001,-7.560000,20.66
6100655,0.289384,0.031232,0.931104,-19.110001,-135.169998,-6.860000,20.62
6100666,0.308904,0.026352,0.852536,-19.180000,-136.779999,-5.950000,20.62
6100678,0.341112,0.021472,0.745176,-18.200001,-136.149994,-4.900000,20.65
6100689,0.367464,0.021960,0.653920,-18.900000,-133.910004,-2.730000,20.65
6100699,0.382592,0.034160,0.579744,-20.020000,-129.779999,-1.330000,20.67
6100710,0.401624,0.081008,0.497760,-22.330000,-123.480003,1.120000,20.67
6100721,0.416752,0.087352,0.426024,-24.150000,-116.900002,3.780000,20.64
6100732,0.453352,0.087840,0.378688,-29.680000,-110.669998,7.210000,20.66
6100743,0.469456,0.054656,0.351848,-32.200001,-101.779999,8.680000,20.66
6100755,0.480192,0.011712,0.316712,-33.180000,-93.660004,10.500000,20.66
6100765,0.490928,-0.043920,0.272304,-31.430000,-86.519997,11.130000,20.66
6100776,0.503616,-0.091256,0.226432,-25.760000,-76.860001,10.010000,20.67
6100787,0.521672,-0.127856,0.190808,-17.709999,-66.150002,8.960000,20.61
6100799,0.534360,-0.165920,0.166408,-11.340000,-55.230000,8.120000,20.61
6100810,0.546560,-0.169336,0.144936,-3.080000,-46.200001,7.000000,20.70
6100821,0.552904,-0.169336,0.133224,3.920000,-34.439999,6.720000,20.70
6100832,0.562664,-0.160552,0.140544,6.860000,-22.820000,6.860000,20.65
6100843,0.559736,-0.156160,0.157136,10.150000,-11.830000,5.600000,20.64
6100854,0.549976,-0.148840,0.174704,14.910000,-3.990000,4.340000,20.64
6100865,0.552904,-0.144448,0.206424,16.450001,4.760000,4.200000,20.66
6100876,0.554856,-0.151768,0.229360,18.200001,13.020000,3.360000,20.66
6100887,0.561200,-0.142984,0.238144,18.830000,19.110001,3.010000,20.59
6100898,0.586576,-0.137128,0.261080,15.820000,26.879999,2.940000,20.62
6100909,0.596824,-0.148352,0.287432,12.880000,35.279999,3.080000,20.62
6100920,0.594384,-0.133224,0.325008,9.240000,41.020000,2.870000,20.62
6100933,0.575840,-0.146400,0.379176,5.180000,48.650002,2.170000,20.62
6100949,0.558760,-0.168360,0.449936,4.690000,53.900002,0.630000,20.65
6100963,0.556808,-0.174704,0.511424,8.680000,57.820000,-1.470000,20.64
6100975,0.571448,-0.182024,0.534360,12.950000,61.040001,-2.730000,20.61
6100988,0.588528,-0.151280,0.554368,13.930000,65.940002,-3.780000,20.61
6101002,0.570960,-0.122488,0.567056,12.250000,71.050003,-4.620000,20.66
6101014,0.437248,-0.145424,0.595848,6.370000,62.790001,-5.880000,20.64
6101025,0.521184,-0.140544,0.688080,5.390000,78.190002,-1.680000,20.64
6101036,0.490928,-0.087352,0.768600,7.000000,78.330002,-3.850000,20.62
6101047,0.420656,-0.122976,0.782752,8.680000,70.489998,-6.720000,20.62
6101058,0.505568,-0.127856,0.797392,11.340000,77.349998,-5.950000,20.62
6101069,0.479704,-0.093696,0.803736,13.930000,77.209999,-5.740000,20.61
6101080,0.485072,-0.100528,0.821792,12.670000,79.239998,-4.340000,20.61
6101091,0.457744,-0.086864,0.861808,11.620000,79.099998,-4.690000,20.65
6101102,0.419192,-0.083936,0.928664,9.380000,76.510002,-5.110000,20.65
6101113,0.401136,-0.108336,0.970632,11.900000,73.150002,-6.230000,20.61
6101125,0.402112,-0.093208,0.966240,14.700000,69.580002,-6.090000,20.60
6101136,0.434320,-0.090280,0.942816,16.450001,69.160004,-6.020000,20.60
6101147,0.442616,-0.063440,0.930128,14.070000,70.629997,-5.460000,20.67
6101158,0.434320,-0.063928,0.967704,8.820000,71.959999,-3.850000,20.67
6101169,0.391864,-0.073200,1.016992,7.910000,70.419998,-4.130000,20.62
6101181,0.367464,-0.071248,1.065304,6.860000,67.269997,-3.080000,20.64
6101192,0.353800,-0.062952,1.080920,7.420000,63.209999,-2.940000,20.64
6101203,0.350384,-0.060024,1.072624,7.210000,59.849998,-2.450000,20.65
6101214,0.370392,-0.071248,1.063840,6.580000,61.320000,-2.240000,20.65
6101225,0.353312,-0.070272,1.056520,6.930000,61.459999,-1.330000,20.64
6101236,0.319640,-0.069296,1.066280,7.700000,60.340000,-1.890000,20.61
6101247,0.285968,-0.073688,1.080432,9.940000,57.610001,-1.260000,20.61
6101258,0.280112,-0.039040,1.077992,10.710000,53.340000,-0.490000,20.66
6101269,0.288896,-0.025864,1.055544,8.960000,52.080002,0.070000,20.66
6101280,0.310856,-0.033184,1.043832,6.370000,52.290001,2.100000,20.66
6101291,0.316224,-0.034648,1.029680,5.040000,55.299999,3.360000,20.65
6101302,0.288408,-0.049776,1.029192,5.320000,56.139999,4.480000,20.65
6101313,0.265960,-0.041968,1.050176,4.340000,55.509998,5.810000,20.66
6101324,0.237168,-0.059048,1.093608,2.590000,53.480000,6.510000,20.66
6101335,0.226432,-0.107848,1.133136,3.850000,50.400002,6.160000,20.65
6101346,0.226432,-0.130784,1.151680,7.700000,47.669998,5.600000,20.61
6101357,0.235704,-0.127368,1.172664,8.330000,45.849998,5.180000,20.61
6101368,0.233752,-0.135176,1.204872,7.840000,44.520000,3.780000,20.66
6101379,0.223992,-0.146400,1.259040,7.560000,42.490002,2.870000,20.66
6101390,0.193248,-0.146888,1.297592,8.750000,37.450001,1.470000,20.69
6101401,0.199592,-0.137616,1.342000,9.170000,32.270000,1.050000,20.69
6101412,0.204960,-0.138592,1.368352,8.260000,26.670000,0.490000,20.63
6101423,0.217160,-0.137616,1.405440,5.390000,23.730000,-0.490000,20.65
6101434,0.201056,-0.137128,1.431304,3.010000,19.809999,-1.470000,20.65
6101445,0.176168,-0.142984,1.444968,-0.420000,13.930000,-1.190000,20.66
6101457,0.159576,-0.162992,1.476688,-1.960000,7.700000,-2.030000,20.66
6101468,0.145424,-0.168360,1.515728,0.000000,-0.350000,-2.940000,20.64
6101480,0.147376,-0.150304,1.560624,0.070000,-7.420000,-3.220000,20.65
6101490,0.141032,-0.147376,1.594784,-0.210000,-14.140000,-3.990000,20.65
6101502,0.138104,-0.140544,1.604544,-1.680000,-22.260000,-4.690000,20.64
6101513,0.139568,-0.139080,1.601616,-4.060000,-31.219999,-5.390000,20.64
6101524,0.136640,-0.138592,1.597712,-6.300000,-41.230000,-4.900000,20.57
6101535,0.142496,-0.137128,1.581120,-5.740000,-51.380001,-6.020000,20.58
6101546,0.153720,-0.114680,1.566480,-7.140000,-58.660000,-6.580000,20.58
6101557,0.165920,-0.119560,1.575264,-9.940000,-67.620003,-6.860000,20.61
6101568,0.162504,-0.101016,1.592832,-12.110000,-78.260002,-7.000000,20.61
6101580,0.166408,-0.105408,1.586488,-15.330000,-89.320000,-8.260000,20.66
6101591,0.165920,-0.111752,1.515728,-16.379999,-98.349998,-9.800000,20.69
6101602,0.181536,-0.108336,1.429840,-16.940001,-108.430000,-11.270000,20.69
6101613,0.203984,-0.101016,1.381528,-17.430000,-116.620003,-11.970000,20.64
6101624,0.210816,-0.084424,1.305888,-15.330000,-123.970001,-13.510000,20.64
6101635,0.212768,-0.052704,1.232200,-13.790000,-129.710007,-14.910000,20.62
6101647,0.230336,-0.034648,1.127280,-9.870000,-134.610001,-16.030001,20.63
6101658,0.250832,0.002928,1.039928,-9.590000,-138.039993,-15.260000,20.63
6101669,0.275232,0.006344,0.932568,-6.090000,-139.580002,-14.980000,20.66
6101680,0.294752,0.064904,0.835944,-7.070000,-139.020004,-12.530000,20.66
6101691,0.314272,0.087840,0.764696,-10.920000,-138.250000,-9.170000,20.66
6101702,0.330376,0.110288,0.736392,-18.760000,-136.570007,-5.600000,20.66
6101713,0.327936,0.099552,0.682712,-23.799999,-135.449997,-4.480000,20.66
6101725,0.338672,0.141520,0.615856,-33.040001,-133.559998,0.140000,20.65
6101735,0.364536,0.110776,0.540216,-40.040001,-130.830002,1.190000,20.65
6101746,0.395768,0.051728,0.463600,-42.070000,-126.000000,2.380000,20.60
6101757,0.425048,-0.013176,0.377224,-40.180000,-118.650002,3.150000,20.60
6101768,0.457744,-0.074176,0.311344,-35.980000,-112.070000,3.220000,20.60
6101779,0.465552,-0.113704,0.256688,-25.410000,-103.180000,2.450000,20.64
6101790,0.482632,-0.133712,0.224968,-15.260000,-93.660004,2.590000,20.64
6101801,0.495320,-0.126392,0.186416,-4.480000,-85.120003,2.520000,20.62
6101812,0.503616,-0.110288,0.162016,2.870000,-74.550003,3.220000,20.61
6101823,0.523624,-0.107360,0.155672,7.560000,-63.630001,3.850000,20.61
6101834,0.530456,-0.098576,0.164456,10.010000,-52.709999,4.200000,20.66
6101845,0.528992,-0.091744,0.161040,10.570000,-44.380001,4.130000,20.66
6101856,0.532896,-0.095160,0.156160,10.990000,-34.790001,4.130000,20.64
6101867,0.545096,-0.107848,0.139568,12.390000,-24.430000,3.360000,20.64
6101878,0.560224,-0.120048,0.123464,12.670000,-15.890000,3.920000,20.65
6101889,0.588040,-0.130296,0.118584,12.320000,-3.920000,4.060000,20.64
6101900,0.593408,-0.145912,0.129320,12.180000,7.980000,3.710000,20.64
6101911,0.592920,-0.165432,0.162504,12.250000,16.520000,3.500000,20.68
6101922,0.583648,-0.187880,0.200568,15.680000,26.320000,1.890000,20.68
6101932,0.575352,-0.183976,0.244488,17.920000,33.669998,1.120000,20.64
6101943,0.587552,-0.189832,0.307928,19.950001,39.060001,-0.350000,20.67
6101954,0.588040,-0.184952,0.355752,22.400000,45.779999,-1.610000,20.67
6101965,0.587552,-0.167384,0.380152,23.870001,51.380001,-2.940000,20.65
6101976,0.581696,-0.138592,0.400648,24.080000,56.070000,-5.040000,20.65
6101987,0.571448,-0.120048,0.430904,21.490000,60.830002,-5.530000,20.63
6101998,0.568520,-0.110288,0.470432,19.110001,66.150002,-5.740000,20.63
6102009,0.562176,-0.103944,0.521672,17.850000,69.790001,-6.090000,20.62
6102020,0.557784,-0.095648,0.564128,15.330000,72.169998,-5.460000,20.62
6102031,0.476776,-0.121512,0.556320,17.990000,63.070000,-6.930000,20.62
6102042,0.599264,-0.080032,0.590480,15.260000,85.330002,-3.220000,20.64
6102053,0.534360,-0.066368,0.645624,17.290001,105.279999,-6.230000,20.64
6102064,0.450912,-0.085888,0.665144,17.990000,82.599998,-8.120000,20.64
6102075,0.536312,-0.058072,0.740296,9.800000,92.680000,-2.940000,20.62
6102086,0.458720,-0.072224,0.828624,11.760000,90.019997,-5.460000,20.62
6102097,0.443104,-0.071248,0.872056,14.630000,88.129997,-4.480000,20.64
6102108,0.444080,-0.080520,0.891576,19.530001,87.500000,-5.950000,20.64
6102119,0.441640,-0.059536,0.880352,24.430000,86.309998,-7.070000,20.63
6102130,0.443592,-0.029280,0.925736,18.900000,84.839996,-5.320000,20.66
6102141,0.418704,-0.044408,0.999912,17.080000,82.739998,-8.120000,20.66
6102152,0.393328,-0.031232,1.079456,12.600000,77.000000,-6.860000,20.61
6102163,0.377224,-0.023424,1.140944,10.990000,70.139999,-7.910000,20.61
6102174,0.369416,-0.032208,1.151680,10.640000,65.239998,-8.120000,20.65
6102185,0.368928,-0.043432,1.131184,12.950000,58.939999,-8.890000,20.61
6102196,0.379176,-0.055632,1.119472,18.270000,56.560001,-11.130000,20.61
6102207,0.367464,-0.015616,1.126792,19.950001,53.900002,-11.060000,20.61
6102218,0.372832,-0.000976,1.165344,17.780001,51.169998,-10.500000,20.61
6102229,0.354288,0.006344,1.172664,17.990000,48.930000,-11.760000,20.66
6102240,0.348432,0.015128,1.153632,16.520000,45.220001,-10.430000,20.66
6102251,0.347944,0.012200,1.096536,15.750000,43.470001,-9.940000,20.62
6102262,0.345504,0.017080,1.050176,16.170000,42.700001,-9.170000,20.60
6102273,0.351360,0.031720,1.039928,10.500000,42.770000,-5.950000,20.60
6102283,0.352336,-0.000976,1.054080,8.540000,44.520000,-5.740000,20.66
6102294,0.341112,-0.010736,1.070672,8.540000,44.939999,-4.760000,20.66
6102305,0.339160,-0.021472,1.072136,8.540000,46.200001,-4.550000,20.66
6102316,0.335256,-0.041968,1.057984,10.570000,46.549999,-4.830000,20.68
6102327,0.337208,-0.056120,1.032120,13.860000,48.860001,-4.550000,20.68
6102338,0.333792,-0.042944,0.984296,15.610000,52.150002,-4.340000,20.64
6102349,0.336720,-0.020008,0.998936,11.690000,55.160000,-1.750000,20.64
6102360,0.312320,0.001464,1.037488,8.120000,58.730000,-1.050000,20.63
6102371,0.274744,-0.011224,1.123864,4.900000,58.099998,1.400000,20.63
6102382,0.256200,0.000976,1.195600,3.290000,57.049999,3.290000,20.64
6102393,0.248392,0.018544,1.246840,-2.030000,54.250000,4.410000,20.70
6102404,0.246928,-0.005368,1.281488,-8.610000,52.290001,5.950000,20.70
6102415,0.229848,-0.048312,1.337120,-13.580000,51.029999,7.140000,20.67
6102426,0.210816,-0.068320,1.419104,-15.330000,46.410000,7.770000,20.67
6102437,0.186416,-0.093696,1.484984,-13.090000,39.410000,8.820000,20.67
6102447,0.167872,-0.109312,1.564040,-9.730000,31.709999,8.470000,20.66
6102458,0.179584,-0.120048,1.624552,-4.900000,21.209999,7.770000,20.66
6102469,0.189832,-0.100528,1.648952,-3.920000,11.130000,6.580000,20.63
6102480,0.204472,-0.101016,1.664568,-5.040000,3.290000,5.530000,20.63
6102491,0.199592,-0.086864,1.666032,-8.120000,-6.790000,4.060000,20.63
6102502,0.186416,-0.086864,1.674328,-12.740000,-18.200001,3.220000,20.63
6102513,0.177144,-0.075152,1.685552,-16.590000,-30.379999,3.080000,20.62
6102524,0.179096,-0.085400,1.690432,-20.860001,-39.970001,2.240000,20.63
6102535,0.180072,-0.085888,1.668472,-25.760000,-51.660000,1.400000,20.63
6102546,0.197152,-0.115656,1.618208,-26.530001,-61.040001,-0.910000,20.65
6102557,0.182024,-0.124928,1.545496,-24.080000,-70.559998,-3.640000,20.65
6102568,0.187880,-0.122000,1.488888,-21.420000,-76.650002,-5.530000,20.68
6102579,0.197640,-0.120048,1.433256,-15.610000,-82.949997,-6.230000,20.66
6102590,0.189832,-0.066368,1.390312,-13.860000,-90.440002,-5.950000,20.66
6102601,0.193248,-0.037088,1.353712,-11.830000,-94.849998,-6.370000,20.63
6102612,0.197152,0.000488,1.339560,-16.309999,-101.919998,-4.270000,20.63
6102623,0.195200,0.034648,1.307840,-19.600000,-110.180000,-4.060000,20.68
6102634,0.197152,0.064904,1.224392,-22.400000,-117.389999,-1.960000,20.64
6102645,0.227896,0.070272,1.113128,-25.830000,-120.959999,-0.560000,20.64
6102656,0.255224,0.048312,1.036024,-29.680000,-122.989998,1.050000,20.68
6102667,0.260592,0.027328,0.953064,-30.100000,-124.250000,1.680000,20.68
6102678,0.265960,0.041968,0.943304,-36.889999,-126.419998,5.530000,20.64
6102689,0.255224,0.055144,0.901336,-39.549999,-129.220001,4.900000,20.61
6102700,0.246928,0.040992,0.829112,-39.270000,-131.460007,5.600000,20.61
6102711,0.286456,0.010248,0.726632,-40.389999,-132.369995,6.720000,20.67
6102722,0.330376,-0.047336,0.630984,-39.689999,-129.710007,6.440000,20.67
6102733,0.358192,-0.100040,0.567056,-34.720001,-125.440002,5.740000,20.66
6102744,0.376736,-0.143472,0.506056,-28.000000,-120.400002,4.200000,20.66
6102755,0.387472,-0.152256,0.430904,-19.250000,-115.500000,2.730000,20.64
6102766,0.409920,-0.140544,0.365512,-10.080000,-109.550003,2.310000,20.57
6102777,0.427000,-0.103944,0.343064,-6.650000,-102.690002,3.080000,20.57
6102788,0.453840,-0.114192,0.336720,-5.950000,-94.779999,4.130000,20.65
6102799,0.445544,-0.101504,0.335256,-6.720000,-88.900002,4.830000,20.65
6102810,0.447008,-0.086864,0.322568,-9.660000,-82.389999,5.110000,20.62
6102821,0.456280,-0.096136,0.278648,-10.640000,-75.459999,3.920000,20.64
6102832,0.485560,-0.146888,0.206912,-7.490000,-69.160004,2.800000,20.64
6102843,0.522648,-0.161040,0.133712,-2.800000,-59.009998,2.030000,20.66
6102854,0.557296,-0.177144,0.094184,1.120000,-46.900002,1.050000,20.66
6102865,0.577792,-0.188856,0.089792,3.080000,-34.580002,0.560000,20.59
6102876,0.573400,-0.207888,0.120536,5.390000,-25.549999,-0.980000,20.63
6102887,0.567056,-0.232776,0.149328,12.740000,-15.120000,-3.500000,20.63
6102898,0.555832,-0.233264,0.169824,21.559999,-5.670000,-6.510000,20.68
6102909,0.569008,-0.207888,0.183976,27.370001,1.750000,-8.400000,20.68
6102920,0.604144,-0.184952,0.176168,31.780001,8.890000,-8.680000,20.65
6102931,0.627080,-0.186416,0.176656,34.790001,19.110001,-9.730000,20.65
6102942,0.637328,-0.160552,0.203496,34.790001,28.770000,-9.380000,20.61
6102953,0.635376,-0.135176,0.248880,32.130001,37.029999,-9.660000,20.68
6102964,0.616832,-0.090768,0.292800,28.000000,44.939999,-9.450000,20.68
6102975,0.607072,-0.066856,0.362096,22.750000,51.660000,-7.980000,20.65
6102986,0.594872,-0.073200,0.427000,16.799999,55.299999,-6.790000,20.65
6102997,0.598288,-0.079544,0.478240,11.690000,58.380001,-6.090000,20.63
6103008,0.612440,-0.082960,0.508008,8.820000,62.369999,-5.110000,20.63
6103019,0.608048,-0.079544,0.535824,7.070000,65.379997,-4.760000,20.63
6103030,0.603656,-0.080032,0.561200,5.110000,69.230003,-4.480000,20.64
6103041,0.625128,-0.086864,0.589992,5.740000,73.220001,3.850000,20.64
6103052,0.666120,-0.055632,0.660264,5.390000,82.389999,-1.400000,20.62
6103063,0.458720,-0.117608,0.697352,10.640000,75.389999,-7.910000,20.61
6103074,0.556320,-0.092720,0.724680,11.760000,76.089996,1.400000,20.61
6103085,0.594384,-0.053192,0.763720,12.880000,78.959999,-3.570000,20.65
6103095,0.518256,-0.074176,0.749568,13.160000,78.750000,-6.370000,20.65
6103106,0.513864,-0.056120,0.780800,9.450000,78.680000,-3.220000,20.61
6103117,0.487024,-0.065880,0.822280,9.590000,78.820000,-3.360000,20.61
6103128,0.467016,-0.050752,0.884256,9.170000,76.510002,-1.820000,20.63
6103139,0.455304,-0.062464,0.938912,8.680000,72.940002,-1.540000,20.65
6103150,0.447496,-0.084424,0.987712,13.510000,69.930000,-3.360000,20.65
6103161,0.436272,-0.070760,0.972584,18.760000,67.550003,-4.060000,20.64
6103172,0.429928,-0.078080,0.938424,24.080000,66.500000,-5.740000,20.64
6103183,0.426512,-0.027816,0.924272,21.350000,64.820000,-6.090000,20.62
6103194,0.430416,0.000976,0.968192,11.550000,64.330002,-2.870000,20.58
6103205,0.411872,0.003416,0.997472,6.020000,61.669998,-3.360000,20.58
6103216,0.393328,-0.007320,1.001864,1.750000,59.570000,-1.890000,20.68
6103226,0.380152,-0.023424,0.985760,1.610000,56.349998,-1.470000,20.68
6103237,0.383080,-0.030744,0.950624,2.730000,54.810001,-1.610000,20.65
6103248,0.414800,-0.044408,0.921344,3.360000,57.189999,-0.630000,20.65
6103259,0.405528,-0.030744,0.935496,0.630000,59.220001,0.910000,20.64
6103270,0.395280,-0.024400,0.992592,-1.120000,61.320000,1.820000,20.66
6103281,0.356728,-0.025376,1.025776,-1.540000,61.320000,2.030000,20.66
6103292,0.339648,-0.044408,1.036024,-2.730000,60.759998,2.520000,20.64
6103303,0.330864,-0.065880,1.022360,-2.660000,60.200001,3.290000,20.64
6103314,0.326960,-0.076616,1.014064,-3.150000,59.919998,3.640000,20.62
6103325,0.338184,-0.094672,1.019432,-2.520000,62.509998,3.710000,20.68
6103336,0.304512,-0.088328,1.047736,-2.870000,63.630001,4.130000,20.68
6103346,0.270352,-0.111752,1.084824,-1.890000,63.070000,4.410000,20.64
6103357,0.246928,-0.108824,1.138504,-0.490000,62.369999,4.620000,20.64
6103368,0.232776,-0.093208,1.189256,-1.820000,60.410000,5.180000,20.66
6103379,0.223992,-0.093696,1.214632,-5.110000,58.520000,6.580000,20.66
6103390,0.212768,-0.099064,1.241960,-9.100000,56.490002,7.420000,20.62
6103401,0.199104,-0.099552,1.306376,-15.680000,54.880001,8.540000,20.67
6103412,0.178608,-0.134688,1.393240,-20.160000,50.959999,8.960000,20.67
6103423,0.161040,-0.179584,1.450824,-22.260000,44.799999,8.960000,20.64
6103434,0.153720,-0.227408,1.492304,-19.879999,38.779999,7.630000,20.64
6103445,0.141520,-0.238632,1.504016,-14.770000,31.080000,5.810000,20.66
6103456,0.156160,-0.255224,1.511824,-10.430000,25.410000,3.850000,20.62
6103467,0.144936,-0.275232,1.527928,-5.110000,19.040001,1.260000,20.62
6103478,0.128832,-0.238632,1.550864,-1.120000,12.880000,-0.210000,20.65
6103489,0.124928,-0.228384,1.571360,1.120000,4.480000,-1.610000,20.65
6103500,0.112728,-0.192272,1.571848,2.450000,-4.690000,-2.660000,20.64
6103511,0.116632,-0.153720,1.561600,0.140000,-12.040000,-2.450000,20.60
6103522,0.139080,-0.143960,1.560136,-3.850000,-19.459999,-2.310000,20.60
6103533,0.145424,-0.131760,1.568432,-9.660000,-26.600000,-2.100000,20.61
6103544,0.142984,-0.171776,1.603568,-13.300000,-35.279999,-2.380000,20.61
6103555,0.131272,-0.219112,1.629920,-12.670000,-44.590000,-3.500000,20.66
6103566,0.137616,-0.243512,1.603080,-5.810000,-54.740002,-4.550000,20.62
6103577,0.144936,-0.231312,1.565504,-2.310000,-65.660004,-6.160000,20.62
6103588,0.166408,-0.233752,1.534272,0.070000,-73.290001,-8.120000,20.62
6103599,0.186904,-0.191296,1.538664,-2.940000,-80.290001,-6.510000,20.62
6103610,0.194712,-0.142496,1.554280,-8.890000,-90.930000,-7.350000,20.68
6103621,0.196176,-0.122488,1.553792,-17.080000,-102.480003,-7.840000,20.68
6103632,0.191296,-0.122488,1.476688,-21.280001,-110.459999,-11.410000,20.65
6103643,0.185440,-0.117608,1.368840,-25.340000,-120.470001,-13.510000,20.59
6103654,0.208376,-0.115168,1.312720,-32.689999,-129.360001,-13.230000,20.59
6103665,0.222040,-0.131272,1.240008,-35.000000,-135.449997,-15.540000,20.63
6103676,0.226920,-0.119072,1.153144,-35.419998,-140.490005,-17.080000,20.63
6103687,0.244000,-0.122488,1.073112,-31.920000,-144.970001,-19.530001,20.67
6103698,0.265960,-0.101992,0.987224,-28.139999,-148.470001,-20.230000,20.63
6103709,0.287920,-0.074176,0.883280,-23.940001,-148.889999,-21.070000,20.63
6103720,0.284504,-0.052216,0.774456,-18.059999,-148.679993,-21.840000,20.62
6103731,0.316712,-0.020496,0.702720,-14.980000,-146.929993,-19.950001,20.62
6103742,0.345016,0.018544,0.693448,-21.000000,-146.229996,-15.260000,20.62
6103753,0.354288,0.040992,0.632448,-21.910000,-142.729996,-15.470000,20.64
6103764,0.358680,0.047824,0.556320,-23.100000,-139.229996,-13.440000,20.64
6103776,0.373320,0.040504,0.430904,-22.120001,-133.910004,-12.810000,20.62
6103787,0.403576,0.028304,0.315248,-19.250000,-126.489998,-11.340000,20.62
6103798,0.440176,0.005368,0.251320,-18.969999,-119.000000,-8.050000,20.61
6103809,0.481656,0.004392,0.243024,-28.629999,-109.620003,-3.640000,20.60
6103820,0.504104,-0.088816,0.228872,-21.070000,-98.070000,-4.060000,20.60
6103831,0.510936,-0.075152,0.189344,-13.580000,-88.480003,-2.870000,20.66
6103842,0.524112,-0.089792,0.133712,-3.710000,-79.660004,-2.380000,20.66
6103853,0.551440,-0.086864,0.096136,3.710000,-68.110001,-0.420000,20.64
6103864,0.586088,-0.063928,0.100528,3.920000,-55.720001,3.500000,20.64
6103876,0.602192,-0.088328,0.123464,5.180000,-42.419998,6.370000,20.61
6103888,0.596336,-0.066856,0.173728,5.600000,-31.780001,8.330000,20.62
6103900,0.589504,-0.057096,0.205936,4.830000,-22.820000,8.540000,20.62
6103912,0.596824,-0.064904,0.210328,3.640000,-15.400000,10.010000,20.67
6103923,0.628544,-0.096136,0.198128,3.850000,-6.860000,10.430000,20.62
6103934,0.660264,-0.119560,0.193248,0.350000,2.310000,12.180000,20.62
6103945,0.659288,-0.184952,0.213744,-0.560000,11.760000,11.130000,20.64
6103956,0.639768,-0.221552,0.252296,2.940000,17.219999,10.430000,20.64
6103967,0.637816,-0.242536,0.271816,8.330000,23.379999,9.310000,20.64
6103978,0.650016,-0.247416,0.289872,14.000000,28.770000,7.210000,20.61
6103990,0.662216,-0.241560,0.307928,22.190001,34.650002,5.880000,20.61
6104001,0.661728,-0.208864,0.348920,23.240000,38.709999,4.690000,20.63
6104012,0.665632,-0.209840,0.394304,24.219999,43.680000,3.570000,20.63
6104023,0.657336,-0.200080,0.444080,24.150000,47.529999,2.870000,20.62
6104034,0.627080,-0.200080,0.505568,42.770000,47.110001,2.940000,20.62
6104045,0.634888,-0.187392,0.546560,21.209999,52.709999,2.590000,20.62
6104056,0.617320,-0.172752,0.574864,21.070000,52.570000,1.680000,20.66
6104066,0.613416,-0.149328,0.576328,21.420000,53.619999,0.630000,20.66
6104078,0.602680,-0.154208,0.579744,27.090000,57.959999,6.020000,20.62
6104088,0.695400,-0.106384,0.563640,29.750000,66.080002,1.120000,20.62
6104099,0.554856,-0.118096,0.557296,30.240000,63.630001,-2.030000,20.62
6104111,0.630496,-0.108336,0.610976,27.580000,70.839996,4.690000,20.62
6104121,0.606584,-0.060024,0.689544,26.389999,70.769997,3.850000,20.62
6104132,0.527040,-0.095160,0.720776,28.700001,69.300003,0.910000,20.65
6104143,0.523136,-0.070272,0.729072,30.590000,70.209999,2.520000,20.65
6104154,0.527528,-0.058072,0.710528,28.490000,71.190002,3.710000,20.64
6104165,0.538264,-0.068808,0.683688,27.580000,74.970001,5.250000,20.60
6104176,0.543632,-0.051728,0.689056,24.219999,78.190002,7.350000,20.60
6104187,0.538752,-0.065880,0.753472,18.410000,80.709999,8.610000,20.64
6104198,0.503616,-0.064416,0.798368,14.980000,81.410004,8.890000,20.64
6104209,0.475312,-0.097112,0.879376,13.020000,80.290001,10.290000,20.66
6104220,0.458232,-0.101992,0.939400,12.180000,78.400002,9.100000,20.65
6104231,0.457744,-0.117120,0.955016,9.380000,75.949997,8.820000,20.65
6104242,0.446520,-0.141520,0.946232,8.400000,75.180000,6.720000,20.62
6104253,0.436272,-0.155672,0.898896,8.540000,75.669998,4.900000,20.62
6104264,0.399184,-0.141520,0.864736,8.400000,74.970001,3.290000,20.64
6104275,0.390888,-0.145424,0.856928,9.520000,74.830002,2.030000,20.64
6104285,0.386008,-0.127856,0.867176,11.620000,74.900002,1.540000,20.61
6104296,0.377224,-0.113704,0.897432,12.250000,75.320000,1.610000,20.62
6104307,0.373320,-0.108336,0.907680,13.440000,75.949997,2.240000,20.62
6104318,0.369416,-0.088816,0.912560,15.050000,77.699997,1.820000,20.67
6104329,0.353800,-0.083936,0.907192,17.500000,80.989998,1.470000,20.67
6104340,0.326960,-0.076128,0.931104,16.240000,82.739998,2.730000,20.67
6104350,0.301096,-0.109312,0.983320,17.639999,82.459999,2.310000,20.66
6104361,0.269864,-0.100528,1.046760,17.010000,81.550003,3.220000,20.66
6104372,0.235704,-0.082960,1.087264,16.309999,77.000000,1.890000,20.64
6104383,0.239608,-0.063440,1.099952,12.110000,75.250000,3.010000,20.64
6104394,0.248880,-0.075640,1.102392,7.000000,73.849998,2.310000,20.64
6104405,0.243512,-0.093696,1.113128,5.250000,73.360001,2.170000,20.64
6104416,0.243024,-0.110288,1.163392,2.450000,71.750000,3.640000,20.62
6104427,0.222528,-0.134688,1.358592,1.400000,68.180000,3.220000,20.64
6104438,0.187880,-0.120536,1.318576,2.800000,63.490002,2.800000,20.64
6104448,0.176168,-0.077592,1.382992,1.120000,58.310001,5.110000,20.70
6104459,0.195688,-0.090768,1.399096,-0.840000,54.389999,4.620000,20.70
6104470,0.182024,-0.116632,1.393240,-3.150000,52.009998,4.620000,20.59
6104481,0.154208,-0.139080,1.411296,-4.130000,49.000000,4.480000,20.59
6104492,0.131760,-0.133712,1.458144,-8.470000,42.139999,6.230000,20.59
6104503,0.114680,-0.145912,1.503040,-13.580000,33.669998,5.810000,20.66
6104514,0.108336,-0.179584,1.539152,-16.940001,26.879999,6.300000,20.66
6104525,0.127856,-0.226432,1.543056,-18.059999,19.110001,5.110000,20.62
6104536,0.124928,-0.259128,1.546472,-14.280000,12.320000,2.380000,20.62
6104547,0.135176,-0.273280,1.551352,-10.430000,6.440000,-0.420000,20.62
6104558,0.130296,-0.257664,1.560136,-5.810000,-1.050000,-1.680000,20.62
6104569,0.126880,-0.238144,1.561112,-2.380000,-9.730000,-3.290000,20.62
6104580,0.125904,-0.232288,1.571360,0.840000,-16.799999,-6.720000,20.68
6104592,0.101016,-0.214232,1.581120,3.430000,-27.650000,-6.720000,20.68
6104603,0.114192,-0.182512,1.569896,4.550000,-36.400002,-8.400000,20.64
6104615,0.120048,-0.158600,1.535248,5.600000,-44.520000,-9.940000,20.62
6104627,0.133712,-0.139080,1.506456,4.270000,-52.709999,-9.800000,20.62
6104638,0.151280,-0.105408,1.493768,0.420000,-58.799999,-9.240000,20.66
6104649,0.150792,-0.102480,1.508408,-4.970000,-68.459999,-9.100000,20.62
6104661,0.150792,-0.100528,1.545496,-11.970000,-78.750000,-8.190000,20.62
6104672,0.130784,-0.113216,1.540616,-13.230000,-90.160004,-10.430000,20.65
6104683,0.142496,-0.110776,1.470832,-15.540000,-101.010002,-11.130000,20.65
6104694,0.173240,-0.155672,1.368840,-19.040001,-109.269997,-12.530000,20.65
6104705,0.203984,-0.202520,1.300032,-16.940001,-113.680000,-15.120000,20.61
6104716,0.217160,-0.205448,1.269288,-10.780000,-119.910004,-17.080000,20.61
6104727,0.233264,-0.182024,1.253184,-4.900000,-127.820000,-17.360001,20.61
6104738,0.242536,-0.110288,1.213168,-1.750000,-135.169998,-18.059999,20.61
6104749,0.254248,-0.076616,1.139968,2.240000,-139.649994,-18.480000,20.64
6104760,0.266448,-0.041968,1.113128,-1.540000,-145.039993,-16.520000,20.62
6104771,0.292800,-0.022936,1.045296,-1.190000,-147.559998,-16.030001,20.62
6104782,0.295240,0.033672,0.943304,-3.290000,-148.889999,-15.400000,20.64
6104794,0.308904,0.052704,0.805688,-9.240000,-150.360001,-13.650000,20.64
6104805,0.340136,0.058560,0.695888,-17.850000,-149.029999,-11.270000,20.62
6104816,0.352824,0.041968,0.610976,-19.459999,-145.250000,-10.570000,20.62
6104827,0.379176,0.035136,0.509960,-22.610001,-140.559998,-7.770000,20.63
6104838,0.419680,0.030256,0.400648,-26.320000,-134.470001,-5.530000,20.60
6104849,0.448472,0.015128,0.325496,-25.969999,-124.529999,-4.130000,20.60
6104860,0.463112,-0.030256,0.262544,-25.340000,-113.470001,-2.310000,20.63
6104871,0.473848,-0.060024,0.221552,-20.930000,-104.370003,-0.770000,20.63
6104882,0.494832,-0.034648,0.196176,-20.020000,-93.449997,2.030000,20.63
6104894,0.515328,-0.020984,0.172264,-16.799999,-81.690002,3.010000,20.68
6104905,0.531432,-0.002928,0.167872,-17.780001,-69.790001,5.810000,20.68
6104916,0.538752,-0.040016,0.161528,-17.709999,-57.049999,7.280000,20.61
6104927,0.532408,-0.061976,0.144448,-15.540000,-47.599998,8.470000,20.61
6104938,0.543632,-0.093208,0.130296,-12.810000,-36.049999,9.100000,20.65
6104949,0.564616,-0.121024,0.136640,-9.240000,-24.430000,10.850000,20.66
6104960,0.564616,-0.129320,0.155184,-5.250000,-13.370000,10.920000,20.66
6104971,0.559248,-0.129808,0.182024,-2.660000,-6.090000,11.130000,20.65
6104982,0.562176,-0.162992,0.208864,2.730000,3.150000,9.730000,20.65
6104993,0.556808,-0.165432,0.226920,6.580000,11.130000,9.030000,20.68
6105004,0.576816,-0.178608,0.256688,9.800000,35.700001,8.890000,20.59
6105015,0.579744,-0.174216,0.279624,14.140000,26.459999,7.910000,20.59
6105026,0.566568,-0.164944,0.301584,14.350000,32.830002,8.260000,20.68
6105037,0.557296,-0.192272,0.347456,15.610000,39.060001,6.510000,20.68
6105048,0.538752,-0.181048,0.388936,16.940001,42.070000,5.810000,20.60
6105058,0.545096,-0.180072,0.431880,15.960000,44.169998,4.830000,20.60
6105069,0.565592,-0.182512,0.483120,16.870001,46.619999,3.570000,20.66
6105080,0.570472,-0.166896,0.514840,18.059999,48.860001,2.800000,20.60
6105091,0.589016,-0.162504,0.530944,17.570000,51.169998,2.800000,20.60
6105102,0.593896,-0.149816,0.550952,16.030001,54.110001,2.240000,20.65
6105113,0.586088,-0.139568,0.587064,13.580000,56.700001,2.450000,20.65
6105124,0.568032,-0.117608,0.635864,8.330000,58.169998,3.290000,20.62
6105134,0.547536,-0.129320,0.697840,6.370000,58.450001,2.800000,20.64
6105145,0.529968,-0.154696,0.732976,6.790000,56.349998,1.330000,20.64
6105156,0.578280,-0.142496,0.733952,10.920000,61.880001,-1.190000,20.62
6105167,0.507032,-0.192272,0.653920,16.730000,57.330002,-2.310000,20.62
6105178,0.603656,-0.145912,0.634400,21.350000,68.669998,1.680000,20.65
6105189,0.563640,-0.124928,0.686128,22.469999,68.669998,0.070000,20.65
6105200,0.553880,-0.081984,0.716384,20.650000,71.959999,0.700000,20.61
6105211,0.515816,-0.049776,0.790560,16.240000,72.800003,3.780000,20.63
6105222,0.480680,-0.074176,0.823744,16.240000,73.639999,3.500000,20.63
6105233,0.451888,-0.075640,0.825208,16.730000,72.239998,2.730000,20.63
6105244,0.458720,-0.118096,0.777872,19.180000,72.940002,2.030000,20.63
6105255,0.476776,-0.112728,0.739320,20.090000,76.510002,3.220000,20.62
6105266,0.475800,-0.102480,0.787632,16.030001,81.339996,5.880000,20.63
6105277,0.434320,-0.096624,0.866200,15.890000,81.760002,5.810000,20.63
6105288,0.401624,-0.096624,0.913048,16.590000,80.150002,4.690000,20.64
6105299,0.390400,-0.116144,0.928664,16.730000,79.870003,3.290000,20.64
6105309,0.393816,-0.143472,0.914024,20.580000,79.379997,2.380000,20.68
6105320,0.390400,-0.127368,0.933056,20.370001,78.680000,3.360000,20.64
6105331,0.368440,-0.149328,0.958432,22.190001,80.570000,1.610000,20.64
6105342,0.335744,-0.109312,0.988200,22.680000,78.750000,2.940000,20.61
6105353,0.328912,-0.077104,1.023336,18.340000,78.610001,2.590000,20.61
6105364,0.289872,-0.076616,1.035048,15.960000,76.370003,1.540000,20.65
6105374,0.283528,-0.074176,1.039440,12.670000,74.199997,2.870000,20.65
6105385,0.300120,-0.085400,1.044320,10.850000,74.339996,2.310000,20.66
6105396,0.294752,-0.076616,1.080920,7.980000,72.660004,3.430000,20.64
6105407,0.274256,-0.077592,1.156560,1.820000,70.839996,3.570000,20.64
6105418,0.249368,-0.084424,1.208288,-1.540000,67.129997,3.780000,20.66
6105429,0.232288,-0.075152,1.225368,-4.900000,63.000000,4.340000,20.66
6105440,0.225456,-0.111752,1.198528,-6.720000,60.270000,4.550000,20.64
6105451,0.225456,-0.122976,1.166320,-7.000000,59.570000,4.340000,20.61
6105462,0.213744,-0.141520,1.177056,-7.000000,57.470001,5.460000,20.61
6105473,0.210816,-0.128832,1.223904,-6.020000,54.529999,5.880000,20.66
6105484,0.200080,-0.118096,1.298568,-10.010000,51.310001,6.930000,20.66
6105495,0.183488,-0.177144,1.342976,-7.910000,48.160000,4.830000,20.64
6105506,0.159088,-0.188368,1.387384,-4.620000,42.770000,4.480000,20.64
6105517,0.155184,-0.182024,1.431792,-1.470000,37.590000,3.430000,20.63
6105528,0.147376,-0.185928,1.462048,0.980000,33.529999,2.590000,20.63
6105539,0.136640,-0.196176,1.476200,1.890000,26.670000,2.030000,20.63
6105550,0.112728,-0.207400,1.512312,2.170000,19.600000,0.420000,20.66
6105561,0.088328,-0.202032,1.539640,1.890000,12.460000,-0.630000,20.66
6105572,0.084424,-0.174216,1.571848,-2.520000,3.500000,0.140000,20.64
6105583,0.112240,-0.170312,1.600640,-6.930000,-5.740000,0.000000,20.61
6105594,0.118584,-0.180560,1.620648,-13.930000,-14.000000,-1.120000,20.61
6105605,0.116144,-0.238144,1.619672,-15.470000,-23.170000,-3.150000,20.66
6105616,0.115168,-0.265472,1.611864,-12.460000,-32.340000,-5.250000,20.66
6105627,0.117608,-0.294752,1.586488,-6.860000,-40.880001,-8.540000,20.62
6105638,0.105896,-0.280600,1.555256,2.590000,-48.790001,-11.550000,20.67
6105649,0.113704,-0.252784,1.522072,10.850000,-58.169998,-14.490000,20.67
6105660,0.133712,-0.177144,1.506944,10.920000,-66.919998,-15.260000,20.64
6105671,0.125416,-0.115168,1.479128,9.660000,-76.930000,-15.680000,20.64
6105682,0.127368,-0.051240,1.508408,-1.400000,-86.309998,-12.250000,20.65
6105693,0.151280,-0.025864,1.511336,-11.270000,-95.900002,-13.370000,20.66
6105704,0.157624,-0.028304,1.462048,-18.270000,-106.540001,-12.460000,20.66
6105716,0.193736,-0.060024,1.391776,-27.440001,-113.400002,-12.460000,20.57
6105727,0.207400,-0.087840,1.342488,-32.410000,-121.309998,-11.970000,20.57
6105738,0.206424,-0.116144,1.387384,-36.959999,-130.410004,-11.830000,20.63
6105749,0.182024,-0.126880,1.371768,-30.799999,-141.399994,-14.490000,20.63
6105760,0.216184,-0.122976,1.265872,-26.740000,-150.639999,-15.400000,20.66
6105772,0.245464,-0.138592,1.111176,-18.270000,-154.210007,-18.480000,20.62
6105783,0.266448,-0.150304,0.953064,-7.910000,-155.889999,-20.719999,20.62
6105794,0.289872,-0.110288,0.895480,-7.560000,-157.639999,-18.830000,20.67
6105805,0.304512,-0.116144,0.851072,1.470000,-156.169998,-20.580000,20.67
6105816,0.311344,0.007808,0.833992,-5.390000,-159.389999,-12.320000,20.62
6105827,0.329888,0.063440,0.773480,-10.430000,-159.529999,-13.090000,20.58
6105838,0.316224,0.111264,0.675392,-16.870001,-157.639999,-10.430000,20.58
6105849,0.347944,0.093696,0.537776,-21.490000,-154.559998,-9.100000,20.63
6105860,0.371856,0.060512,0.388448,-23.590000,-149.169998,-7.070000,20.63
6105871,0.428952,0.032208,0.282064,-25.200001,-140.630005,-2.730000,20.69
6105882,0.497272,0.019520,0.192272,-30.870001,-128.520004,0.700000,20.62
6105893,0.540704,-0.040016,0.149816,-29.120001,-114.309998,2.240000,20.62
6105904,0.543144,-0.044896,0.105408,-24.500000,-103.180000,4.690000,20.63
6105915,0.562176,-0.080520,0.103456,-20.020000,-89.879997,5.460000,20.63
6105927,0.568520,-0.116632,0.084912,-11.480000,-76.370003,5.600000,20.65
6105938,0.585112,-0.125416,0.050264,-4.620000,-62.650002,5.950000,20.63
6105949,0.596336,-0.134200,0.041968,0.910000,-51.730000,6.510000,20.63
6105960,0.614880,-0.125904,0.030256,2.800000,-37.169998,7.490000,20.63
6105971,0.611952,-0.108824,0.022448,2.030000,-24.150000,8.890000,20.63
6105982,0.615856,-0.108336,0.040992,-0.980000,-12.320000,10.010000,20.64
6105993,0.616832,-0.129808,0.096624,-3.360000,-3.290000,9.660000,20.62
6106004,0.625128,-0.166896,0.168848,-5.460000,5.320000,9.940000,20.62
6106015,0.633912,-0.202032,0.213256,-5.110000,13.160000,7.980000,20.68
6106026,0.629520,-0.238144,0.242536,-1.820000,18.760000,6.230000,20.68
6106037,0.635376,-0.248880,0.242536,4.760000,25.340000,5.110000,20.67
6106048,0.633424,-0.224968,0.257176,7.980000,31.990000,4.410000,20.67
6106058,0.638304,-0.222528,0.302072,9.800000,37.730000,3.500000,20.62
6106069,0.614880,-0.201544,0.352336,10.290000,42.980000,3.150000,20.61
6106080,0.595848,-0.189832,0.411384,6.720000,45.500000,2.800000,20.61
6106091,0.590480,-0.203984,0.472872,7.350000,46.689999,1.610000,20.64
6106102,0.588040,-0.194712,0.511912,8.960000,46.410000,0.280000,20.64
6106113,0.609024,-0.209840,0.531432,10.360000,46.900002,-0.700000,20.64
6106124,0.615856,-0.195688,0.528504,13.930000,48.230000,-3.080000,20.60
6106135,0.616344,-0.187392,0.535336,14.910000,49.209999,-3.150000,20.60
6106146,0.633912,-0.186416,0.558760,15.050000,51.590000,-3.430000,20.64
6106157,0.619272,-0.181048,0.573888,18.200001,54.599998,-4.480000,20.64
6106168,0.610000,-0.163968,0.583160,21.490000,55.860001,-4.550000,20.64
6106179,0.568520,-0.181536,0.556320,26.600000,50.189999,-4.060000,20.58
6106190,0.631960,-0.123952,0.594384,24.850000,65.589996,-2.170000,20.58
6106201,0.613904,-0.103456,0.629520,28.770000,67.339996,-3.360000,20.67
6106212,0.536800,-0.093208,0.595848,30.379999,62.930000,-8.610000,20.67
6106223,0.578280,-0.073688,0.624640,24.780001,71.050003,-3.360000,20.63
6106235,0.540216,-0.087352,0.638304,26.459999,73.080002,-2.310000,20.59
6106246,0.531920,-0.067344,0.625616,27.650000,77.839996,-2.310000,20.59
6106257,0.509472,-0.068808,0.656360,24.920000,80.500000,-0.140000,20.65
6106268,0.490440,-0.069784,0.706136,23.730000,82.250000,0.490000,20.65
6106279,0.463600,-0.065880,0.735416,21.910000,82.459999,2.170000,20.63
6106290,0.450424,-0.054168,0.798368,22.889999,82.879997,1.960000,20.63
6106301,0.440176,-0.037576,0.799344,21.629999,83.720001,1.820000,20.67
6106312,0.430416,-0.051240,0.787144,21.559999,84.279999,2.380000,20.59
6106322,0.430416,-0.045872,0.818376,18.270000,86.379997,3.360000,20.59
6106333,0.403576,-0.037088,0.891576,12.390000,85.120003,5.250000,20.65
6106344,0.386496,-0.061976,0.933056,9.030000,83.720001,4.550000,20.65
6106355,0.249856,-0.071736,0.953552,8.470000,83.089996,4.620000,20.66
6106366,0.357216,-0.065880,0.912560,7.980000,80.989998,4.620000,20.62
6106377,0.369416,-0.064416,0.875472,6.720000,82.250000,4.550000,20.62
6106387,0.367952,-0.062464,0.945744,-2.170000,82.879997,9.380000,20.62
6106398,0.333792,-0.080032,1.070672,-7.700000,80.779999,8.960000,20.62
6106409,0.319640,-0.130296,1.152656,-8.540000,75.879997,8.890000,20.61
6106420,0.307440,-0.156160,1.215608,-4.970000,69.440002,7.140000,20.61
6106432,0.305976,-0.191296,1.202920,0.490000,63.630001,4.900000,20.64
6106443,0.324520,-0.201544,1.169248,6.160000,62.720001,4.340000,20.62
6106453,0.314760,-0.199104,1.146800,12.460000,63.139999,2.870000,20.62
6106464,0.303536,-0.171288,1.187304,12.670000,62.439999,4.060000,20.63
6106475,0.267912,-0.171288,1.266360,14.280000,58.520000,2.590000,20.63
6106486,0.259128,-0.168360,1.317112,17.150000,53.619999,1.540000,20.62
6106497,0.253272,-0.142008,1.351760,17.219999,47.250000,0.840000,20.62
6106508,0.263032,-0.142008,1.348344,16.100000,43.540001,0.210000,20.62
6106519,0.265960,-0.132248,1.321992,13.930000,40.950001,0.770000,20.61
6106530,0.267424,-0.120536,1.332240,10.010000,41.090000,1.820000,20.61
6106541,0.243024,-0.130296,1.364936,7.840000,39.689999,1.680000,20.62
6106551,0.208376,-0.128344,1.394704,5.530000,36.049999,3.220000,20.62
6106562,0.185440,-0.132736,1.424472,5.320000,31.080000,3.780000,20.59
6106573,0.183976,-0.129320,1.426912,3.360000,23.940001,4.620000,20.62
6106584,0.206912,-0.137616,1.436184,-1.120000,17.990000,5.600000,20.62
6106595,0.218624,-0.159576,1.477664,-3.430000,14.910000,4.830000,20.66
6106606,0.207888,-0.163480,1.509872,-5.390000,10.430000,5.810000,20.66
6106617,0.211792,-0.164456,1.545008,-8.470000,5.250000,5.180000,20.64
6106628,0.191784,-0.199104,1.582584,-7.700000,-1.540000,3.500000,20.61
6106639,0.178120,-0.220088,1.602592,-2.870000,-9.240000,2.800000,20.61
6106650,0.192272,-0.184952,1.606984,-1.050000,-18.480000,2.520000,20.62
6106661,0.204472,-0.175680,1.577704,-1.680000,-26.809999,0.560000,20.62
6106672,0.196664,-0.194224,1.556720,-1.610000,-33.110001,-1.540000,20.59
6106683,0.211792,-0.178120,1.539152,-1.120000,-41.650002,-1.540000,20.65
6106694,0.227896,-0.154208,1.530856,-0.980000,-48.509998,-2.870000,20.65
6106705,0.221064,-0.123464,1.562576,-3.500000,-59.360001,-1.120000,20.62
6106716,0.228872,-0.096624,1.583560,-7.700000,-67.059998,-1.750000,20.62
6106727,0.201056,-0.096136,1.570872,-13.090000,-78.400002,-3.570000,20.68
6106738,0.204960,-0.094184,1.531832,-17.219999,-89.529999,-4.760000,20.59
6106750,0.205936,-0.110288,1.476200,-18.340000,-99.050003,-6.300000,20.59
6106760,0.207400,-0.084912,1.433744,-23.309999,-108.430000,-5.390000,20.67
6106772,0.214232,-0.097112,1.367376,-24.570000,-117.809998,-9.030000,20.67
6106783,0.207400,-0.101016,1.324920,-25.410000,-126.980003,-9.800000,20.66
6106794,0.217648,-0.107360,1.283440,-26.110001,-137.759995,-10.080000,20.66
6106805,0.250832,-0.118096,1.224392,-22.889999,-144.690002,-11.480000,20.64
6106816,0.271816,-0.083936,1.180472,-25.410000,-150.500000,-9.030000,20.64
6106827,0.288896,-0.114680,1.092144,-22.610001,-154.630005,-12.880000,20.64
6106839,0.299144,-0.093696,1.019920,-23.030001,-157.710007,-11.480000,20.64
6106850,0.296216,-0.063928,0.885720,-22.400000,-160.089996,-12.600000,20.64
6106861,0.293776,0.007320,0.735416,-25.480000,-162.119995,-11.060000,20.65
6106872,0.345016,0.022448,0.639280,-33.599998,-160.369995,-9.240000,20.59
6106883,0.368440,0.021960,0.541680,-37.380001,-155.750000,-7.980000,20.59
6106894,0.387960,0.008784,0.431392,-39.270000,-149.520004,-6.930000,20.66
6106905,0.412360,-0.046848,0.320616,-35.209999,-142.240005,-7.700000,20.66
6106916,0.442616,-0.052216,0.233752,-33.950001,-131.809998,-5.950000,20.64
6106927,0.471896,-0.062464,0.165920,-31.219999,-120.820000,-5.110000,20.63
6106938,0.509472,-0.107360,0.102480,-26.879999,-108.430000,-3.920000,20.63
6106950,0.532896,-0.146400,0.080032,-20.860001,-94.290001,-3.850000,20.63
6106961,0.537288,-0.163480,0.055632,-12.250000,-82.949997,-4.200000,20.63
6106972,0.537776,-0.168848,0.040992,-6.930000,-68.739998,-4.200000,20.64
6106983,0.547536,-0.153232,0.012200,-1.680000,-55.509998,-4.620000,20.64
6106994,0.555832,-0.107848,-0.019520,-0.490000,-42.490002,-3.430000,20.64
6107006,0.570960,-0.103456,-0.023424,-2.940000,-28.420000,-2.520000,20.65
6107016,0.577792,-0.102968,-0.007808,-4.970000,-17.920000,-1.610000,20.65
6107028,0.568520,-0.129320,0.005856,-4.830000,-5.110000,-1.330000,20.63
6107039,0.564128,-0.156160,0.017080,-1.260000,6.370000,-1.190000,20.60
6107050,0.574376,-0.144936,0.049776,2.240000,14.560000,-0.420000,20.60
6107061,0.586576,-0.131760,0.085888,4.830000,24.570000,0.560000,20.66
6107072,0.603656,-0.130784,0.122488,6.160000,33.320000,1.960000,20.66
6107082,0.612928,-0.149816,0.174216,7.350000,40.669998,2.170000,20.62
6107093,0.599264,-0.159088,0.224480,10.150000,48.650002,1.820000,20.61
6107104,0.576816,-0.164944,0.261568,12.390000,54.529999,1.120000,20.61
6107115,0.562664,-0.173728,0.310856,16.379999,58.240002,0.070000,20.62
6107126,0.576816,-0.166408,0.343552,19.459999,61.810001,-0.140000,20.62
6107137,0.593408,-0.164944,0.400160,19.950001,65.029999,-0.210000,20.65
6107148,0.596336,-0.153232,0.435784,22.049999,67.199997,-1.050000,20.65
6107158,0.596824,-0.147864,0.456768,23.730000,69.650002,-2.030000,20.62
6107169,0.593896,-0.142984,0.468480,24.080000,72.800003,-2.240000,20.64
6107180,0.586576,-0.145424,0.488976,24.780001,74.760002,-2.730000,20.64
6107191,0.577792,-0.156160,0.540704,24.430000,77.279999,-2.170000,20.65
6107202,0.566080,-0.138104,0.566080,27.020000,80.220001,-2.730000,20.65
6107213,0.442128,-0.091256,0.566568,30.309999,74.410004,-6.930000,20.63
6107224,0.603168,-0.087840,0.561688,27.020000,91.279999,-16.590000,20.57
6107235,0.578280,-0.047336,0.579256,29.610001,95.269997,-0.490000,20.57
6107246,0.424560,-0.051240,0.582184,24.850000,87.150002,-1.820000,20.65
6107257,0.552416,-0.061000,0.695888,16.309999,97.510002,1.540000,20.65
6107268,0.478240,-0.053192,0.790560,15.610000,95.550003,2.030000,20.66
6107279,0.474336,-0.049776,0.845216,10.780000,95.199997,4.970000,20.66
6107290,0.455792,-0.097112,0.871080,13.720000,95.620003,3.640000,20.64
6107301,0.452376,-0.101504,0.998936,18.340000,94.570000,4.130000,20.61
6107311,0.442616,-0.060024,0.907680,17.290001,93.239998,6.230000,20.61
6107322,0.432368,-0.059536,0.926224,16.940001,93.379997,5.320000,20.65
6107333,0.409432,-0.068320,0.976000,11.200000,91.489998,8.330000,20.65
6107344,0.389424,-0.089792,1.004304,10.360000,89.529999,7.560000,20.67
6107355,0.364048,-0.113704,1.017968,11.270000,88.269997,7.910000,20.59
6107365,0.355264,-0.109800,1.033096,13.300000,86.940002,9.030000,20.59
6107376,0.355752,-0.111752,1.030656,17.500000,86.169998,7.910000,20.64
6107387,0.331352,-0.096624,1.059448,18.340000,83.930000,9.450000,20.64
6107398,0.320616,-0.100040,1.101904,19.459999,81.620003,8.820000,20.62
6107409,0.303536,-0.081496,1.143872,21.980000,79.449997,7.700000,20.62
6107420,0.277184,-0.090280,1.186816,18.059999,75.459999,8.050000,20.65
6107431,0.249368,-0.122000,1.202920,19.809999,69.930000,6.650000,20.61
6107441,0.247904,-0.107360,1.203896,19.950001,66.080002,7.140000,20.61
6107452,0.252784,-0.087840,1.201944,18.129999,63.139999,7.070000,20.66
6107463,0.255712,-0.062952,1.207800,14.980000,60.619999,7.560000,20.66
6107474,0.258640,-0.071248,1.212192,11.060000,59.150002,7.910000,20.64
6107485,0.244976,-0.077104,1.201944,11.550000,57.889999,7.770000,20.61
6107496,0.244000,-0.069296,1.225368,7.350000,54.669998,10.570000,20.61
6107507,0.235704,-0.114680,1.240008,6.860000,53.200001,9.870000,20.66
6107518,0.226920,-0.114192,1.249280,4.830000,52.779999,10.640000,20.66
6107529,0.199104,-0.148840,1.254160,6.160000,51.310001,9.030000,20.66
6107540,0.181048,-0.156160,1.262456,8.260000,48.790001,8.120000,20.66
6107551,0.174216,-0.142008,1.310768,7.420000,45.639999,7.770000,20.62
6107564,0.159576,-0.137128,1.338096,6.160000,42.279999,6.370000,20.65
6107574,0.160552,-0.135176,1.370304,3.290000,38.849998,7.000000,20.65
6107585,0.147376,-0.145912,1.401048,1.680000,34.720001,6.720000,20.63
6107597,0.128344,-0.148840,1.428376,-2.030000,29.469999,7.210000,20.63
6107608,0.117120,-0.155672,1.472784,-5.250000,24.010000,7.490000,20.63
6107618,0.105896,-0.177144,1.492792,-6.230000,19.600000,5.950000,20.60
6107629,0.100040,-0.213256,1.506944,-5.810000,13.370000,4.760000,20.60
6107640,0.094672,-0.239608,1.540128,-2.800000,6.230000,2.450000,20.64
6107651,0.084912,-0.232776,1.554280,3.850000,-0.840000,-0.840000,20.64
6107663,0.099064,-0.207400,1.615768,4.550000,-9.730000,-0.770000,20.62
6107674,0.088816,-0.169336,1.632848,3.430000,-19.180000,-2.380000,20.61
6107684,0.084912,-0.143472,1.624064,-1.400000,-30.170000,-3.990000,20.61
6107696,0.081984,-0.164456,1.600152,-3.500000,-36.820000,-6.860000,20.62
6107707,0.064904,-0.161528,1.583560,-7.630000,-48.720001,-6.370000,20.62
6107718,0.068808,-0.162016,1.633336,-13.650000,-61.110001,-6.510000,20.64
6107729,0.058560,-0.166408,1.689944,-15.540000,-74.550003,-8.680000,20.62
6107740,0.062952,-0.140544,1.673352,-17.639999,-86.239998,-10.710000,20.62
6107751,0.059536,-0.123952,1.643096,-23.660000,-101.220001,-11.690000,20.62
6107762,0.067832,-0.135176,1.579168,-24.639999,-114.029999,-14.980000,20.62
6107774,0.071736,-0.140056,1.515240,-24.010000,-126.000000,-15.820000,20.62
6107785,0.080032,-0.144448,1.399096,-16.940001,-136.289993,-20.580000,20.59
6107796,0.094672,-0.115168,1.251232,-6.860000,-143.850006,-21.629999,20.59
6107807,0.155672,-0.066368,1.187792,-3.080000,-149.520004,-19.740000,20.63
6107818,0.177144,-0.033184,1.096536,1.050000,-154.279999,-19.809999,20.63
6107829,0.184952,0.013664,1.015040,3.710000,-158.690002,-18.340000,20.62
6107840,0.215696,0.049776,0.977952,-2.240000,-160.860001,-14.070000,20.62
6107851,0.226432,0.074176,0.899384,-1.330000,-162.259995,-13.440000,20.62
6107862,0.241560,0.094184,0.754936,-2.730000,-161.839996,-9.870000,20.62
6107873,0.272792,0.094672,0.608048,-3.360000,-160.020004,-6.860000,20.62
6107884,0.319640,0.132736,0.508496,-11.060000,-154.979996,-2.660000,20.59
6107895,0.380640,0.156160,0.468480,-21.420000,-147.210007,3.500000,20.59
6107906,0.418216,0.151280,0.428952,-29.260000,-138.250000,7.770000,20.61
6107917,0.439688,0.013176,0.416752,-42.700001,-132.440002,12.460000,20.62
6107928,0.477752,0.056120,0.374296,-46.759998,-121.940002,12.950000,20.62
6107939,0.472384,-0.022936,0.268400,-46.130001,-112.489998,13.720000,20.63
6107950,0.501664,-0.127856,0.158112,-37.799999,-103.040001,13.790000,20.63
6107961,0.540216,-0.179096,0.077104,-26.040001,-89.110001,13.090000,20.62
6107972,0.568520,-0.212768,0.048800,-15.540000,-74.129997,12.810000,20.58
6107983,0.579744,-0.240584,0.042944,-6.930000,-58.520000,11.830000,20.58
6107994,0.567544,-0.252296,0.043432,5.460000,-46.549999,9.100000,20.66
6108005,0.569008,-0.232288,0.065392,14.210000,-33.040001,8.050000,20.66
6108016,0.581696,-0.212768,0.085400,19.740000,-20.230000,6.370000,20.64
6108027,0.589504,-0.162504,0.095648,21.350000,-10.500000,6.510000,20.66
6108038,0.596824,-0.157624,0.120536,19.389999,0.700000,6.580000,20.66
6108049,0.598776,-0.131760,0.154696,14.560000,11.060000,7.070000,20.63
6108060,0.584136,-0.131760,0.194224,9.800000,18.969999,5.740000,20.63
6108070,0.561200,-0.130784,0.213744,5.880000,26.250000,5.670000,20.62
6108081,0.573888,-0.131760,0.241560,1.400000,33.110001,6.020000,20.62
6108092,0.575840,-0.164944,0.287920,-1.890000,38.500000,5.810000,20.61
6108103,0.575840,-0.184952,0.341112,-3.710000,43.889999,5.320000,20.58
6108114,0.580232,-0.224968,0.372832,-1.890000,49.000000,3.500000,20.58
6108125,0.572912,-0.237656,0.387960,2.730000,52.360001,1.540000,20.64
6108136,0.567056,-0.245952,0.393816,9.170000,56.209999,-0.910000,20.64
6108147,0.552416,-0.228384,0.392352,14.420000,60.200001,-2.940000,20.66
6108158,0.554368,-0.197152,0.422120,16.799999,62.720001,-2.870000,20.60
6108169,0.564128,-0.183976,0.477752,18.900000,67.129997,-4.620000,20.60
6108179,0.552416,-0.147376,0.514840,19.110001,70.559998,-5.040000,20.62
6108190,0.541680,-0.134688,0.542656,19.670000,72.800003,-6.580000,20.62
6108201,0.529968,-0.124440,0.542168,19.879999,79.309998,-4.410000,20.59
6108212,0.640256,-0.084424,0.599264,17.010000,87.500000,-4.130000,20.59
6108223,0.436760,-0.137128,0.594384,18.200001,81.269997,-8.470000,20.62
6108234,0.518744,-0.100528,0.623176,16.379999,87.430000,-5.180000,20.62
6108245,0.479704,-0.079544,0.676856,19.040001,87.430000,-7.070000,20.62
6108256,0.419192,-0.089792,0.669048,22.469999,87.919998,-10.150000,20.65
6108267,0.427976,-0.057584,0.691496,24.850000,88.550003,-7.910000,20.65
6108278,0.436272,-0.001952,0.775920,18.690001,90.089996,-4.480000,20.63
6108289,0.434808,0.029280,0.831552,14.770000,91.349998,-2.380000,20.64
6108300,0.405040,0.063440,0.876936,7.560000,90.790001,1.400000,20.64
6108311,0.376248,0.090768,0.889136,0.140000,89.389999,4.550000,20.60
6108322,0.347456,0.080520,0.910608,-9.240000,87.360001,9.660000,20.60
6108332,0.332328,0.019520,0.950624,-13.720000,86.449997,14.280000,20.64
6108343,0.307928,-0.035136,0.965264,-9.170000,85.400002,14.840000,20.59
6108354,0.295240,-0.056120,0.983320,-3.920000,81.900002,17.219999,20.59
6108365,0.283528,-0.081008,1.034072,-0.560000,80.639999,17.430000,20.62
6108376,0.267912,-0.103456,1.073600,8.330000,77.279999,17.430000,20.62
6108387,0.275232,-0.085888,1.114592,11.200000,73.709999,18.969999,20.62
6108398,0.274256,-0.116144,1.157048,15.820000,72.169998,17.430000,20.62
6108409,0.265960,-0.134688,1.179984,22.820000,68.389999,35.560001,20.58
6108420,0.284504,-0.139568,1.220976,27.580000,64.959999,18.549999,20.62
6108431,0.276208,-0.140544,1.253184,33.669998,62.160000,17.430000,20.62
6108442,0.277184,-0.131760,1.268800,36.119999,59.360001,17.080000,20.65
6108453,0.287432,-0.148840,1.272704,38.290001,59.080002,16.030001,20.65
6108464,0.260104,-0.117120,1.272704,37.590000,57.750000,14.280000,20.63
6108475,0.252784,-0.248392,1.323456,30.240000,56.419998,15.120000,20.60
6108485,0.236192,-0.158600,1.375184,26.459999,52.500000,13.720000,20.60
6108496,0.234728,-0.162016,1.442528,21.490000,49.349998,12.670000,20.63
6108507,0.219600,-0.175680,1.478640,14.630000,45.849998,11.060000,20.63
6108518,0.206912,-0.195688,1.485472,9.450000,41.439999,9.100000,20.60
6108529,0.196664,-0.238632,1.483032,8.260000,37.520000,6.510000,20.60
6108540,0.189344,-0.255712,1.498648,7.840000,34.090000,3.990000,20.64
6108551,0.179096,-0.256200,1.532808,5.810000,29.330000,2.100000,20.60
6108562,0.155672,-0.260592,1.586488,4.620000,23.309999,-1.260000,20.60
6108572,0.135664,-0.243512,1.644072,1.120000,17.150000,-3.080000,20.65
6108583,0.104920,-0.214232,1.668472,-4.410000,7.420000,-4.550000,20.65
6108594,0.100040,-0.223504,1.658224,-7.490000,-2.240000,-8.260000,20.60
6108605,0.097600,-0.220576,1.636752,-9.310000,-9.450000,-10.920000,20.70
6108616,0.098576,-0.219112,1.621136,-9.520000,-18.410000,-12.810000,20.70
6108627,0.092720,-0.219600,1.626016,-7.280000,-27.790001,-15.120000,20.61
6108638,0.092720,-0.218624,1.618696,-5.110000,-37.799999,-17.150000,20.61
6108649,0.100528,-0.223504,1.589904,0.420000,-45.080002,-19.459999,20.57
6108660,0.110288,-0.205936,1.555744,6.510000,-54.459999,-21.559999,20.63
6108672,0.126880,-0.171776,1.501088,11.060000,-62.860001,-24.430000,20.63
6108683,0.140056,-0.107848,1.478640,11.620000,-70.070000,-23.799999,20.68
6108694,0.163480,-0.045872,1.492792,7.560000,-78.470001,-22.540001,20.68
6108705,0.155672,0.021960,1.517192,-4.130000,-88.339996,-20.230000,20.62
6108716,0.153720,0.047336,1.515240,-18.690001,-100.519997,-19.250000,20.62
6108727,0.143472,0.057584,1.470344,-30.450001,-111.580002,-18.690001,20.62
6108738,0.153232,0.022448,1.371768,-41.230000,-120.470001,-18.549999,20.63
6108749,0.189344,-0.009272,1.279536,-48.090000,-128.589996,-17.780001,20.63
6108761,0.199592,-0.018544,1.236592,-54.320000,-136.850006,-17.500000,20.65
6108772,0.196176,-0.057096,1.208776,-51.660000,-143.570007,-20.370001,20.65
6108783,0.178608,-0.046360,1.113128,-45.290001,-150.500000,-21.980000,20.61
6108794,0.189832,-0.043920,0.995520,-36.189999,-156.169998,-23.309999,20.66
6108805,0.214232,-0.048800,0.898408,-25.900000,-159.460007,-23.450001,20.66
6108816,0.236680,0.016104,0.892552,-29.610001,-162.820007,-19.250000,20.62
6108827,0.233752,-0.021472,0.837408,-22.400000,-163.940002,-22.400000,20.62
6108838,0.237656,0.117608,0.752008,-14.210000,-166.179993,-19.459999,20.70
6108849,0.274744,-0.004392,0.666608,-10.220000,-167.229996,-19.110001,20.65
6108861,0.315736,-0.018544,0.549000,-5.250000,-165.130005,-17.639999,20.65
6108872,0.351848,-0.017080,0.456768,-2.170000,-160.789993,-15.050000,20.63
6108883,0.406504,-0.014640,0.366000,3.640000,-154.979996,-12.950000,20.63
6108894,0.426024,-0.014152,0.300120,5.530000,-147.350006,-10.640000,20.61
6108905,0.463112,0.005368,0.245464,5.740000,-137.270004,-7.910000,20.64
6108916,0.486048,0.046360,0.166896,2.940000,-126.279999,-4.200000,20.64
6108927,0.519232,0.050752,0.103944,-0.980000,-116.199997,-1.120000,20.63
6108938,0.558760,0.043920,0.078568,-5.880000,-102.690002,1.890000,20.63
6108949,0.597800,0.021960,0.043432,-8.610000,-87.919998,4.130000,20.66
6108960,0.628056,-0.005856,0.007808,-12.040000,-75.180000,6.160000,20.59
6108971,0.634400,-0.042944,-0.017080,-13.370000,-59.639999,6.860000,20.59
6108982,0.633424,-0.094672,-0.036600,-11.830000,-45.009998,7.070000,20.64
6108993,0.650504,-0.143472,-0.037088,-11.270000,-31.500000,8.120000,20.64
6109004,0.681736,-0.203984,-0.033184,-3.990000,-19.600000,7.210000,20.62
6109015,0.688568,-0.198616,-0.027328,6.300000,-5.250000,6.300000,20.58
6109026,0.711992,-0.188856,-0.006344,13.160000,8.330000,5.250000,20.58
6109037,0.715408,-0.197152,0.023424,20.160000,20.090000,2.870000,20.66
6109048,0.688568,-0.181048,0.051240,26.250000,32.200001,1.680000,20.66
6109059,0.674904,-0.164944,0.081496,29.889999,43.049999,-0.070000,20.61
6109070,0.664168,-0.146888,0.138104,30.590000,50.470001,-0.280000,20.61
6109080,0.650504,-0.114680,0.173728,27.650000,58.029999,-0.420000,20.62
6109091,0.658800,-0.099064,0.234240,24.080000,64.610001,-0.280000,20.63
6109102,0.648064,-0.078568,0.284992,18.900000,69.650002,-0.140000,20.63
6109113,0.637816,-0.086376,0.326472,14.770000,73.989998,0.350000,20.61
6109124,0.630984,-0.089792,0.363560,11.690000,78.540001,0.210000,20.61
6109135,0.623176,-0.088328,0.399672,10.430000,81.970001,-0.210000,20.67
6109146,0.615368,-0.091256,0.416752,10.990000,86.029999,-0.280000,20.66
6109157,0.615856,-0.079056,0.446520,9.100000,90.300003,0.770000,20.66
6109168,0.619272,-0.076128,0.491416,6.300000,95.410004,-0.700000,20.62
6109179,0.564616,-0.074176,0.582184,11.200000,95.339996,1.680000,20.62
6109190,0.522160,-0.096624,0.570960,9.800000,98.419998,0.980000,20.59
6109201,0.581208,-0.054168,0.652456,10.570000,106.889999,4.270000,20.59
6109211,0.494344,-0.061976,0.665632,15.680000,100.870003,-1.610000,20.65
6109223,0.472384,-0.060512,0.628544,17.709999,102.269997,-1.260000,20.58
6109233,0.478240,-0.037576,0.617320,20.090000,105.000000,0.350000,20.58
6109244,0.476776,-0.010736,0.655872,13.510000,106.470001,4.830000,20.62
6109256,0.489464,-0.005856,0.740296,6.790000,111.440002,5.390000,20.62
6109267,0.453352,-0.008296,0.793000,4.340000,111.860001,7.350000,20.66
6109278,0.435784,-0.002440,0.862296,-1.190000,110.809998,9.940000,20.59
6109289,0.411872,-0.024400,0.909632,-1.190000,110.529999,9.590000,20.59
6109300,0.389912,-0.034160,0.948672,-0.910000,108.709999,10.990000,20.67
6109311,0.377224,-0.050264,0.983320,-2.800000,107.379997,11.340000,20.67
6109322,0.349896,-0.079544,0.997472,-1.750000,106.750000,9.590000,20.64
6109332,0.300120,-0.095160,1.049200,-5.390000,101.989998,10.850000,20.64
6109343,0.261080,-0.137128,1.081896,-2.730000,96.599998,8.120000,20.64
6109354,0.255712,-0.145424,1.109712,3.010000,90.860001,6.860000,20.57
6109365,0.274744,-0.127368,1.166808,6.510000,86.379997,6.930000,20.57
6109376,0.286456,-0.095160,1.186328,12.390000,82.529999,6.650000,20.66
6109387,0.295240,-0.038552,1.205360,10.430000,79.660004,8.960000,20.66
6109398,0.283528,-0.045384,1.205360,8.400000,79.309998,7.770000,20.61
6109409,0.232776,-0.029768,1.202432,5.530000,76.089996,8.750000,20.61
6109420,0.206912,-0.059536,1.233176,1.050000,71.540001,10.290000,20.61
6109431,0.193248,-0.086864,1.264408,1.610000,67.900002,10.500000,20.61
6109442,0.195688,-0.093208,1.295152,-0.140000,62.860001,12.250000,20.61
6109452,0.189344,-0.135664,1.317600,0.000000,59.080002,11.760000,20.66
6109463,0.188368,-0.163968,1.362984,0.910000,56.349998,11.690000,20.57
6109474,0.175680,-0.175192,1.405928,2.800000,51.660000,10.150000,20.57
6109485,0.154696,-0.219600,1.448384,5.110000,45.849998,8.680000,20.61
6109496,0.152744,-0.255224,1.466928,10.430000,40.040001,7.070000,20.61
6109506,0.151280,-0.256688,1.469368,13.510000,35.980000,4.410000,20.62
6109517,0.150792,-0.241560,1.471320,16.170000,32.060001,3.640000,20.62
6109528,0.139080,-0.219600,1.477176,16.379999,26.740000,1.750000,20.66
6109539,0.114680,-0.187392,1.489376,14.210000,20.020000,0.840000,20.61
6109550,0.112240,-0.185440,1.514752,9.730000,14.420000,-0.630000,20.61
6109561,0.112240,-0.157624,1.541104,3.780000,7.560000,-0.490000,20.61
6109572,0.122976,-0.146400,1.556720,-1.540000,1.050000,-0.630000,20.61
6109583,0.134688,-0.171288,1.552816,-5.880000,-3.290000,-1.680000,20.59
6109594,0.135176,-0.201056,1.538176,-5.600000,-8.890000,-3.570000,20.62
6109605,0.132248,-0.220576,1.535736,-4.060000,-14.630000,-4.480000,20.62
6109617,0.134688,-0.230336,1.514752,0.840000,-19.670000,-7.140000,20.64
6109627,0.131272,-0.206912,1.492792,3.080000,-25.760000,-8.540000,20.64
6109638,0.140544,-0.190808,1.489376,4.550000,-30.590000,-10.080000,20.64
6109650,0.142984,-0.156160,1.503528,2.940000,-36.889999,-11.620000,20.57
6109660,0.135176,-0.139080,1.526464,0.490000,-46.130001,-12.600000,20.57
6109671,0.145912,-0.136152,1.508408,-2.380000,-53.200001,-14.490000,20.66
6109683,0.161040,-0.123952,1.484008,-5.950000,-62.020000,-14.910000,20.66
6109694,0.172752,-0.085888,1.487912,-14.980000,-70.839996,-15.470000,20.63
6109705,0.164944,-0.077104,1.504016,-21.420000,-79.449997,-16.799999,20.63
6109716,0.142984,-0.040016,1.465464,-25.200001,-90.089996,-18.340000,20.58
6109727,0.151280,-0.030256,1.418616,-34.580002,-99.190002,-17.360001,20.64
6109739,0.187392,-0.049776,1.345416,-40.110001,-106.120003,-18.270000,20.64
6109750,0.180072,-0.058560,1.258064,-42.000000,-113.610001,-19.110001,20.61
6109760,0.192272,-0.103456,1.202432,-42.980000,-119.559998,-20.650000,20.61
6109771,0.200568,-0.126392,1.210728,-39.130001,-124.669998,-21.840000,20.59
6109782,0.197640,-0.111752,1.176568,-27.930000,-130.690002,-23.940001,20.61
6109794,0.219600,-0.093696,1.086288,-17.430000,-136.639999,-24.639999,20.61
6109805,0.263032,-0.093696,0.992104,-8.750000,-139.860001,-25.200001,20.63
6109816,0.281088,-0.076616,0.858392,3.360000,-139.509995,-26.040001,20.63
6109828,0.278160,-0.040504,0.740296,9.940000,-140.210007,-24.290001,20.60
6109839,0.293288,-0.005368,0.663192,13.440000,-139.440002,-22.540001,20.59
6109850,0.318176,0.067832,0.600728,10.150000,-137.199997,-16.870001,20.59
6109861,0.346480,0.132736,0.517768,1.820000,-134.820007,-10.850000,20.61
6109871,0.389424,0.145424,0.427000,-9.590000,-129.919998,-5.950000,20.61
6109883,0.426512,0.127856,0.370880,-23.730000,-121.309998,-2.380000,20.61
6109894,0.442128,0.019032,0.325496,-28.209999,-111.790001,-0.420000,20.61
6109905,0.440176,-0.025864,0.262056,-25.059999,-104.300003,0.280000,20.61
6109916,0.463600,-0.044896,0.218136,-23.100000,-94.639999,1.540000,20.62
6109927,0.491416,-0.081496,0.179584,-18.620001,-82.529999,2.170000,20.62
6109939,0.494344,-0.083448,0.137616,-15.540000,-71.750000,4.130000,20.66
6109949,0.504592,-0.108824,0.100528,-13.580000,-60.830002,4.760000,20.57
6109960,0.521184,-0.124928,0.098088,-11.550000,-52.080002,6.650000,20.57
6109971,0.549976,-0.127368,0.110776,-7.560000,-40.459999,6.930000,20.60
6109983,0.562176,-0.125416,0.111264,-3.920000,-28.700001,7.000000,20.60
6109994,0.572424,-0.140544,0.104432,-2.590000,-16.870001,7.280000,20.61
6110005,0.583160,-0.157624,0.105896,0.280000,-7.350000,6.790000,20.57
6110016,0.587064,-0.172264,0.246440,1.470000,3.640000,6.650000,20.57
6110027,0.596336,-0.194712,0.139568,4.690000,14.210000,5.810000,20.61
6110039,0.589992,-0.202520,0.143960,8.890000,24.080000,4.620000,20.61
6110049,0.591456,-0.218624,0.172264,11.760000,30.940001,3.850000,20.61
6110060,0.602192,-0.223992,0.230336,15.820000,38.849998,3.080000,20.65
6110071,0.598776,-0.216672,0.282064,19.040001,46.060001,1.470000,20.65
6110083,0.578280,-0.220088,0.340136,21.770000,51.169998,-0.770000,20.63
6110094,0.572912,-0.212768,0.390400,25.480000,54.669998,-2.870000,20.63
6110105,0.574376,-0.198616,0.424560,28.000000,58.520000,-4.340000,20.64
6110115,0.576816,-0.154208,0.443592,26.389999,62.090000,-4.130000,20.64
6110127,0.574376,-0.122000,0.481168,23.240000,65.379997,-4.410000,20.64
6110138,0.564128,-0.093696,0.528992,19.389999,68.110001,-4.060000,20.63
6110149,0.544120,-0.060024,0.566568,14.490000,69.720001,-3.500000,20.63
6110160,0.538264,-0.063440,0.590480,12.180000,71.190002,-2.870000,20.65
6110170,0.541680,-0.064904,0.607560,8.890000,72.519997,-1.750000,20.65
6110182,0.542168,-0.067832,0.655384,3.710000,74.900002,0.070000,20.68
6110192,0.509472,-0.101992,0.683688,1.190000,67.830002,3.080000,20.59
6110203,0.652456,-0.047336,0.751032,-3.150000,87.989998,6.440000,20.59
6110214,0.437736,-0.071736,0.805688,1.400000,78.400002,0.000000,20.61
6110225,0.455792,-0.090768,0.781288,4.480000,77.070000,4.550000,20.61
6110236,0.496784,-0.081496,0.771528,8.260000,81.830002,0.560000,20.64
6110247,0.437736,-0.105408,0.732976,14.420000,81.480003,-1.820000,20.54
6110259,0.462136,-0.057096,0.773480,11.340000,83.160004,4.410000,20.54
6110270,0.464576,-0.051240,0.837896,7.420000,87.220001,5.180000,20.61
6110281,0.423584,-0.047824,0.897432,3.990000,86.519997,6.650000,20.61
6110292,0.401624,-0.066856,0.953552,3.640000,85.330002,5.880000,20.63
6110303,0.370880,-0.088816,0.946720,7.350000,83.300003,4.760000,20.64
6110314,0.349896,-0.112240,0.929152,11.620000,81.970001,4.620000,20.64
6110325,0.358192,-0.112728,0.940376,12.880000,82.250000,6.300000,20.60
6110336,0.352824,-0.096624,1.006256,11.830000,82.459999,7.000000,20.60
6110347,0.319640,-0.079544,1.051640,9.450000,81.760002,6.860000,20.64
6110358,0.296704,-0.081008,1.079944,7.910000,78.889999,6.930000,20.64
6110369,0.274744,-0.095160,1.082384,8.260000,75.320000,6.020000,20.63
6110380,0.263520,-0.116632,1.083360,9.800000,72.379997,4.340000,20.62
6110391,0.267912,-0.135176,1.099952,11.410000,69.300003,4.480000,20.62
6110402,0.267912,-0.131760,1.107760,15.260000,68.809998,3.640000,20.59
6110413,0.264496,-0.110776,1.121424,16.730000,69.089996,3.710000,20.59
6110424,0.225944,-0.111752,1.138504,19.110001,67.480003,2.940000,20.62
6110435,0.205448,-0.082960,1.196088,18.760000,64.820000,3.780000,20.62
6110446,0.180072,-0.074664,1.260016,14.560000,60.619999,4.480000,20.62
6110457,0.151280,-0.076128,1.300520,12.810000,54.040001,4.410000,20.59
6110468,0.150792,-0.087352,1.301008,11.760000,48.020000,4.130000,20.59
6110479,0.162016,-0.096136,1.281000,11.270000,44.939999,3.780000,20.62
6110490,0.162016,-0.095160,1.273680,7.210000,40.459999,4.760000,20.61
6110500,0.163480,-0.104920,1.289296,5.180000,36.889999,4.970000,20.61
6110511,0.153232,-0.104920,1.314184,4.340000,35.070000,5.390000,20.58
6110522,0.127856,-0.108336,1.333216,3.150000,30.870001,5.040000,20.58
6110533,0.112240,-0.163480,1.342976,6.160000,26.600000,3.640000,20.65
6110544,0.105408,-0.192760,1.348344,11.760000,22.400000,2.030000,20.65
6110555,0.106384,-0.180560,1.365424,16.450001,17.990000,1.260000,20.61
6110566,0.107360,-0.161528,1.395680,18.410000,14.280000,0.490000,20.62
6110577,0.096624,-0.129320,1.423496,18.620001,9.380000,0.070000,20.62
6110588,0.088816,-0.106384,1.465464,15.400000,4.690000,1.050000,20.67
6110599,0.082472,-0.084424,1.490352,9.870000,-2.170000,1.610000,20.67
6110610,0.084424,-0.078080,1.498160,5.040000,-9.030000,1.890000,20.62
6110621,0.095160,-0.100040,1.478152,-0.630000,-14.490000,1.260000,20.59
6110632,0.101504,-0.144936,1.448384,-1.330000,-18.340000,-0.560000,20.59
6110644,0.110776,-0.159576,1.445944,-0.700000,-22.959999,-1.750000,20.56
6110655,0.117608,-0.173240,1.438624,2.170000,-27.719999,-3.570000,20.56
6110666,0.116632,-0.153232,1.435696,2.310000,-33.880001,-3.990000,20.66
6110677,0.120048,-0.160552,1.430328,3.920000,-39.130001,-5.810000,20.58
6110688,0.125904,-0.135176,1.425448,3.360000,-45.080002,-6.370000,20.58
6110699,0.127368,-0.113216,1.433744,0.000000,-50.889999,-8.050000,20.62
6110710,0.108336,-0.083936,1.431304,-4.410000,-57.610001,-9.380000,20.62
6110721,0.118096,-0.073688,1.403976,-9.310000,-64.330002,-8.540000,20.61
6110732,0.163480,-0.073688,1.363472,-14.350000,-70.279999,-9.030000,20.63
6110744,0.173728,-0.072712,1.314672,-19.879999,-75.879997,-9.660000,20.63
6110755,0.184464,-0.096624,1.319064,-25.129999,-82.879997,-10.290000,20.62
6110766,0.183000,-0.109800,1.327360,-23.590000,-88.690002,-13.090000,20.62
6110777,0.188368,-0.119072,1.292224,-20.790001,-94.639999,-13.790000,20.63
6110788,0.228384,-0.119560,1.228296,-17.219999,-100.169998,-15.400000,20.60
6110799,0.237656,-0.107848,1.149728,-11.900000,-104.720001,-17.990000,20.60
