timestamp_ms,ax,ay,az,gx,gy,gz,tempC
17080,0.503128,0.268400,0.989664,-33.110001,-31.010000,42.770000,21.30
17093,0.538264,0.250344,0.943792,-40.040001,-28.629999,45.080002,21.30
17104,0.542656,0.174216,0.965264,-43.470001,-26.879999,47.110001,21.29
17115,0.559736,0.098088,0.982344,-41.020000,-25.059999,48.090000,21.28
17127,0.564616,0.100528,1.007720,-37.169998,-24.010000,50.259998,21.28
17138,0.571448,0.136640,0.989664,-36.959999,-22.540001,52.779999,21.27
17149,0.595848,0.164944,0.978440,-40.040001,-20.160000,56.000000,21.27
17160,0.584624,0.194712,0.943792,-40.810001,-17.990000,56.980000,21.24
17171,0.580232,0.218624,0.914512,-41.650002,-17.500000,57.959999,21.26
17182,0.588528,0.231800,0.912072,-42.980000,-16.870001,58.869999,21.26
17193,0.584136,0.250832,0.901336,-49.840000,-16.660000,60.410000,21.29
17204,0.595360,0.249856,0.877912,-56.700001,-15.750000,63.700001,21.29
17215,0.587064,0.241072,0.871080,-57.540001,-14.560000,66.709999,21.34
17227,0.579256,0.195688,0.868152,-52.430000,-15.120000,67.690002,21.27
17238,0.567056,0.185440,0.851072,-39.970001,-16.170000,67.760002,21.27
17249,0.568032,0.179584,0.808128,-25.969999,-16.940001,67.129997,21.33
17260,0.574376,0.132736,0.797880,-13.230000,-16.450001,65.800003,21.33
17271,0.567544,0.190808,0.789584,-8.750000,-16.450001,68.949997,21.30
17282,0.583160,0.153232,0.781776,-5.740000,-15.050000,72.239998,21.28
17293,0.573888,0.183488,0.775432,0.350000,-11.760000,73.500000,21.28
17304,0.533384,0.215208,0.745664,3.570000,-9.310000,73.919998,21.29
17315,0.522648,0.185928,0.705648,4.620000,-7.000000,74.550003,21.29
17326,0.508496,0.173728,0.675392,3.710000,-5.600000,74.760002,21.29
17337,0.513376,0.135664,0.678808,-0.980000,-2.380000,74.830002,21.30
17348,0.496296,0.063928,0.686128,-2.170000,0.560000,73.570000,21.30
17360,0.488488,0.007320,0.690032,0.140000,2.310000,72.940002,21.29
17370,0.483608,-0.031720,0.697352,8.540000,3.500000,71.050003,21.29
17381,0.476288,-0.023912,0.671976,17.570000,4.830000,68.529999,21.26
17393,0.484096,-0.019032,0.661728,21.280001,7.910000,66.010002,21.26
17404,0.468480,-0.065392,0.657824,25.129999,11.690000,60.970001,21.29
17414,0.460672,-0.070760,0.652456,30.870001,14.280000,57.889999,21.28
17425,0.455792,-0.077104,0.647088,35.910000,17.290001,53.970001,21.28
17436,0.450424,-0.070272,0.656360,38.570000,20.790001,50.470001,21.30
17447,0.442616,-0.054656,0.662704,43.400002,23.100000,46.689999,21.30
17458,0.440176,-0.023424,0.667584,45.990002,27.230000,44.380001,21.30
17469,0.425536,0.010736,0.648064,49.630001,32.270000,40.320000,21.25
17480,0.404064,0.055144,0.637816,51.590000,36.540001,37.450001,21.25
17491,0.384056,0.090768,0.636840,48.230000,42.279999,35.770000,21.32
17502,0.377712,0.054168,0.638304,46.689999,47.669998,33.669998,21.32
17513,0.374784,0.041480,0.641720,45.009998,53.130001,32.480000,21.29
17524,0.355752,0.008296,0.654408,45.709999,58.730000,30.590000,21.27
17535,0.337208,0.007320,0.704184,45.779999,63.279999,29.120001,21.27
17546,0.306952,0.003416,0.751032,48.930000,66.570000,24.990000,21.30
17557,0.276696,-0.006344,0.798368,57.750000,69.860001,21.910000,21.30
17568,0.249368,0.051240,0.809592,63.910000,72.169998,17.219999,21.26
17579,0.234728,0.115168,0.831552,63.279999,73.639999,17.360001,21.26
17590,0.215696,0.226432,0.904752,51.380001,73.430000,18.129999,21.31
17600,0.196176,0.260104,0.964776,35.349998,72.379997,18.690001,21.30
17611,0.188368,0.258152,1.023336,22.820000,70.980003,19.250000,21.30
17622,0.180072,0.220088,1.082872,7.000000,67.690002,19.530001,21.29
17633,0.184952,0.137616,1.108248,-0.420000,63.980000,19.110001,21.29
17644,0.179584,0.026352,1.127768,3.780000,60.270000,16.870001,21.30
17655,0.174704,-0.024400,1.143384,14.840000,56.840000,14.280000,21.30
17666,0.165432,-0.011224,1.138504,25.830000,53.410000,11.970000,21.30
17677,0.155672,0.009760,1.145336,35.209999,49.349998,8.890000,21.25
17687,0.162504,0.036600,1.167296,40.320000,45.570000,7.420000,21.25
17698,0.169336,0.091744,1.179984,40.599998,41.020000,5.320000,21.34
17709,0.183488,0.135664,1.201944,35.419998,37.730000,4.550000,21.34
17720,0.183488,0.191784,1.230736,24.570000,34.720001,4.270000,21.32
17730,0.162504,0.203008,1.254648,13.090000,29.820000,4.060000,21.32
17741,0.169824,0.175192,1.262944,2.450000,26.600000,4.760000,21.32
17752,0.160064,0.127368,1.257088,-1.470000,22.540001,5.040000,21.27
17763,0.155184,0.070760,1.235128,-0.140000,0.560000,4.340000,21.27
17774,0.162992,0.034160,1.215608,5.180000,15.400000,3.010000,21.31
17784,0.164456,0.034648,1.220488,9.870000,11.830000,2.100000,21.31
17795,0.156648,0.059536,1.273192,11.550000,8.190000,1.610000,21.28
17806,0.152744,0.080520,1.326872,12.320000,3.080000,0.350000,21.28
17817,0.156648,0.120048,1.343464,11.130000,-2.380000,-0.490000,21.28
17828,0.155672,0.126880,1.345904,7.350000,-6.510000,-1.960000,21.31
17839,0.153720,0.135664,1.342488,1.190000,-11.760000,-2.520000,21.31
17850,0.144448,0.147376,1.339072,-6.440000,-18.129999,-2.800000,21.30
17861,0.153232,0.134200,1.312720,-12.670000,-23.100000,-2.730000,21.29
17872,0.154696,0.094672,1.292224,-15.890000,-28.280001,-3.080000,21.29
17883,0.162504,0.065880,1.282464,-14.560000,-33.250000,-3.360000,21.30
17894,0.158600,0.072224,1.286368,-11.480000,-38.290001,-4.340000,21.30
17905,0.147864,0.109800,1.296128,-9.940000,-44.029999,-4.690000,21.32
17916,0.142496,0.181048,1.310768,-12.600000,-50.189999,-3.290000,21.29
17928,0.154696,0.188856,1.325408,-16.240000,-58.240002,-1.540000,21.29
17939,0.171776,0.184464,1.303936,-18.480000,-65.800003,-0.490000,21.30
17950,0.188856,0.210328,1.294664,-24.080000,-72.589996,2.380000,21.30
17961,0.190320,0.216184,1.288808,-30.450001,-78.400002,4.410000,21.30
17972,0.198128,0.231312,1.302472,-38.849998,-85.400002,6.720000,21.27
17983,0.192760,0.174704,1.286856,-40.250000,-93.660004,7.140000,21.27
17994,0.203984,0.104920,1.242936,-19.250000,-101.010002,7.630000,21.32
18005,0.219600,0.084424,1.176568,-30.309999,-124.669998,7.980000,21.32
18016,0.240096,0.100040,1.145336,-27.580000,-113.889999,9.660000,21.34
18027,0.261080,0.112728,1.119472,-23.870001,-119.629997,9.590000,21.34
18038,0.281576,0.085888,1.045784,-19.740000,-123.480003,8.610000,21.26
18049,0.290848,0.052216,0.937936,-14.140000,-126.349998,7.980000,21.32
18060,0.323544,0.001464,0.826672,-5.040000,-128.729996,7.070000,21.32
18071,0.356240,-0.009272,0.686616,1.540000,-127.680000,5.740000,21.30
18082,0.394792,-0.009272,0.563152,6.580000,-125.720001,5.530000,21.30
18093,0.435784,-0.019520,0.455792,11.690000,-119.910004,4.970000,21.30
18104,0.472872,-0.018544,0.385520,14.000000,-111.580002,5.040000,21.27
18115,0.500200,-0.001952,0.324520,14.770000,-101.220001,5.040000,21.27
18126,0.521184,-0.020496,0.284016,14.210000,-91.980003,5.460000,21.31
18137,0.538264,-0.019032,0.263032,13.790000,-79.379997,5.530000,21.31
18148,0.546560,-0.010248,0.254248,12.180000,-67.480003,4.690000,21.32
18159,0.555832,-0.005856,0.264984,8.750000,-57.470001,3.710000,21.30
18170,0.564616,0.002440,0.266448,4.130000,-45.220001,3.850000,21.30
18181,0.565104,0.002928,0.264008,0.280000,-33.950001,3.010000,21.31
18192,0.556320,-0.030256,0.267912,-1.540000,-25.969999,1.960000,21.31
18203,0.558272,-0.038552,0.283040,-1.120000,-16.170000,0.910000,21.27
18214,0.554368,-0.042456,0.315248,-0.140000,-7.770000,0.140000,21.27
18225,0.553880,-0.023424,0.373320,0.490000,-0.770000,0.070000,21.27
18236,0.556320,-0.025864,0.434320,3.080000,4.340000,-0.280000,21.30
18247,0.552416,-0.005368,0.467992,5.530000,9.170000,0.070000,21.30
18257,0.548024,0.024888,0.498248,6.160000,12.810000,0.350000,21.32
18268,0.554368,0.043432,0.528504,5.320000,15.050000,1.050000,21.32
18279,0.565104,0.055632,0.551440,4.900000,18.690001,1.750000,21.34
18290,0.562176,0.056120,0.570960,4.690000,20.510000,2.520000,21.30
18300,0.566568,0.037088,0.588040,6.020000,22.330000,2.450000,21.30
18311,0.581208,0.020984,0.623664,7.280000,23.799999,2.730000,21.30
18322,0.596336,0.032696,0.678320,7.070000,24.990000,3.640000,21.30
18333,0.601216,0.061488,0.719312,6.300000,25.969999,4.270000,21.29
18344,0.600240,0.034160,0.739320,8.680000,26.670000,4.200000,21.29
18354,0.589016,0.039528,0.749568,10.360000,26.530001,4.200000,21.32
18365,0.578280,0.017568,0.750544,12.110000,25.760000,3.150000,21.31
18376,0.583160,-0.003416,0.757864,16.730000,26.250000,2.310000,21.31
18387,0.587064,0.037576,0.767136,19.389999,26.389999,2.240000,21.29
18397,0.588040,0.066368,0.773480,20.299999,27.440001,1.330000,21.29
18409,0.592432,0.091744,0.796416,16.379999,29.049999,1.680000,21.29
18420,0.576328,0.106872,0.802272,12.250000,30.450001,1.820000,21.28
18431,0.563152,0.081496,0.803248,9.800000,31.570000,2.170000,21.28
18441,0.566080,0.106384,0.831064,6.440000,32.200001,3.290000,21.22
18452,0.550464,0.102968,0.848144,2.030000,33.459999,3.500000,21.22
18463,0.535824,0.060024,0.841312,0.840000,35.279999,2.450000,21.29
18474,0.510448,-0.001464,0.814960,6.230000,36.820000,0.210000,21.29
18485,0.498736,-0.028304,0.782752,16.240000,37.799999,-1.540000,21.29
18496,0.499712,-0.013176,0.778360,23.660000,40.599998,-2.100000,21.30
18507,0.507032,0.074176,0.789584,25.200001,43.119999,-1.610000,21.30
18518,0.496784,0.099064,0.801296,23.450001,46.549999,-1.610000,21.29
18529,0.492392,0.097112,0.813984,20.160000,49.770000,-1.260000,21.29
18540,0.479704,0.114192,0.819352,17.639999,52.919998,-0.980000,21.31
18550,0.461160,0.080032,0.806176,16.730000,55.020000,-1.820000,21.34
18561,0.453352,0.055632,0.800320,17.430000,57.820000,-1.680000,21.34
18573,0.442616,0.021472,0.781776,21.420000,61.389999,-3.850000,21.35
18584,0.427976,0.035624,0.799832,25.129999,64.190002,-3.220000,21.35
18595,0.410408,0.059048,0.820816,27.299999,65.730003,-3.430000,21.32
18606,0.394792,0.085888,0.849608,25.760000,67.269997,-2.520000,21.32
18617,0.386984,0.107360,0.881328,23.100000,68.599998,-2.380000,21.27
18628,0.373808,0.089792,0.879864,23.660000,69.720001,-3.080000,21.27
18639,0.355752,0.075152,0.857416,24.990000,70.769997,-4.200000,21.27
18650,0.333304,0.064416,0.852536,28.280001,72.099998,-5.250000,21.28
18661,0.325984,0.124928,0.897920,24.430000,72.730003,-3.780000,21.28
18671,0.312808,0.135176,0.948672,18.480000,73.220001,-3.080000,21.34
18682,0.282064,0.166896,0.989176,14.420000,72.730003,-2.170000,21.31
18693,0.261568,0.183488,1.012112,8.610000,70.279999,-1.260000,21.31
18704,0.254248,0.165920,1.007720,3.290000,67.760002,-1.400000,21.35
18715,0.252784,0.147864,1.000888,-2.170000,66.779999,-0.910000,21.35
18726,0.242048,0.099552,1.006744,-4.270000,65.870003,-0.700000,21.30
18737,0.235216,0.083936,1.038952,-4.340000,65.449997,0.070000,21.21
18748,0.209352,0.085400,1.071648,0.140000,64.190002,-0.070000,21.21
18759,0.199592,0.042456,1.086288,7.630000,62.230000,-1.960000,21.27
18770,0.183488,0.029768,1.097512,18.760000,59.990002,-3.360000,21.27
18780,0.163480,0.021960,1.093120,30.520000,56.910000,-6.650000,21.30
18791,0.154208,0.068808,1.082384,41.790001,54.950001,-8.750000,21.30
18802,0.156160,0.130296,1.084824,44.939999,53.970001,-8.890000,21.32
18813,0.179096,0.178120,1.085312,40.529999,53.830002,-11.550000,21.29
18825,0.073200,0.191296,1.135576,39.200001,43.540001,-9.660000,21.29
18836,0.142008,0.273768,1.170712,31.709999,42.840000,-10.710000,21.32
18846,0.124928,0.269376,1.207312,21.910000,42.209999,-9.240000,21.32
18857,0.090768,0.269376,1.236104,0.070000,37.099998,-7.700000,21.31
18868,0.091744,0.261568,1.242448,12.390000,33.040001,-6.090000,21.32
18879,0.083448,0.223504,1.227320,9.240000,29.820000,-6.510000,21.32
18890,0.077592,0.189832,1.216096,10.710000,25.830000,-6.650000,21.34
18901,0.077592,0.174704,1.195600,14.070000,22.889999,-7.140000,21.34
18912,0.074176,0.191784,1.194624,15.540000,19.600000,-7.070000,21.32
18923,0.068320,0.217648,1.189256,15.120000,15.750000,-7.630000,21.31
18934,0.066856,0.226920,1.192184,12.460000,12.250000,-7.490000,21.31
18945,0.067344,0.233264,1.220976,4.200000,9.450000,-6.860000,21.31
18956,0.068320,0.241560,1.243912,-1.890000,6.860000,-5.950000,21.31
18967,0.057096,0.223992,1.253184,-4.550000,3.150000,-5.460000,21.30
18978,0.062464,0.201056,1.256600,-2.800000,0.630000,-5.670000,21.30
18989,0.052216,0.199592,1.258552,-1.190000,-3.150000,-5.250000,21.31
19000,0.061488,0.223992,1.253184,-0.630000,-5.950000,-3.990000,21.26
19012,0.051728,0.226920,1.243912,3.290000,-8.680000,-4.270000,21.26
19023,0.052704,0.223016,1.227808,6.230000,-11.200000,-3.570000,21.29
19034,0.060512,0.250832,1.219512,6.650000,-13.090000,-2.590000,21.29
19045,0.061976,0.276696,1.247328,2.310000,-15.120000,-0.840000,21.26
19056,0.071736,0.287432,1.292712,-6.580000,-17.430000,0.070000,21.28
19067,0.069296,0.286944,1.338584,-12.950000,-20.090000,1.470000,21.28
19078,0.056608,0.273280,1.408856,-20.230000,-24.290001,3.430000,21.34
19089,0.051240,0.281576,1.481080,-27.090000,-30.660000,4.690000,21.34
19100,0.035624,0.248880,1.521584,-28.209999,-38.220001,4.340000,21.31
19111,0.030744,0.175192,1.593320,-25.549999,-45.080002,3.990000,21.38
19122,0.012688,0.157136,1.590392,-15.960000,-54.740002,2.660000,21.38
19133,0.007808,0.172264,1.562088,-9.240000,-66.010002,2.660000,21.33
19144,0.023424,0.222040,1.488888,-5.040000,-76.510002,2.380000,21.33
19155,0.049288,0.299144,1.448384,-11.270000,-84.699997,4.760000,21.32
19166,0.067832,0.373808,1.422032,-23.240000,-93.660004,5.950000,21.27
19177,0.082472,0.348432,1.413248,-34.020000,-103.320000,7.420000,21.27
19188,0.100528,0.313296,1.389336,-40.180000,-113.120003,8.960000,21.30
19199,0.130296,0.293776,1.340048,-44.939999,-118.720001,9.730000,21.30
19210,0.134688,0.250832,1.251232,-43.049999,-126.769997,10.500000,21.30
19221,0.174704,0.171776,1.166320,-37.520000,-132.720001,10.220000,21.30
19232,0.187392,0.134200,1.051640,-28.770000,-135.940002,10.430000,21.31
19243,0.218624,0.118584,0.907192,-18.270000,-139.580002,10.780000,21.29
19254,0.266936,0.121024,0.816424,-12.600000,-139.300003,10.640000,21.29
19265,0.302560,0.124928,0.724192,-7.840000,-137.479996,11.620000,21.29
19277,0.348432,0.141032,0.660264,-5.600000,-134.960007,14.210000,21.29
19288,0.384056,0.136152,0.588528,-3.360000,-130.410004,15.400000,21.33
19299,0.429440,0.103456,0.519720,0.350000,-122.150002,15.190000,21.29
19310,0.449936,0.032696,0.431392,6.300000,-113.610001,15.400000,21.29
19320,0.466040,0.032208,0.394304,8.400000,-106.540001,16.870001,21.32
19332,0.487512,0.068320,0.369416,7.700000,-96.180000,16.309999,21.32
19343,0.496784,0.082472,0.337208,4.340000,-85.050003,15.820000,21.32
19353,0.496784,0.068320,0.289872,-1.260000,-77.279999,15.470000,21.27
19365,0.504592,0.031232,0.254248,-4.620000,-67.410004,14.560000,21.27
19376,0.513864,0.014152,0.253272,-8.890000,-57.330002,13.650000,21.34
19387,0.521672,0.055632,0.283040,-16.170000,-47.810001,13.510000,21.34
19398,0.529480,0.029280,0.299632,-18.690001,-38.849998,11.620000,21.30
19409,0.526552,0.011712,0.304024,-21.420000,-32.060001,10.430000,21.30
19420,0.530944,-0.016592,0.325008,-23.379999,-24.219999,9.450000,21.30
19431,0.540216,-0.036600,0.348920,-21.770000,-16.660000,8.120000,21.36
19442,0.545096,-0.048312,0.368928,-18.340000,-10.850000,6.790000,21.36
19453,0.546560,-0.064904,0.393816,-13.860000,-3.920000,5.670000,21.28
19464,0.547048,-0.085400,0.408456,-4.690000,2.380000,3.920000,21.28
19475,0.538752,-0.074664,0.437248,1.470000,7.980000,2.590000,21.27
19486,0.539240,-0.060024,0.447008,9.450000,11.830000,1.330000,21.27
19497,0.543632,-0.046848,0.455792,16.309999,16.660000,0.140000,21.27
19508,0.548024,-0.009760,0.481168,18.480000,21.770000,-0.770000,21.30
19519,0.555344,0.048800,0.543632,15.120000,25.270000,-0.840000,21.30
19530,0.548512,0.064416,0.595360,13.160000,28.840000,-0.770000,21.32
19542,0.531432,0.079544,0.631472,9.800000,31.290001,0.280000,21.32
19553,0.531432,0.062952,0.647088,9.240000,33.040001,-0.070000,21.32
19564,0.529480,0.044408,0.649528,11.620000,35.000000,-0.210000,21.32
19575,0.539240,0.056120,0.660264,13.370000,37.380001,-0.560000,21.32
19586,0.533384,0.067344,0.668072,14.630000,39.759998,-0.350000,21.29
19597,0.533872,0.057584,0.662704,17.430000,42.980000,-1.120000,21.32
19608,0.530456,0.060024,0.670024,19.950001,46.619999,-1.750000,21.32
19619,0.527528,0.094184,0.724192,17.850000,48.860001,17.570000,21.31
19630,0.522160,0.164944,0.764208,13.160000,51.169998,0.560000,21.31
19641,0.507520,0.198128,0.783728,8.540000,53.689999,2.310000,21.35
19652,0.490928,0.172264,0.778848,3.780000,54.880001,3.430000,21.30
19663,0.480192,0.127368,0.748592,6.090000,56.630001,2.450000,21.30
19674,0.485072,0.083936,0.749080,6.720000,60.270000,2.030000,21.33
19684,0.488976,0.046848,0.807640,11.130000,62.790001,1.890000,21.33
19695,0.475800,0.089792,0.861320,12.670000,65.730003,2.800000,21.32
19706,0.450912,0.091744,0.894504,14.840000,67.550003,2.520000,21.32
19717,0.423584,0.093208,0.892552,16.799999,68.389999,2.870000,21.29
19728,0.392840,0.064904,0.869128,21.139999,68.529999,1.890000,21.24
19739,0.397232,0.078568,0.875960,18.830000,70.209999,2.240000,21.24
19750,0.385032,0.114192,0.905728,14.910000,71.820000,2.310000,21.31
19761,0.359168,0.155184,0.934032,7.490000,73.080002,2.870000,21.31
19772,0.337696,0.164944,0.943792,-1.820000,73.709999,3.080000,21.31
19783,0.319152,0.108824,0.916464,-6.160000,74.480003,2.100000,21.30
19794,0.308904,0.035136,0.933544,-6.020000,74.900002,1.540000,21.30
19805,0.305000,0.021960,0.984784,-3.150000,75.739998,1.470000,21.32
19815,0.289872,0.044896,1.030656,-2.240000,75.529999,1.330000,21.32
19827,0.264496,0.026352,1.089216,1.750000,74.129997,0.140000,21.34
19838,0.239608,0.027328,1.102880,8.540000,71.540001,-1.120000,21.29
19849,0.222528,0.017080,1.083848,15.400000,68.949997,-3.290000,21.29
19860,0.205936,0.008784,1.026752,26.389999,67.269997,-7.000000,21.32
19871,0.196664,0.004392,0.994544,36.470001,66.150002,-9.100000,21.32
19882,0.200080,0.095648,1.017968,38.080002,65.870003,-10.150000,21.31
19892,0.198616,0.134200,1.044320,35.910000,66.220001,-10.920000,21.31
19903,0.185440,0.154696,1.059936,32.340000,66.010002,-10.570000,21.32
19914,0.177144,0.142496,1.078968,31.219999,64.820000,-10.710000,21.34
19925,0.163480,0.196176,1.089704,29.750000,64.050003,-10.080000,21.34
19936,0.145912,0.274256,1.143872,18.549999,61.250000,-8.540000,21.34
19947,0.149328,0.240096,1.174128,10.080000,59.919998,-8.610000,21.34
19958,0.127856,0.190808,1.169248,7.280000,58.380001,-8.470000,21.34
19969,0.105408,0.154696,1.151192,9.380000,56.349998,-8.400000,21.29
19980,0.084424,0.157624,1.160464,10.850000,53.619999,-8.120000,21.29
19991,0.071736,0.197640,1.193160,9.590000,50.610001,-7.210000,21.32
20001,0.049288,0.224480,1.232200,7.140000,47.669998,-6.720000,21.32
20012,0.038552,0.207888,1.251720,7.000000,43.400002,-5.880000,21.32
20023,0.029768,0.184464,1.274168,9.380000,39.060001,-5.180000,21.32
20034,0.020008,0.207400,1.317600,9.100000,32.200001,-3.570000,21.32
20045,0.019520,0.243512,1.366888,5.950000,25.900000,-2.590000,21.29
20056,-0.001952,0.249368,1.446432,3.430000,18.900000,-1.890000,21.29
20068,-0.020496,0.280600,1.506456,0.700000,10.010000,-1.050000,21.32
20079,-0.034160,0.298656,1.578192,-5.460000,2.030000,0.980000,21.32
20090,-0.050264,0.332816,1.605032,-12.740000,-8.960000,2.030000,21.31
20101,-0.061488,0.313296,1.581608,-17.920000,-20.510000,2.940000,21.29
20112,-0.068320,0.287920,1.532808,-23.520000,-29.820000,3.710000,21.29
20123,-0.049776,0.247904,1.511336,-30.030001,-40.810001,4.970000,21.35
20134,-0.031232,0.232776,1.498160,-34.509998,-50.189999,4.620000,21.35
20145,-0.028792,0.214720,1.515240,-38.290001,-59.500000,4.970000,21.30
20156,-0.030744,0.209352,1.534272,-41.160000,-70.209999,4.620000,21.29
20167,-0.025864,0.184464,1.520120,-42.209999,-78.959999,5.040000,21.29
20178,-0.001952,0.152256,1.484984,-38.849998,-88.830002,4.970000,21.28
20190,0.016104,0.179584,1.468880,-38.570000,-97.160004,5.530000,21.28
20201,0.020984,0.225944,1.438136,-41.509998,-106.820000,6.370000,21.33
20212,0.039040,0.228872,1.385432,-47.669998,-113.050003,5.670000,21.32
20223,0.050264,0.170800,1.334680,-49.700001,-120.330002,5.040000,21.32
20234,0.078568,0.136152,1.251232,-48.860001,-127.610001,5.040000,21.29
20244,0.119072,0.109800,1.165832,-46.689999,-131.949997,4.970000,21.29
20256,0.157624,0.097112,1.074576,-43.470001,-135.100006,4.130000,21.31
20267,0.189832,0.081984,1.016016,-39.970001,-137.059998,4.130000,21.31
20278,0.217648,0.052704,0.936472,-34.650002,-138.460007,3.430000,21.31
20289,0.249856,0.022936,0.836432,-26.180000,-138.880005,3.640000,21.30
20300,0.281088,0.004880,0.726144,-14.630000,-137.479996,3.150000,21.30
20311,0.321104,-0.007808,0.511912,-3.290000,-134.470001,3.640000,21.36
20322,0.355752,-0.040016,0.516792,7.070000,-128.169998,2.870000,21.36
20333,0.386496,-0.032208,0.433344,16.520000,-122.150002,4.410000,21.31
20344,0.443104,-0.012200,0.381616,21.280001,-111.650002,4.480000,21.26
20355,0.466528,-0.024888,0.332328,24.150000,-100.449997,4.830000,21.26
20366,0.490928,0.008296,0.288896,22.260000,-73.080002,5.670000,21.30
20377,0.508008,0.001464,0.268888,19.250000,-77.910004,5.880000,21.30
20388,0.522648,0.027328,0.267912,12.530000,-65.449997,6.510000,21.35
20399,0.530456,0.069784,0.290848,3.780000,-54.040001,7.350000,21.30
20410,0.542656,0.084912,0.313296,-9.450000,-45.290001,8.050000,21.30
20421,0.549976,0.078568,0.320128,-22.190001,-34.790001,8.960000,21.36
20432,0.547048,0.009272,0.315736,-27.790001,-25.059999,8.400000,21.36
20443,0.547048,-0.053192,0.324520,-29.190001,-17.920000,7.210000,21.31
20454,0.540216,-0.093696,0.360144,-26.600000,-9.520000,6.090000,21.34
20465,0.540704,-0.094672,0.404064,-20.930000,-2.100000,4.900000,21.34
20476,0.540704,-0.121024,0.459208,-12.460000,3.640000,3.430000,21.33
20487,0.549976,-0.126392,0.501664,-2.380000,8.750000,2.520000,21.33
20498,0.555832,-0.122976,0.528016,7.700000,12.390000,0.980000,21.34
20509,0.557296,-0.103456,0.539240,16.170000,16.870001,0.000000,21.32
20520,0.564128,-0.040504,0.570472,17.709999,21.070000,0.560000,21.32
20531,0.556808,-0.009272,0.616344,17.150000,24.010000,0.490000,21.29
20542,0.549000,-0.010248,0.644160,16.660000,26.950001,0.420000,21.29
20553,0.541680,-0.006344,0.690520,15.470000,28.350000,1.050000,21.36
20564,0.544120,0.010736,0.745664,13.230000,29.190001,1.260000,21.36
20574,0.537776,0.022936,0.762256,11.620000,30.450001,1.330000,21.35
20585,0.531432,0.022448,0.757376,10.570000,31.290001,1.540000,21.32
20596,0.523136,0.006832,0.743224,10.780000,32.759998,1.050000,21.32
20606,0.515328,-0.028792,0.722240,13.930000,34.720001,0.070000,21.32
20617,0.512888,-0.037576,0.691496,20.790001,36.610001,-1.400000,21.32
20628,0.528992,-0.019520,0.700768,22.959999,40.529999,-1.330000,21.28
20639,0.527040,0.053680,0.714920,22.680000,44.869999,-1.890000,21.28
20650,0.510936,0.090280,0.754448,19.040001,47.810001,-0.490000,21.29
20661,0.501176,0.133712,0.794464,10.500000,50.259998,0.840000,21.31
20672,0.476776,0.116632,0.815448,2.660000,52.080002,1.960000,21.31
20683,0.467504,0.082960,0.854488,-1.750000,53.130001,3.010000,21.34
20694,0.450912,0.026840,0.865712,-1.190000,54.389999,2.520000,21.34
20705,0.443104,-0.019032,0.894016,2.310000,55.860001,3.080000,21.32
20716,0.424560,-0.004392,0.906216,7.630000,56.349998,2.240000,21.32
20727,0.403576,0.001464,0.900360,11.970000,56.770000,1.680000,21.32
20738,0.389424,-0.000488,0.912560,16.309999,57.189999,0.840000,21.34
20749,0.366488,0.010248,0.912560,20.020000,56.630001,-0.490000,21.34
20759,0.352824,0.026352,0.913048,20.440001,56.070000,-0.560000,21.30
20770,0.343064,0.037576,0.907680,20.510000,56.209999,-1.680000,21.30
20781,0.337696,0.030256,0.894504,18.340000,56.209999,-1.890000,21.31
20792,0.335256,0.035136,0.878400,17.360001,57.189999,-2.590000,21.30
20803,0.326960,0.019032,0.875472,17.360001,59.080002,-3.710000,21.30
20814,0.318664,0.061000,0.888160,16.730000,59.990002,-4.200000,21.33
20825,0.311832,0.089792,0.894992,11.900000,61.669998,-4.200000,21.33
20836,0.294752,0.087352,0.896944,6.860000,63.490002,-4.900000,21.33
20847,0.273768,0.096136,0.896944,3.150000,64.889999,-4.900000,21.28
20858,0.262056,0.103944,0.915000,-3.430000,66.010002,-3.430000,21.28
20869,0.264008,0.132248,0.974048,-12.460000,67.480003,-1.820000,21.35
20880,0.245952,0.143960,1.002840,-20.930000,68.879997,-0.700000,21.35
20891,0.217648,0.122000,1.019432,-25.690001,68.739998,0.070000,21.32
20902,0.194712,0.049288,0.986736,-23.170000,68.669998,-2.030000,21.33
20913,0.175680,-0.044408,0.939400,-9.520000,69.300003,-4.410000,21.33
20924,0.143960,-0.126880,0.896456,7.770000,69.089996,-8.190000,21.34
20935,0.147376,-0.130296,0.936472,28.910000,68.739998,-9.240000,21.34
20946,0.155184,-0.028304,1.052128,41.930000,69.019997,-8.470000,21.33
20957,0.130296,0.103456,1.124352,45.919998,68.040001,-7.980000,21.33
20968,0.111752,0.194224,1.161928,42.000000,66.220001,-7.560000,21.29
20979,0.103944,0.188856,1.165832,36.540001,65.239998,-8.680000,21.31
20990,0.082472,0.148352,1.148752,35.349998,64.120003,-9.800000,21.31
21001,0.067832,0.167872,1.175592,31.150000,62.580002,-8.470000,21.34
21012,0.043920,0.192760,1.245376,24.780001,60.480000,-8.470000,21.34
21023,-0.050752,0.208864,1.343952,14.910000,58.590000,-11.900000,21.29
21034,-0.020008,0.223504,1.346880,2.310000,57.750000,-7.350000,21.35
21045,-0.097112,0.167384,1.364936,3.360000,37.240002,-2.730000,21.35
21056,0.049288,0.167384,1.382504,1.610000,37.799999,-6.650000,21.37
21067,-0.034648,0.109312,1.410320,4.620000,33.110001,-5.880000,21.37
21078,-0.029280,0.161040,1.458632,7.140000,25.480000,-7.070000,21.36
21090,-0.045872,0.182024,1.496208,6.160000,19.110001,-5.110000,21.35
21101,-0.072224,0.223992,1.517192,3.290000,9.800000,-5.110000,21.35
21112,-0.064904,0.214720,1.557696,-2.800000,0.630000,-4.410000,21.31
21123,-0.071248,0.208864,1.595272,-8.190000,-10.150000,-4.200000,21.31
21134,-0.076128,0.207888,1.609912,-13.860000,-20.719999,-3.850000,21.33
21145,-0.083448,0.211304,1.639192,-18.270000,-32.619999,-2.800000,21.34
21157,-0.079056,0.164456,1.633336,-19.320000,-42.000000,-3.920000,21.34
21168,-0.080032,0.140056,1.626504,-15.750000,-52.990002,-4.130000,21.32
21179,-0.073200,0.146888,1.602104,-10.010000,-63.070000,-5.320000,21.32
21190,-0.071248,0.193736,1.564040,-10.010000,-74.199997,-5.670000,21.35
21202,-0.058072,0.201544,1.517680,-12.530000,-84.980003,-6.160000,21.32
21213,-0.034648,0.219112,1.502552,-19.530001,-94.220001,-4.410000,21.32
21224,-0.021960,0.207400,1.496208,-24.570000,-102.339996,-3.920000,21.35
21235,-0.039528,0.220576,1.455216,-29.959999,-115.849998,-3.220000,21.35
21247,0.032208,0.203496,1.412760,-34.650002,-122.639999,-0.140000,21.31
21258,0.044896,0.184952,1.326384,-37.380001,-128.240005,-1.120000,21.32
21269,0.043432,0.123464,1.221464,-34.930000,-136.919998,-2.590000,21.32
21280,0.081984,0.115656,1.143384,-30.520000,-141.190002,-2.450000,21.31
21291,0.145912,0.132736,1.058960,-26.459999,-139.229996,-2.800000,21.31
21303,0.105408,0.132248,0.977464,-23.590000,-149.380005,-0.770000,21.31
21314,0.223504,0.118096,0.885232,-20.510000,-148.050003,2.940000,21.29
21325,0.240584,0.087352,0.769088,-15.400000,-145.600006,2.870000,21.29
21336,0.278160,0.040016,0.649528,-8.050000,-142.100006,2.940000,21.32
21347,0.353312,0.019032,0.570960,1.400000,-133.630005,2.590000,21.32
21358,0.342576,-0.021472,0.451400,11.900000,-130.479996,3.150000,21.30
21369,0.401624,-0.016592,0.373808,21.280001,-125.089996,5.460000,21.29
21380,0.453352,0.005856,0.314272,27.370001,-112.629997,6.650000,21.29
21392,0.480192,0.030256,0.306952,24.990000,-100.449997,8.470000,21.34
21403,0.505568,0.077592,0.297680,20.790001,-88.620003,10.010000,21.34
21413,0.509472,0.095648,0.278160,13.650000,-75.949997,11.410000,21.34
21424,0.527528,0.132248,0.280112,-0.840000,-65.519997,13.020000,21.32
21435,0.527528,0.083448,0.271816,-8.750000,-53.060001,11.760000,21.32
21446,0.518744,0.015616,0.257664,-11.550000,-41.860001,10.710000,21.32
21457,0.532896,-0.057096,0.275232,-6.580000,-32.830002,9.100000,21.32
21468,0.534848,-0.148352,0.306464,8.820000,-23.870001,7.000000,21.34
21479,0.544120,-0.119560,0.364048,22.260000,-15.400000,6.300000,21.34
21490,0.550464,-0.086376,0.402112,32.060001,-7.280000,5.040000,21.31
21502,0.541680,-0.032208,0.425536,38.779999,-2.030000,4.970000,21.32
21513,0.545096,0.031720,0.455792,38.150002,3.990000,5.390000,21.32
21523,0.543144,0.083936,0.491904,33.180000,9.800000,5.530000,21.29
21534,0.546560,0.098576,0.551440,23.379999,13.860000,7.070000,21.29
21545,0.543632,0.108824,0.588040,13.230000,18.480000,7.560000,21.35
21556,0.529968,0.075640,0.614392,6.650000,22.049999,7.840000,21.30
21566,0.524600,0.004880,0.644160,5.740000,24.219999,6.860000,21.30
21577,0.524112,-0.014640,0.673928,6.370000,26.180000,6.720000,21.30
21588,0.535824,-0.031232,0.711016,8.260000,28.209999,5.320000,21.30
21599,0.533872,-0.029280,0.745664,10.780000,30.309999,4.410000,21.36
21610,0.535336,-0.020496,0.767624,12.600000,31.850000,3.290000,21.36
21621,0.527040,-0.004880,0.775920,15.820000,32.270000,1.960000,21.32
21632,0.520208,-0.004392,0.765672,17.990000,33.180000,0.420000,21.33
21642,0.521672,0.004392,0.759816,19.040001,35.070000,-1.820000,21.33
21653,0.516304,0.000000,0.754448,20.650000,36.820000,-3.850000,21.34
21664,0.527040,0.022936,0.768112,17.850000,39.549999,-4.340000,21.34
21675,0.522648,0.082960,0.802272,11.690000,42.419998,-4.270000,21.36
21686,0.512400,0.115656,0.812520,2.870000,44.660000,-4.690000,21.35
21697,0.493856,0.119072,0.806176,-6.230000,46.759998,-4.760000,21.35
21708,0.482144,0.089304,0.791536,-12.320000,49.070000,-4.900000,21.37
21719,0.480680,0.080032,0.800320,-16.590000,51.380001,-4.200000,21.37
21730,0.480680,0.062952,0.813984,-17.500000,53.340000,-4.130000,21.31
21741,0.457744,0.072712,0.805688,-17.360001,56.279999,-4.550000,21.31
21752,0.440664,0.042944,0.782752,-16.730000,58.869999,-5.250000,21.31
21763,0.430904,0.010736,0.779336,-10.640000,60.759998,-6.370000,21.30
21774,0.429928,0.045384,0.841312,-10.990000,62.580002,-3.780000,21.30
21785,0.420168,0.136152,0.911584,-16.940001,64.400002,-1.120000,21.34
21796,0.394304,0.181536,0.969656,-28.070000,64.750000,0.840000,21.34
21807,0.364536,0.165920,0.974536,-38.220001,63.770000,2.380000,21.35
21818,0.342576,0.079056,0.938912,-39.619999,63.419998,1.890000,21.33
21829,0.319152,-0.069784,0.817888,-28.350000,63.560001,-1.960000,21.33
21840,0.294752,-0.100528,0.817888,-18.690001,62.930000,-0.350000,21.33
21851,0.309880,-0.088328,0.823744,-5.040000,64.610001,-1.050000,21.33
21862,0.304512,-0.053680,0.879376,0.420000,66.849998,0.350000,21.36
21873,0.285968,0.001952,0.956968,5.250000,66.779999,0.140000,21.30
21884,0.268888,0.032208,0.985760,8.750000,66.430000,0.280000,21.30
21895,0.257664,0.013176,0.981856,12.880000,66.639999,0.070000,21.34
21906,0.234240,0.010736,0.964776,18.830000,65.800003,-1.680000,21.34
21917,0.225456,-0.039528,0.950136,28.980000,66.150002,-3.220000,21.32
21927,0.205936,-0.018544,0.956480,39.970001,66.360001,-4.900000,21.32
21939,0.193248,-0.000488,0.953552,47.529999,67.199997,-6.090000,21.34
21950,0.179096,0.083936,0.996008,49.070000,67.900002,-4.830000,21.34
21961,0.152744,0.142496,1.019432,46.970001,67.059998,-4.620000,21.34
21972,0.137128,0.195200,1.012112,38.570000,65.589996,-4.060000,21.34
21983,0.132736,0.141032,1.001376,36.049999,65.309998,-5.040000,21.34
21994,0.119072,0.120048,1.009184,37.029999,65.519997,-4.760000,21.31
22005,0.101016,0.131272,1.027240,39.900002,64.889999,-5.110000,21.32
22016,0.093696,0.151768,1.074576,40.110001,64.540001,-3.990000,21.32
22026,0.078080,0.172752,1.135576,36.470001,63.980000,-2.730000,21.29
22037,0.047336,0.217648,1.191208,28.629999,62.020000,-0.980000,21.29
22048,0.034160,0.207400,1.250744,24.780001,59.570000,-0.350000,21.35
22059,-0.070760,0.269376,1.303936,23.450001,52.220001,-7.140000,21.34
22070,0.038552,0.270352,1.321504,9.660000,63.840000,-2.380000,21.34
22081,-0.136640,0.201056,1.352736,8.750000,41.790001,2.660000,21.27
22092,-0.008784,0.227896,1.417640,5.040000,36.750000,1.540000,21.27
22103,-0.044896,0.220088,1.503040,-3.290000,31.570000,2.310000,21.33
22113,-0.077592,0.200080,1.611376,-5.460000,19.250000,0.980000,21.33
22124,-0.067344,0.167872,1.673352,-4.970000,12.600000,-0.140000,21.32
22136,-0.117608,0.139568,1.691896,-0.560000,-0.210000,-0.980000,21.30
22147,-0.105408,0.167384,1.682624,2.240000,-12.530000,-2.100000,21.30
22158,-0.118584,0.200568,1.664080,3.990000,-25.480000,-4.900000,21.36
22169,-0.111752,0.284992,1.662128,-1.750000,-34.720001,-4.480000,21.36
22180,-0.115168,0.300120,1.669448,-10.150000,-46.549999,-4.410000,21.35
22191,-0.106872,0.288896,1.661640,-17.290001,-59.639999,-4.270000,21.31
22202,-0.083936,0.231800,1.623088,-21.350000,-70.559998,-4.970000,21.31
22214,-0.077592,0.192760,1.601128,-23.100000,-82.110001,-6.160000,21.34
22225,-0.066368,0.214232,1.573800,-22.889999,-90.860001,-7.700000,21.34
22236,-0.051728,0.210816,1.538664,-23.799999,-100.940002,-8.190000,21.33
22247,-0.022936,0.221552,1.379576,-23.730000,-109.269997,-7.980000,21.31
22259,-0.045384,0.256200,1.451800,-26.600000,-123.059998,-4.550000,21.31
22270,0.032208,0.368928,1.442040,-36.820000,-125.650002,-1.050000,21.34
22281,-0.001952,0.406992,1.403488,-52.990002,-133.630005,-1.120000,21.34
22292,0.021472,0.343552,1.307352,-64.680000,-145.809998,-1.540000,21.30
22304,0.088816,0.218136,1.165344,-66.220001,-152.949997,-2.100000,21.29
22315,0.173240,0.075640,1.030656,-57.119999,-153.089996,-2.590000,21.29
22326,0.205936,-0.023912,0.872544,-43.049999,-153.300003,-3.710000,21.32
22337,0.242536,-0.064904,0.715896,-20.160000,-152.809998,-5.530000,21.32
22348,0.310368,-0.055144,0.592432,1.120000,-148.470001,-6.090000,21.32
22359,0.322568,-0.040992,0.518744,20.580000,-143.919998,-5.250000,21.26
22370,0.386008,0.033672,0.467992,26.809999,-134.330002,-4.550000,21.26
22381,0.382592,0.074176,0.410408,30.730000,-127.260002,-1.050000,21.35
22392,0.421144,0.096136,0.360632,29.540001,-115.080002,2.030000,21.35
22405,0.443104,0.123952,0.299144,22.750000,-100.519997,3.710000,21.35
22415,0.444080,0.109312,0.263032,14.560000,-89.739998,3.570000,21.34
22426,0.493368,0.066856,0.228384,7.980000,-76.230003,3.360000,21.34
22437,0.506544,0.066368,0.220088,-2.100000,-63.770000,3.500000,21.32
22448,0.547048,0.073200,0.233264,-14.210000,-46.200001,3.500000,21.32
22459,0.429440,0.119072,0.249368,-21.910000,-40.740002,-2.240000,21.36
22470,0.418704,0.020984,0.256688,-28.910000,-39.759998,2.520000,21.34
22481,0.508496,0.013664,0.267912,-33.459999,-24.080000,5.600000,21.34
22492,0.532896,-0.040992,0.282552,-34.020000,-7.770000,3.780000,21.34
22503,0.487512,-0.120048,0.310856,-23.660000,-2.310000,0.630000,21.34
22514,0.513864,-0.109312,0.376248,-13.930000,2.590000,-0.700000,21.33
22525,0.509472,-0.081984,0.436760,-4.410000,9.800000,-2.030000,21.29
22536,0.496296,-0.055144,0.464088,2.100000,16.520000,-0.140000,21.29
22547,0.523624,-0.009272,0.496784,5.600000,19.459999,-1.050000,21.33
22558,0.534360,-0.013664,0.514352,9.170000,25.059999,-2.030000,21.33
22569,0.534360,-0.037576,0.528016,13.720000,31.150000,-2.170000,21.34
22580,0.529480,-0.027816,0.561200,15.890000,33.320000,-2.520000,21.34
22592,0.538264,-0.004392,0.609512,17.500000,36.959999,-2.240000,21.32
22603,0.542168,0.033672,0.645624,15.680000,41.090000,-1.540000,21.35
22614,0.525576,0.049288,0.656848,13.580000,44.450001,-1.610000,21.35
22624,0.519720,0.062464,0.677344,11.480000,46.970001,-1.330000,21.37
22635,0.516792,0.043920,0.677832,11.200000,49.490002,-1.890000,21.37
22646,0.511912,0.029280,0.688568,10.710000,53.619999,-1.750000,21.31
22657,0.500200,0.074664,0.734440,8.050000,56.630001,-0.420000,21.29
22668,0.488976,0.125416,0.777384,1.680000,58.520000,1.120000,21.29
22679,0.467016,0.166896,0.793488,-8.050000,61.180000,2.520000,21.36
22690,0.457256,0.136640,0.784704,-14.070000,64.260002,3.500000,21.36
22701,0.432368,0.076128,0.747616,-15.330000,66.080002,3.500000,21.37
22712,0.447008,0.069784,0.759328,-20.860001,70.910004,4.620000,21.32
22723,0.436272,0.130784,0.807640,-30.520000,76.160004,8.680000,21.32
22733,0.416752,0.185440,0.890112,-45.009998,79.379997,11.970000,21.31
22744,0.373320,0.269864,0.962824,-65.589996,80.150002,15.960000,21.31
22755,0.345016,0.205936,1.012112,-79.870003,79.169998,19.180000,21.28
22766,0.336720,0.084424,1.010160,-86.379997,78.260002,20.160000,21.28
22777,0.315248,-0.110776,0.989664,-77.209999,76.650002,19.809999,21.32
22788,0.283040,-0.290848,0.919880,-58.099998,76.089996,16.100000,21.37
22799,0.268400,-0.313784,0.967216,-38.080002,74.760002,15.120000,21.37
22810,0.244000,-0.310856,0.981856,-10.710000,74.760002,12.250000,21.36
22821,0.220088,-0.287432,0.997472,8.820000,72.660004,9.310000,21.36
22831,0.202032,-0.239120,1.021384,31.500000,70.629997,5.810000,21.33
22842,0.200568,-0.181536,1.028216,48.509998,67.760002,3.640000,21.29
22853,0.204472,-0.058560,1.111176,49.000000,65.099998,4.270000,21.29
22864,0.189344,0.025864,1.166808,42.840000,63.000000,3.430000,21.31
22875,0.178120,0.066856,1.181448,30.379999,61.389999,3.080000,21.31
22886,0.140544,0.054656,1.149240,21.000000,58.380001,2.730000,21.30
22897,0.130784,-0.015128,1.074088,15.470000,56.070000,0.700000,21.30
22908,0.119560,-0.070272,1.019920,17.990000,54.180000,-1.540000,21.35
22919,0.125416,-0.097112,1.047736,21.840000,53.410000,-2.450000,21.35
22930,0.119072,-0.068808,1.089704,29.120001,51.869999,-3.430000,21.35
22941,0.046360,-0.033184,1.160952,32.970001,44.169998,-9.520000,21.34
22952,0.144448,0.018544,1.158024,27.299999,58.869999,-6.580000,21.34
22963,0.001464,0.004880,1.152168,32.060001,42.560001,-4.550000,21.30
22974,0.105408,0.067832,1.152656,30.730000,41.580002,-6.160000,21.30
22985,0.081008,0.066368,1.144848,25.690001,43.680000,-7.070000,21.30
22995,0.052704,0.084424,1.157536,21.629999,38.570000,-5.950000,21.34
23006,0.078568,0.087840,1.171688,15.260000,38.360001,-6.580000,21.34
23017,0.057584,0.057584,1.159488,13.650000,37.099998,-7.280000,21.36
23028,0.043432,0.015128,1.162416,18.270000,34.020000,-7.700000,21.36
23039,0.035136,0.016104,1.197552,21.350000,30.940001,-7.490000,21.31
23050,0.038552,0.043432,1.241472,23.799999,28.770000,-7.840000,21.31
23061,0.021472,0.096624,1.273680,23.450001,25.200001,-7.910000,21.31
23072,0.017080,0.127856,1.295640,19.879999,21.770000,-7.560000,21.34
23083,0.002440,0.150304,1.332728,14.350000,18.480000,-6.860000,21.34
23093,-0.024888,0.174216,1.386896,7.350000,13.790000,-5.600000,21.31
23105,-0.046360,0.183488,1.480104,-2.450000,8.470000,-4.200000,21.34
23116,-0.074176,0.178608,1.536712,-9.660000,-0.980000,-4.760000,21.34
23127,-0.075640,0.117608,1.567456,-12.250000,-10.920000,-5.460000,21.34
23138,-0.085400,0.067344,1.607960,-12.040000,-21.980000,-5.670000,21.34
23149,-0.107360,0.069784,1.653344,-9.590000,-36.189999,-6.580000,21.35
23160,-0.110288,0.101504,1.714344,-9.800000,-47.459999,-6.510000,21.32
23172,-0.118096,0.125416,1.727520,-12.460000,-63.349998,-7.490000,21.32
23183,-0.106384,0.123952,1.701656,-16.660000,-78.330002,-7.910000,21.32
23194,-0.084912,0.125904,1.681648,-20.860001,-92.400002,-8.750000,21.32
23205,-0.076616,0.157136,1.654808,-26.740000,-106.889999,-8.960000,21.30
23217,-0.066368,0.188368,1.639192,-37.169998,-121.099998,-9.100000,21.38
23228,-0.054168,0.163968,1.565992,-45.150002,-131.600006,-10.080000,21.38
23239,-0.016592,0.146888,1.490840,-51.660000,-142.380005,-9.800000,21.33
23250,0.013176,0.063440,1.376648,-48.230000,-150.500000,-11.690000,21.33
23261,0.024400,-0.002928,1.199992,-39.970001,-162.820007,-13.020000,21.32
23273,0.125904,-0.041968,1.026752,-24.709999,-160.160004,-12.250000,21.34
23284,0.164944,-0.041968,0.859368,-8.120000,-158.339996,-14.420000,21.34
23295,0.207400,-0.041968,0.744688,8.470000,-158.690002,-16.309999,21.33
23306,0.297680,-0.036112,0.611464,20.160000,-153.789993,-16.450001,21.33
23317,0.343064,-0.007808,0.528016,30.799999,-144.059998,-11.970000,21.31
23328,0.416264,0.027328,0.463112,34.860001,-132.649994,-6.580000,21.31
23339,0.517768,0.135664,0.426024,24.010000,-110.320000,-5.740000,21.31
23350,0.366488,0.152744,0.361608,17.709999,-114.449997,-5.810000,21.30
23361,0.480192,0.165432,0.309392,4.970000,-107.169998,3.150000,21.30
23372,0.582672,0.173240,0.295728,-15.680000,-79.730003,7.770000,21.34
23383,0.515328,0.173240,0.281088,-34.020000,-66.290001,7.070000,21.34
23394,0.511912,0.137128,0.284016,-48.160000,-58.590000,6.370000,21.30
23405,0.521672,0.054656,0.290848,-56.070000,-49.349998,6.790000,21.33
23416,0.515328,-0.031720,0.283040,-56.070000,-37.590000,8.470000,21.33
23427,0.526064,-0.141032,0.278648,-45.990002,-27.440001,6.930000,21.40
23438,0.537776,-0.180072,0.307928,-34.439999,-18.340000,4.550000,21.40
23449,0.548512,-0.183000,0.354288,-18.830000,-10.710000,4.410000,21.34
23460,0.539728,-0.135176,0.393816,-6.790000,-1.960000,4.270000,21.34
23471,0.528504,-0.080520,0.445056,-1.330000,3.500000,4.340000,21.34
23482,0.525088,-0.072224,0.463112,4.410000,6.160000,3.710000,21.31
23493,0.542168,-0.070272,0.472872,9.030000,11.200000,3.360000,21.31
23504,0.546560,-0.068320,0.493856,11.690000,17.010000,3.850000,21.34
23515,0.556808,-0.083448,0.515328,15.330000,21.209999,3.990000,21.30
23526,0.554368,-0.099552,0.532896,19.180000,26.320000,3.920000,21.30
23537,0.552416,-0.074176,0.563640,20.790001,31.010000,4.340000,21.31
23548,0.548024,-0.032208,0.615856,20.090000,34.160000,5.390000,21.31
23559,0.531920,-0.023912,0.660752,18.830000,37.310001,5.880000,21.32
23570,0.512400,-0.023912,0.685640,18.200001,40.320000,5.950000,21.32
23580,0.502152,-0.039040,0.706624,19.459999,42.139999,5.810000,21.33
23591,0.497760,-0.058560,0.705648,23.660000,44.450001,5.390000,21.31
23603,0.502152,-0.065392,0.717360,26.180000,48.020000,4.970000,21.31
23614,0.464088,-0.053192,0.724192,30.170000,50.470001,3.710000,21.34
23625,0.467992,-0.029768,0.719800,33.459999,52.639999,3.430000,21.34
23635,0.446032,-0.030256,0.718336,35.490002,55.090000,3.430000,21.34
23646,0.445056,0.008784,0.745664,34.930000,58.169998,3.780000,21.30
23657,0.433832,0.031232,0.752984,34.160000,60.340000,3.500000,21.30
23668,0.421632,0.055144,0.733952,32.410000,63.980000,3.010000,21.30
23678,0.408456,0.049288,0.710528,30.940001,68.320000,3.360000,21.30
23689,0.402112,0.094184,0.752496,22.750000,72.029999,5.320000,21.33
23700,0.381616,0.165432,0.794464,13.580000,75.949997,7.700000,21.33
23711,0.368928,0.170800,0.843264,-0.770000,78.610001,11.060000,21.30
23722,0.342576,0.162504,0.878400,-13.160000,80.919998,13.440000,21.30
23733,0.306952,0.100040,0.887184,-18.480000,82.459999,14.770000,21.30
23743,0.282064,0.012688,0.852536,-16.730000,83.300003,14.630000,21.30
23754,0.257176,-0.031720,0.832040,-10.220000,84.279999,14.700000,21.30
23765,0.254736,-0.040504,0.835944,-4.410000,86.449997,15.400000,21.36
23776,0.240584,0.114680,0.920856,-3.150000,88.620003,17.780001,21.29
23787,0.183000,0.003416,0.990152,-1.820000,88.830002,16.799999,21.29
23798,0.139568,-0.012688,1.053104,4.620000,83.089996,16.730000,21.33
23808,0.134688,0.018544,1.070184,9.170000,80.150002,17.219999,21.33
23819,0.137128,-0.103456,1.067744,20.090000,78.610001,15.050000,21.33
23830,0.124928,-0.114192,1.080920,30.870001,76.650002,14.070000,21.33
23841,0.102968,-0.072712,1.072624,43.049999,74.690002,12.530000,21.30
23852,0.092720,-0.007320,1.110688,45.570000,72.309998,12.110000,21.30
23863,0.082960,0.000000,1.147288,46.340000,70.769997,12.670000,21.30
23873,0.187880,0.101504,1.199992,39.410000,76.089996,8.330000,21.29
23884,-0.014640,0.093208,1.258064,33.110001,66.080002,7.350000,21.29
23895,-0.017568,0.131760,1.311744,25.900000,53.689999,8.680000,21.36
23906,0.074664,0.117120,1.346880,14.630000,53.970001,5.880000,21.32
23917,-0.006344,0.047824,1.381040,12.740000,46.480000,3.220000,21.32
23928,0.012200,0.004392,1.395680,17.290001,40.389999,0.980000,21.30
23939,0.008784,-0.000976,1.403000,22.330000,34.790001,-0.700000,21.30
23950,-0.004392,0.022936,1.404952,25.830000,29.120001,-2.660000,21.34
23961,-0.025864,0.081984,1.428376,24.990000,22.959999,-4.060000,21.34
23972,-0.036600,0.142496,1.463512,18.549999,17.430000,-4.900000,21.39
23983,-0.054168,0.161040,1.481080,9.870000,10.640000,-6.370000,21.33
23994,-0.067344,0.134688,1.499624,4.200000,2.520000,-7.700000,21.33
24005,-0.064904,0.110288,1.513776,0.420000,-4.130000,-8.540000,21.36
24016,-0.066856,0.122488,1.533296,-3.290000,-11.550000,-9.100000,21.36
24027,-0.071736,0.148352,1.559160,-7.210000,-19.879999,-9.730000,21.35
24039,-0.074176,0.145424,1.558184,-10.150000,-28.840000,-10.990000,21.33
24050,-0.074176,0.118096,1.575752,-11.270000,-38.430000,-11.830000,21.33
24061,-0.072712,0.107848,1.589904,-8.400000,-47.810001,-12.390000,21.36
24072,-0.064904,0.126392,1.582584,-6.720000,-55.860001,-12.180000,21.36
24083,-0.048312,0.176656,1.574288,-9.170000,-65.730003,-11.410000,21.36
24094,-0.017568,0.221552,1.579656,-15.050000,-75.040001,-11.130000,21.32
24105,-0.000488,0.268400,1.623576,-29.750000,-83.580002,-8.400000,21.32
24116,0.019520,0.282552,1.640656,-46.060001,-94.220001,-7.140000,21.31
24127,0.022448,0.272304,1.610400,-62.090000,-104.860001,-5.740000,21.31
24138,0.021472,0.192272,1.529880,-70.000000,-116.059998,-6.510000,21.32
24150,0.044408,0.133712,1.434720,-75.320000,-124.459999,-7.560000,21.29
24161,0.020496,0.057096,1.319064,-71.260002,-137.410004,-10.430000,21.29
24172,0.100528,-0.021472,1.219024,-60.759998,-139.229996,-8.820000,21.32
24183,0.103456,-0.049288,1.077992,-48.860001,-142.589996,-11.900000,21.32
24194,0.112728,-0.040504,0.943792,-32.060001,-148.470001,-14.560000,21.37
24205,0.186904,0.001464,0.816912,-20.090000,-151.059998,-16.450001,21.38
24216,0.239120,0.034648,0.723704,-11.480000,-147.839996,-13.720000,21.38
24227,0.304024,0.073688,0.588040,-7.140000,-138.039993,-10.150000,21.39
24238,0.365024,0.107360,0.467504,-8.680000,-125.930000,-10.220000,21.39
24249,0.300608,0.096624,0.375272,-10.150000,-128.660004,-9.100000,21.34
24260,0.429928,0.061976,0.324520,-11.830000,-116.339996,-3.500000,21.32
24271,0.501176,0.058560,0.280600,-15.680000,-91.419998,3.080000,21.32
24282,0.447984,0.034648,0.240584,-17.500000,-83.580002,2.520000,21.33
24293,0.483120,0.001952,0.230824,-16.799999,-75.529999,1.330000,21.33
24304,0.521672,-0.037088,0.245952,-15.190000,-63.770000,3.150000,21.34
24315,0.534360,-0.051728,0.260592,-10.430000,-53.549999,6.370000,21.34
24326,0.553880,-0.053192,0.284992,-8.120000,-41.439999,7.770000,21.33
24337,0.552416,-0.031720,0.320128,-7.630000,-30.660000,7.980000,21.32
24349,0.540216,-0.040992,0.358680,-7.070000,-20.510000,8.400000,21.32
24360,0.534360,-0.048312,0.391864,-7.140000,-11.830000,9.310000,21.35
24371,0.530456,-0.083448,0.416752,-6.440000,-6.230000,8.890000,21.35
24382,0.529480,-0.092232,0.447008,-5.600000,-1.050000,8.680000,21.32
24393,0.538264,-0.109312,0.477264,-4.480000,5.320000,7.630000,21.37
24404,0.535824,-0.149816,0.510936,-0.140000,11.620000,6.300000,21.37
24415,0.521672,-0.142496,0.559248,3.430000,15.470000,6.580000,21.36
24426,0.513864,-0.144936,0.602192,7.910000,18.549999,6.090000,21.36
24438,0.504104,-0.130296,0.630984,13.230000,20.440001,4.760000,21.33
24449,0.503616,-0.123464,0.651968,15.960000,22.610001,3.850000,21.30
24460,0.512400,-0.101992,0.672952,16.450001,25.270000,3.430000,21.30
24471,0.499224,-0.085400,0.694912,16.030001,27.020000,2.870000,21.34
24482,0.500688,-0.061488,0.725168,11.900000,29.120001,3.360000,21.34
24492,0.487512,-0.034648,0.767136,8.120000,30.030001,3.710000,21.33
24503,0.484584,-0.021472,0.788608,2.520000,30.730000,4.200000,21.33
24514,0.470920,-0.030256,0.792512,-2.030000,31.219999,4.060000,21.33
24525,0.466040,-0.064416,0.774944,-3.220000,31.990000,3.570000,21.34
24536,0.460184,-0.097112,0.754448,-0.070000,32.830002,2.520000,21.34
24547,0.465064,-0.096624,0.739808,4.060000,35.139999,2.170000,21.35
24558,0.469944,-0.084424,0.747128,5.810000,38.150002,2.380000,21.35
24569,0.485560,-0.033672,0.772992,3.220000,41.230000,3.150000,21.34
24580,0.469944,0.020984,0.773480,0.000000,45.009998,2.940000,21.37
24591,0.457256,0.038552,0.749568,-4.060000,48.580002,3.500000,21.37
24602,0.444080,0.037088,0.719312,-10.990000,51.380001,4.690000,21.35
24612,0.439200,0.012688,0.749568,-20.090000,54.669998,7.000000,21.35
24625,0.443592,0.080032,0.851560,-36.820000,57.119999,13.160000,21.35
24636,0.439200,0.095160,0.894504,-56.419998,61.110001,16.170000,21.31
24647,0.407480,0.012688,0.893528,-65.029999,64.330002,18.270000,21.31
24658,0.371856,-0.050264,0.861808,-67.690002,65.800003,19.389999,21.30
24669,0.343552,-0.164944,0.826184,-58.660000,67.620003,18.549999,21.30
24680,0.328424,-0.212280,0.823256,-51.169998,68.879997,20.230000,21.34
24691,0.323056,-0.216184,0.863272,-40.669998,70.769997,20.440001,21.36
24701,0.281576,-0.211792,0.894016,-30.100000,72.309998,20.090000,21.36
24712,0.261568,-0.198616,0.943792,-24.360001,71.820000,20.020000,21.34
24723,0.244488,-0.240584,0.955992,-13.930000,71.540001,17.360001,21.34
24734,0.221552,-0.278160,0.946232,0.630000,70.000000,14.700000,21.32
24745,0.223016,-0.315248,0.919880,15.190000,68.949997,11.200000,21.32
24756,0.217648,-0.313296,0.933544,31.990000,68.529999,9.940000,21.31
24767,0.231312,-0.248392,1.025776,39.900002,68.669998,10.080000,21.27
24778,0.204472,-0.188368,1.059448,46.689999,69.440002,7.490000,21.27
24789,0.172264,-0.135176,1.062864,48.020000,66.919998,5.670000,21.31
24800,0.155184,-0.134688,1.037488,49.490002,65.099998,3.430000,21.31
24811,0.144936,-0.146888,0.997472,52.290001,64.400002,0.700000,21.32
24822,0.137616,-0.168848,0.970632,56.139999,65.940002,-2.170000,21.29
24833,0.110288,-0.136152,1.039440,54.950001,67.339996,-1.540000,21.29
24843,0.135664,-0.053680,1.094584,46.830002,71.889999,-2.660000,21.30
24854,0.051240,-0.032696,1.183400,42.770000,60.480000,1.260000,21.30
24865,0.138104,-0.011224,1.223904,34.090000,62.650002,-17.850000,21.33
24876,0.068320,-0.041480,1.225368,30.870001,61.950001,-1.750000,21.33
24887,0.054168,-0.096136,1.228784,32.270000,57.820000,-2.450000,21.32
24898,0.041968,-0.082472,1.247816,35.490002,55.720001,-3.430000,21.29
24909,-0.001952,-0.032696,1.278560,34.439999,50.889999,-2.730000,21.29
24920,-0.016592,-0.005856,1.340048,30.240000,44.660000,-1.680000,21.36
24931,-0.026352,-0.008784,1.410808,27.370001,37.310001,-2.240000,21.36
24942,-0.034648,0.029280,1.473272,20.650000,30.450001,-2.100000,21.33
24954,-0.035136,0.022448,1.540616,12.740000,22.750000,-2.380000,21.30
24965,-0.057584,0.017568,1.586488,6.650000,13.720000,-2.870000,21.30
24976,-0.081496,0.008784,1.619184,4.130000,3.500000,-3.990000,21.31
24987,-0.094184,0.017568,1.615280,3.150000,-4.620000,-5.320000,21.31
24998,-0.102968,0.048800,1.592832,0.280000,-15.750000,-5.950000,21.32
25009,-0.106872,0.085400,1.584048,-7.140000,-27.860001,-7.140000,21.39
25020,-0.101016,0.037088,1.571848,-17.639999,-37.590000,-9.170000,21.39
25031,-0.081496,0.003416,1.547448,-24.290001,-47.250000,-9.940000,21.34
25042,-0.072712,-0.018056,1.536712,-27.790001,-57.189999,-11.270000,21.34
25053,-0.061000,-0.039040,1.527440,-29.049999,-66.919998,-12.390000,21.36
25065,-0.047336,-0.018544,1.530856,-31.150000,-76.930000,-14.210000,21.29
25076,-0.035136,-0.027328,1.526952,-33.320000,-87.290001,-15.890000,21.29
25087,-0.020008,-0.071736,1.489376,-31.080000,-96.320000,-18.620001,21.35
25099,-0.007808,-0.100040,1.410808,-23.240000,-102.760002,-20.719999,21.35
25110,0.003416,-0.054168,1.320528,-17.850000,-110.459999,-21.070000,21.36
25121,0.006832,0.018056,1.254160,-20.930000,-119.209999,-20.650000,21.33
25132,0.063928,0.056608,1.206336,-27.650000,-124.599998,-18.200001,21.33
25143,0.104432,0.056608,1.161440,-35.980000,-124.599998,-17.360001,21.38
25155,0.113704,0.031232,1.081408,-39.689999,-128.660004,-18.129999,21.38
25166,0.166408,0.010248,0.999912,-39.830002,-133.910004,-20.020000,21.36
25177,0.201056,-0.030744,0.920856,-33.880001,-135.589996,-22.049999,21.35
25188,0.245464,-0.058560,0.820816,-27.090000,-134.190002,-19.250000,21.35
25199,0.286944,-0.087352,0.725168,-15.050000,-129.990005,-18.059999,21.35
25210,0.340136,-0.094184,0.628056,-1.050000,-121.169998,-17.850000,21.35
25221,0.345504,-0.085400,0.562176,12.670000,-117.739998,-18.410000,21.38
25232,0.354776,-0.077104,0.499224,23.590000,-116.620003,-16.450001,21.36
25243,0.428464,-0.068808,0.455792,32.549999,-106.470001,-11.130000,21.36
25254,0.489464,-0.001952,0.429440,33.880001,-89.599998,-4.970000,21.36
25265,0.468480,0.033672,0.417728,31.219999,-83.720001,-1.890000,21.36
25276,0.515328,0.080032,0.405528,22.610001,-76.860001,0.770000,21.33
25287,0.517280,0.073688,0.392840,12.180000,-66.639999,3.220000,21.37
25298,0.532408,0.063928,0.391864,2.730000,-56.700001,7.910000,21.37
25309,0.543144,0.064904,0.400160,-9.590000,-48.860001,9.870000,21.33
25319,0.535336,0.031720,0.390400,-19.250000,-39.970001,10.920000,21.33
25330,0.551440,-0.040504,0.368928,-24.430000,-29.820000,12.180000,21.37
25341,0.552416,-0.138592,0.365512,-22.330000,-21.139999,11.760000,21.37
25352,0.546072,-0.172752,0.372344,-14.420000,-12.880000,11.200000,21.36
25364,0.549488,-0.213744,0.399184,-3.150000,-5.110000,9.590000,21.34
25375,0.554856,-0.211792,0.423096,9.030000,2.240000,7.980000,21.34
25386,0.557784,-0.198128,0.455792,17.010000,9.240000,6.650000,21.38
25397,0.542168,-0.178120,0.470432,26.530001,15.890000,5.530000,21.38
25408,0.539240,-0.157136,0.484584,31.150000,21.770000,4.830000,21.35
25420,0.539728,-0.122976,0.528504,31.780001,27.790001,4.060000,21.32
25431,0.525576,-0.088328,0.562176,29.049999,33.040001,3.850000,21.32
25442,0.510936,-0.081496,0.598776,25.480000,36.119999,3.570000,21.34
25453,0.508496,-0.077104,0.632936,21.350000,40.950001,3.500000,21.34
25464,0.490440,-0.091744,0.645136,19.389999,44.730000,3.150000,21.39
25475,0.485560,-0.066368,0.691008,14.840000,47.810001,4.060000,21.32
25486,0.470920,-0.045384,0.731024,10.430000,50.119999,3.920000,21.32
25497,0.453840,-0.043432,0.744688,6.160000,51.730000,4.130000,21.36
25508,0.450424,-0.061000,0.752984,3.290000,54.040001,4.060000,21.36
25519,0.446032,-0.089792,0.760304,1.750000,55.720001,3.710000,21.37
25530,0.445544,-0.085888,0.801296,-0.560000,57.750000,3.570000,21.34
25541,0.435296,-0.081984,0.832528,-2.940000,59.849998,3.220000,21.34
25551,0.426512,-0.085400,0.857416,-6.020000,60.689999,3.710000,21.32
25562,0.418216,-0.093208,0.887184,-9.590000,61.669998,3.850000,21.32
25573,0.390888,-0.100040,0.894504,-10.920000,62.509998,2.730000,21.30
25584,0.372344,-0.131760,0.881816,-10.360000,63.209999,1.540000,21.30
25595,0.356728,-0.184952,0.873032,-5.460000,63.910000,0.210000,21.38
25606,0.338184,-0.219112,0.881328,2.730000,64.680000,-1.540000,21.34
25617,0.334768,-0.188856,0.928176,8.610000,65.870003,-1.960000,21.34
25628,0.316224,-0.152744,0.959896,17.360001,66.570000,-4.130000,21.36
25639,0.288896,-0.119072,0.955016,26.320000,66.989998,-5.950000,21.36
25650,0.267424,-0.113704,0.925248,34.090000,66.220001,-7.910000,21.39
25661,0.267912,-0.089792,0.915000,40.669998,66.430000,-8.680000,21.29
25672,0.269376,-0.050264,0.939888,42.349998,68.180000,-9.030000,21.29
25683,0.254248,0.019520,0.974536,39.830002,70.000000,-8.120000,21.37
25694,0.230336,0.088328,1.004792,34.720001,69.510002,-6.440000,21.37
25705,0.203984,0.107848,1.003328,26.950001,68.669998,-5.250000,21.34
25716,0.189344,0.083448,0.990640,20.719999,67.900002,-4.620000,21.34
25727,0.185440,0.051240,0.986736,17.150000,67.830002,-2.380000,21.31
25737,0.196176,0.079544,1.048712,9.940000,69.650002,-0.350000,21.35
25748,0.253760,0.136152,1.108248,-0.490000,73.290001,1.470000,21.35
25759,0.122000,0.120536,1.174128,-8.470000,67.199997,4.130000,21.30
25770,0.079056,0.101504,1.198528,-13.090000,59.360001,6.090000,21.30
25781,0.120048,0.075152,1.175592,-17.990000,60.200001,6.020000,21.32
25792,0.056120,-0.014640,1.138504,-16.240000,54.950001,5.880000,21.33
25803,0.072224,-0.087840,1.139480,-7.700000,51.730000,4.760000,21.33
25814,0.071248,-0.096624,1.163880,2.520000,48.650002,4.480000,21.37
25825,0.066368,-0.061000,1.213656,8.750000,44.939999,4.550000,21.37
25836,0.050752,-0.035136,1.255136,14.490000,41.439999,3.500000,21.32
25847,0.045384,-0.025864,1.266360,17.850000,36.330002,2.800000,21.36
25858,0.040504,-0.028792,1.265384,20.370001,32.060001,1.400000,21.36
25869,0.039528,-0.041968,1.248792,23.100000,29.049999,0.210000,21.32
25880,0.036600,-0.035136,1.237080,24.850000,26.180000,-0.140000,21.32
25891,0.028792,0.015128,1.257576,21.070000,23.450001,0.420000,21.37
25902,0.016592,0.055144,1.293200,15.750000,19.950001,0.140000,21.37
25912,-0.002440,0.063440,1.342488,5.670000,15.750000,0.840000,21.36
25923,-0.002928,0.044896,1.378600,-1.890000,11.200000,0.840000,21.33
25934,-0.013664,0.006344,1.407392,-3.290000,5.110000,-0.210000,21.33
25946,-0.022448,-0.024400,1.426424,-4.970000,-0.490000,-0.490000,21.37
25957,-0.017080,-0.031720,1.460584,-5.040000,-6.300000,-1.960000,21.37
25969,-0.036112,-0.031720,1.486936,-4.200000,-14.070000,-3.500000,21.32
25980,-0.041968,-0.024888,1.515728,-5.600000,-22.820000,-3.850000,21.29
25991,-0.035624,-0.061976,1.501088,-0.560000,-29.260000,-6.510000,21.29
26002,-0.055144,-0.026352,1.470832,4.620000,-38.290001,-7.560000,21.35
26013,-0.053192,0.029280,1.469368,6.790000,-45.430000,-8.750000,21.35
26024,-0.051728,0.092232,1.507432,0.910000,-54.950001,-8.820000,21.36
26035,-0.014640,0.100528,1.526952,-10.360000,-63.770000,-9.380000,21.36
26047,0.006832,0.045872,1.522072,-15.050000,-72.940002,-11.410000,21.36
26058,0.009760,0.056120,1.519144,-21.770000,-81.059998,-11.060000,21.35
26069,0.023912,0.046848,1.501088,-26.389999,-89.599998,-10.990000,21.35
26080,0.034648,0.064416,1.491328,-30.870001,-97.720001,-10.430000,21.37
26091,0.043432,0.032696,1.454728,-32.340000,-105.769997,-10.430000,21.33
26102,0.040016,0.028792,1.396656,-32.060001,-117.669998,-12.180000,21.33
26113,0.069296,0.005368,1.318088,-28.000000,-119.629997,-10.850000,21.36
26124,0.091744,0.052216,1.250744,-27.370001,-124.320000,-10.710000,21.36
26135,0.108336,0.068320,1.191208,-27.719999,-133.070007,-11.690000,21.31
26147,0.151768,0.040504,1.107272,-29.750000,-139.369995,-14.210000,21.33
26158,0.193248,-0.007320,1.009672,-26.530001,-141.539993,-14.280000,21.33
26169,0.241560,-0.039528,0.901824,-18.620001,-139.580002,-13.370000,21.37
26180,0.258640,-0.055632,0.819352,-8.960000,-139.300003,-13.160000,21.37
26191,0.263032,-0.049288,0.729072,2.800000,-144.479996,-13.510000,21.33
26202,0.329888,-0.049288,0.620248,11.970000,-140.770004,-9.940000,21.27
26213,0.394304,-0.047336,0.514352,22.540001,-125.860001,-7.210000,21.27
26224,0.378200,-0.062952,0.436760,32.830002,-118.440002,-6.720000,21.33
26235,0.422608,-0.031232,0.353312,38.220001,-113.050003,-5.460000,21.33
26246,0.457744,-0.022448,0.299144,40.459999,-106.120003,-2.310000,21.32
26257,0.492880,0.000000,0.267912,39.900002,-95.480003,1.050000,21.37
26268,0.531432,0.029768,0.254736,18.059999,-82.110001,4.130000,21.37
26279,0.540704,0.043432,0.254248,27.580000,-72.169998,6.160000,21.33
26290,0.558760,0.061976,0.270840,14.350000,-59.080002,8.400000,21.33
26301,0.566568,0.082472,0.278648,3.010000,-45.709999,9.940000,21.34
26312,0.560712,0.082472,0.299632,-12.040000,-36.820000,11.550000,21.34
26323,0.560224,0.064904,0.303536,-25.690001,-25.969999,11.900000,21.36
26334,0.550952,-0.006344,0.310368,-32.340000,-17.430000,11.410000,21.31
26345,0.559248,-0.082960,0.348920,-37.310001,-10.220000,10.850000,21.31
26356,0.553880,-0.156160,0.378688,-31.500000,-1.750000,9.870000,21.39
26367,0.553880,-0.207400,0.410408,-20.860001,4.970000,8.680000,21.39
26378,0.563152,-0.226432,0.436760,-9.450000,10.850000,6.300000,21.36
26389,0.563640,-0.236192,0.460184,5.880000,15.050000,3.290000,21.32
26400,0.569984,-0.193248,0.516792,13.580000,19.950001,3.010000,21.32
26411,0.556808,-0.120048,0.589016,18.059999,23.450001,1.540000,21.34
26422,0.543144,-0.070272,0.628056,19.040001,24.639999,1.400000,21.34
26433,0.540704,-0.080032,0.644648,19.040001,26.950001,0.420000,21.36
26443,0.530944,-0.097112,0.649528,20.230000,28.070000,-0.420000,21.36
26454,0.535824,-0.100528,0.638304,21.000000,29.400000,-1.400000,21.32
26465,0.549488,-0.124928,0.631960,22.959999,32.689999,-2.730000,21.32
26476,0.560712,-0.095648,0.640256,23.870001,36.400002,-3.430000,21.32
26487,0.563152,-0.090280,0.645136,25.620001,40.529999,-4.690000,21.35
26499,0.563640,-0.087352,0.627568,28.980000,45.360001,-6.090000,21.35
26510,0.554856,-0.098088,0.603656,34.580002,49.700001,-8.050000,21.33
26521,0.556320,-0.064904,0.645136,33.880001,55.509998,-7.000000,21.32
26532,0.534360,0.058560,0.704672,29.260000,61.110001,-5.880000,21.32
26543,0.499224,0.149816,0.758352,18.690001,64.120003,-3.710000,21.33
26554,0.478240,0.146888,0.770064,8.750000,67.059998,-2.590000,21.33
26565,0.437736,0.148352,0.746152,1.400000,70.070000,-1.050000,21.36
26576,0.427976,0.071248,0.679296,-0.630000,73.290001,-0.980000,21.32
26587,0.406016,-0.009760,0.634888,4.200000,78.050003,-1.190000,21.32
26598,0.409920,-0.017080,0.658800,7.350000,83.370003,0.210000,21.37
26608,0.419192,0.055144,0.797880,3.220000,89.040001,3.780000,21.37
26619,0.390888,0.110776,0.915976,-1.470000,91.629997,5.530000,21.39
26630,0.351360,0.151280,0.969656,-9.170000,92.260002,9.660000,21.39
26641,0.312808,0.121512,0.964288,-11.760000,91.839996,11.480000,21.38
26652,0.265960,0.042944,0.927688,-10.010000,90.160004,11.550000,21.34
26663,0.248392,-0.030744,0.896456,-3.010000,89.110001,11.690000,21.34
26674,0.244000,-0.068320,0.909144,4.340000,89.529999,11.760000,21.35
26685,0.243512,-0.078080,0.932568,12.740000,90.720001,10.220000,21.35
26696,0.218136,-0.073688,0.999424,20.930000,90.019997,10.920000,21.34
26707,0.204472,0.008784,1.081896,22.049999,88.480003,11.690000,21.34
26718,0.174704,0.031232,1.154608,21.420000,85.330002,12.040000,21.34
26729,0.162504,0.058560,1.199504,17.150000,80.500000,12.810000,21.35
26739,0.142008,0.003416,1.201456,17.500000,76.089996,10.850000,21.35
26750,0.123464,-0.040504,1.175104,21.139999,71.820000,8.890000,21.34
26761,0.112240,-0.072712,1.140944,29.190001,67.760002,6.580000,21.32
26772,0.105896,-0.065880,1.139480,34.160000,64.680000,5.670000,21.32
26783,0.096624,-0.036112,1.168760,39.340000,61.950001,3.640000,21.36
26794,0.093696,-0.008784,1.206824,41.020000,58.099998,3.080000,21.36
26805,0.079544,0.060024,1.274656,38.220001,53.689999,2.380000,21.37
26816,0.142984,0.136640,1.330776,29.330000,54.110001,2.170000,21.37
26826,0.028304,0.104920,1.397632,20.580000,46.619999,2.590000,21.30
26837,0.022936,0.149816,1.440576,13.930000,37.590000,3.290000,21.35
26848,0.045872,0.139568,1.472784,3.010000,35.560001,2.170000,21.35
26859,-0.004392,0.054656,1.484984,0.140000,27.580000,1.540000,21.37
26870,-0.001464,0.001464,1.484008,3.850000,20.860001,-0.140000,21.37
26881,-0.020008,0.019032,1.477664,10.220000,14.560000,-1.680000,21.37
26892,-0.032696,0.084424,1.502552,9.940000,5.530000,-1.960000,21.32
26903,-0.032208,0.141032,1.534760,1.820000,-3.780000,-2.310000,21.32
26914,-0.031720,0.147864,1.583560,-7.840000,-12.880000,-2.380000,21.36
26925,-0.034160,0.139080,1.613816,-17.780001,-20.860001,-3.010000,21.36
26936,-0.040992,0.113216,1.616744,-23.799999,-31.850000,-3.850000,21.35
26947,-0.031232,0.096136,1.608936,-27.860001,-42.419998,-4.410000,21.35
26958,-0.018544,0.064416,1.578680,-28.559999,-51.029999,-6.090000,21.33
26970,-0.010248,0.000000,1.537200,-23.379999,-57.750000,-9.660000,21.30
26981,-0.014640,-0.036600,1.478152,-11.060000,-66.849998,-11.970000,21.30
26992,0.001952,0.036112,1.417152,-2.520000,-74.900002,-12.460000,21.36
27003,0.027328,0.111752,1.383968,-3.010000,-82.180000,-12.320000,21.36
27014,0.042456,0.172264,1.361032,-8.050000,-89.110001,-12.250000,21.34
27025,0.071248,0.188368,1.347368,-16.799999,-94.010002,-11.830000,21.34
27036,0.078080,0.166408,1.304424,-23.170000,-100.309998,-11.410000,21.34
27047,0.094184,0.150792,1.230248,-27.790001,-107.309998,-10.640000,21.36
27058,0.108336,0.110288,1.142896,-30.379999,-111.370003,-10.850000,21.36
27069,0.127368,0.081008,1.054080,-30.660000,-116.690002,-10.010000,21.34
27081,0.169336,0.021960,0.996496,-26.950001,-118.160004,-8.890000,21.37
27092,0.203008,0.039040,0.954040,-23.100000,-118.160004,-8.610000,21.37
27103,0.203496,0.002928,0.875960,-15.190000,-119.629997,-9.310000,21.39
27114,0.247416,-0.119560,0.772016,-5.670000,-119.629997,-9.450000,21.39
27125,0.261080,-0.025376,0.670512,6.020000,-118.019997,-9.310000,21.35
27136,0.302072,-0.013176,0.592432,16.240000,-114.589996,-8.050000,21.36
27147,0.337208,0.008296,0.527040,21.559999,-108.290001,-6.580000,21.36
27158,0.377224,0.025376,0.497272,22.889999,-101.779999,-4.690000,21.39
27169,0.406504,0.037576,0.478240,23.870001,-93.730003,-3.150000,21.39
27180,0.412360,0.032208,0.444568,23.590000,-87.430000,-0.280000,21.35
27191,0.433832,0.031720,0.420656,21.559999,-80.779999,1.400000,21.36
27202,0.462136,0.045872,0.415288,15.890000,-72.099998,3.150000,21.36
27212,0.482632,0.091256,0.420656,8.260000,-64.330002,4.970000,21.34
27223,0.491904,0.123952,0.425536,-3.990000,-54.250000,6.090000,21.34
27234,0.496296,0.127368,0.426024,-14.350000,-45.150002,7.420000,21.34
27245,0.504592,0.072712,0.430416,-23.590000,-38.220001,7.630000,21.34
27256,0.520696,0.027816,0.450912,-28.910000,-30.590000,8.120000,21.34
27267,0.533872,-0.002440,0.470920,-31.360001,-22.330000,8.750000,21.34
27278,0.532408,-0.047336,0.505080,-28.280001,-16.799999,7.910000,21.34
27289,0.528016,-0.061000,0.546072,-22.889999,-10.570000,7.420000,21.38
27300,0.535336,-0.101992,0.578768,-14.280000,-5.670000,6.580000,21.38
27311,0.543632,-0.103944,0.621224,-7.140000,-1.330000,5.390000,21.34
27322,0.549488,-0.092232,0.655872,1.680000,1.120000,4.340000,21.31
27333,0.554856,-0.071248,0.665144,6.510000,4.200000,3.360000,21.31
27344,0.555344,-0.056120,0.666608,8.680000,6.930000,2.240000,21.36
27355,0.567056,-0.026352,0.698816,5.390000,9.730000,2.940000,21.36
27365,0.566080,0.000000,0.730048,0.420000,12.810000,2.520000,21.37
27376,0.552904,-0.015616,0.754936,-3.010000,15.330000,1.330000,21.37
27387,0.548024,-0.052704,0.759816,-5.040000,17.150000,0.630000,21.37
27398,0.530944,-0.083448,0.756888,-3.430000,17.920000,0.140000,21.36
27409,0.536800,-0.117608,0.741760,0.560000,19.740000,-1.820000,21.36
27420,0.528992,-0.151768,0.699304,9.380000,22.400000,-4.760000,21.34
27431,0.530944,-0.157136,0.670512,18.900000,25.340000,-7.280000,21.34
27442,0.531432,-0.137128,0.647576,28.280001,30.030001,-9.240000,21.38
27453,0.523136,-0.051728,0.638304,30.590000,35.279999,-10.150000,21.34
27464,0.518744,-0.026352,0.626592,30.240000,39.830002,-11.690000,21.34
27475,0.505080,-0.004880,0.625616,27.440001,45.430000,-12.110000,21.41
27486,0.489464,0.020984,0.637816,24.639999,50.330002,-12.320000,21.41
27497,0.480192,0.028792,0.638304,20.090000,54.740002,-10.920000,21.34
27507,0.476288,0.107360,0.678808,7.770000,59.779999,-8.260000,21.36
27518,0.455304,0.167872,0.711504,-4.270000,64.959999,-6.160000,21.36
27529,0.437736,0.159088,0.714432,-17.780001,69.160004,-3.500000,21.32
27540,0.408456,0.178608,0.693936,-31.430000,73.989998,-0.630000,21.32
27551,0.384544,0.122976,0.677832,-38.919998,77.769997,2.310000,21.39
27562,0.372832,0.084912,0.680272,-47.110001,81.410004,4.690000,21.39
27572,0.347456,-0.006344,0.692960,-46.689999,85.889999,5.740000,21.41
27583,0.338184,-0.071736,0.771528,-41.580002,107.099998,8.050000,21.29
27594,0.319640,-0.042944,0.878888,-32.270000,91.070000,10.220000,21.29
27605,0.298168,-0.064904,0.929152,-18.549999,91.629997,10.850000,21.34
27616,0.269864,-0.098576,0.923296,-3.780000,91.349998,10.430000,21.34
27627,0.241560,-0.128832,0.852048,18.480000,91.139999,8.260000,21.30
27638,0.218624,-0.137616,0.826672,38.220001,91.910004,6.930000,21.36
27649,0.203496,-0.116144,0.840824,53.270000,94.220001,4.200000,21.36
27660,0.190808,-0.038552,0.940376,61.250000,94.709999,6.020000,21.36
27670,0.169336,0.079056,1.020408,59.150002,95.199997,6.300000,21.36
27681,0.140056,0.142008,1.080920,52.919998,93.239998,7.140000,21.39
27692,0.127856,0.142984,1.077992,43.820000,91.070000,6.440000,21.39
27703,0.103456,0.100040,1.076528,38.220001,88.410004,6.370000,21.37
27713,0.101016,0.116632,1.139968,27.790001,87.220001,9.030000,21.34
27724,0.070760,0.144448,1.194624,15.540000,85.190002,10.990000,21.34
27735,0.047336,0.171288,1.278072,2.940000,82.110001,15.610000,21.33
27745,0.107848,0.197640,1.301008,-12.530000,84.139999,13.440000,21.33
27756,-0.038552,0.078080,1.332240,-17.570000,73.290001,14.070000,21.32
27767,-0.032208,0.020984,1.381528,-15.890000,64.470001,14.140000,21.32
27778,-0.004392,-0.034160,1.432768,-9.800000,62.230000,11.200000,21.36
27789,-0.058560,-0.036600,1.520608,-3.920000,53.060001,10.990000,21.31
27800,-0.080032,-0.010248,1.614304,-1.190000,44.590000,11.060000,21.31
27811,-0.101016,0.001464,1.645536,1.890000,34.160000,9.240000,21.36
27822,-0.115168,-0.022448,1.621136,7.980000,23.240000,6.300000,21.36
27834,-0.134688,0.054656,1.609912,10.780000,12.460000,3.710000,21.31
27844,-0.148352,0.094672,1.631872,4.760000,2.800000,2.940000,21.35
27855,-0.134200,0.089792,1.661640,-5.880000,-8.330000,1.610000,21.35
27866,-0.129808,0.052216,1.675792,-13.440000,-19.180000,-0.280000,21.34
27877,-0.120536,0.021960,1.658224,-15.890000,-31.430000,-2.660000,21.34
27888,-0.126392,0.004880,1.632360,-16.309999,-41.090000,-4.620000,21.32
27900,-0.108824,-0.019032,1.606496,-13.860000,-50.330002,-6.370000,21.31
27911,-0.103944,-0.004392,1.577704,-11.900000,-58.939999,-7.910000,21.31
27922,-0.094184,0.010248,1.518656,-8.540000,-66.919998,-10.850000,21.36
27933,-0.092232,0.046360,1.447408,-5.390000,-76.720001,-13.300000,21.36
27944,-0.061488,0.103944,1.412760,-9.520000,-82.809998,-12.320000,21.36
27955,-0.028304,0.142008,1.401048,-20.719999,-88.830002,-11.130000,21.35
27967,0.011224,0.125416,1.391776,-30.379999,-92.540001,-11.270000,21.35
27977,0.018544,0.101016,1.403976,-38.639999,-96.809998,-11.060000,21.34
27989,0.023424,0.071248,1.376160,-41.580002,-104.440002,-11.410000,21.34
28000,0.046848,0.044896,1.323944,-39.759998,-112.139999,-12.040000,21.34
28012,0.064904,0.024888,1.237568,-36.049999,-118.230003,-13.370000,21.32
28023,0.082960,0.039528,1.165344,-31.500000,-123.059998,-14.560000,21.32
28034,0.106872,0.040016,1.090680,-29.469999,-126.769997,-13.650000,21.36
28045,0.133224,0.050752,1.018944,-27.719999,-130.270004,-13.300000,21.36
28056,0.201544,0.046848,0.949648,-28.559999,-128.380005,-12.250000,21.36
28067,0.229360,0.020984,0.897920,-25.690001,-126.980003,-12.600000,21.33
28078,0.215208,-0.007320,0.816424,-19.950001,-134.330002,-14.350000,21.33
28089,0.273768,-0.049776,0.736880,-10.010000,-137.759995,-13.300000,21.32
28100,0.350384,-0.080520,0.683200,-1.890000,-126.000000,-8.540000,21.32
28111,0.348432,-0.078080,0.617808,9.240000,-118.650002,-7.560000,21.35
28122,0.357704,-0.072224,0.515816,17.990000,-116.970001,-8.470000,21.35
28133,0.404552,-0.071736,0.417240,26.530001,-112.559998,-9.800000,21.33
28144,0.428464,-0.080032,0.349896,34.020000,-103.180000,-8.400000,21.37
28155,0.458232,-0.041480,0.304512,36.189999,-92.470001,-4.830000,21.37
28166,0.482632,0.028304,0.283040,32.480000,-83.230003,-2.240000,21.36
28177,0.504104,0.044896,0.269376,24.360001,-72.379997,0.140000,21.36
28188,0.528504,0.050752,0.268888,15.540000,-59.849998,2.800000,21.39
28199,0.548512,0.055632,0.291336,3.290000,-48.580002,3.990000,21.34
28209,0.536312,0.060512,0.303048,-7.980000,-37.869999,5.460000,21.34
28220,0.543144,0.046848,0.324032,-15.960000,-27.510000,6.020000,21.34
28231,0.540216,0.002928,0.345016,-20.230000,-19.530001,5.880000,21.34
28242,0.543632,-0.040992,0.382104,-22.330000,-9.450000,6.790000,21.33
28253,0.534360,-0.065392,0.431880,-20.090000,-1.330000,6.860000,21.33
28264,0.528504,-0.078080,0.467504,-14.840000,3.360000,6.580000,21.33
28275,0.529968,-0.119560,0.505080,-7.070000,8.400000,6.300000,21.33
28286,0.544608,-0.124440,0.571936,-0.140000,13.090000,5.600000,21.33
28297,0.545096,-0.111752,0.623176,7.490000,15.890000,4.900000,21.32
28307,0.544120,-0.092232,0.668560,11.480000,18.690001,4.480000,21.32
28318,0.537288,-0.069296,0.711504,13.230000,20.440001,4.480000,21.36
28329,0.536312,-0.060024,0.750544,12.180000,20.930000,5.110000,21.38
28340,0.534848,-0.046848,0.774456,10.220000,21.770000,4.620000,21.38
28350,0.523624,-0.058560,0.783240,8.330000,21.770000,3.850000,21.33
28361,0.518256,-0.075152,0.770552,7.840000,21.910000,3.080000,21.33
28372,0.509472,-0.113704,0.762256,9.380000,22.190001,1.610000,21.38
28383,0.515816,-0.134688,0.757376,12.670000,22.610001,0.770000,21.38
28394,0.524600,-0.137128,0.745664,17.639999,24.639999,-1.540000,21.39
28405,0.525576,-0.148840,0.711992,23.450001,27.650000,-4.690000,21.34
28416,0.522648,-0.145912,0.683200,31.010000,30.379999,-6.790000,21.34
28426,0.521672,-0.093696,0.680272,35.070000,34.650002,-7.840000,21.36
28438,0.515816,-0.046848,0.679296,35.630001,39.830002,-8.960000,21.36
28449,0.505080,0.023424,0.692472,31.570000,44.099998,-8.330000,21.35
28460,0.495320,0.060512,0.683688,24.990000,48.509998,-8.610000,21.32
28471,0.471896,0.089304,0.663680,16.730000,53.060001,-7.560000,21.32
28482,0.475800,0.143472,0.662216,3.780000,58.240002,-4.550000,21.34
28493,0.478240,0.139568,0.683200,-14.840000,63.209999,-1.750000,21.34
28503,0.458232,0.099064,0.718824,-29.260000,68.879997,-0.280000,21.36
28514,0.435784,0.060512,0.778360,-37.730000,73.290001,2.870000,21.36
28525,0.412848,0.054656,0.839360,-44.590000,75.669998,5.950000,21.38
28536,0.384544,-0.023424,0.852536,-41.790001,78.190002,6.440000,21.34
28547,0.345016,-0.102480,0.829600,-32.830002,79.449997,5.460000,21.34
28558,0.325496,-0.179096,0.789584,-14.490000,80.220001,2.870000,21.31
28569,0.309880,-0.213256,0.798368,3.290000,81.480003,2.240000,21.31
28580,0.306464,-0.200568,0.825208,18.129999,84.209999,-0.840000,21.36
28591,0.279136,-0.177144,0.883768,32.759998,85.120003,-1.890000,21.33
28601,0.256200,-0.059048,0.975024,37.240002,85.260002,-2.030000,21.33
28612,0.235216,0.037576,1.050176,35.139999,83.580002,-1.540000,21.35
28623,0.205448,0.085400,1.080432,25.129999,81.269997,-0.490000,21.35
28634,0.189832,0.082472,1.081408,14.280000,80.080002,-0.210000,21.36
28644,0.166408,0.042456,1.052128,9.520000,78.190002,-0.700000,21.36
28655,0.147864,0.002928,1.025776,8.750000,75.320000,-1.260000,21.32
28666,0.143960,-0.034160,0.985760,12.950000,74.339996,-2.940000,21.31
28677,0.134200,-0.040992,1.011136,17.850000,73.150002,-2.310000,21.31
28688,0.133224,0.038064,1.061888,18.480000,72.239998,-1.890000,21.36
28698,0.129320,0.124928,1.151192,12.460000,70.139999,1.960000,21.36
28709,0.118584,0.210328,1.239520,-1.890000,68.180000,4.270000,21.36
28720,0.095160,0.200568,1.267336,-15.330000,64.540001,7.350000,21.36
28731,0.091744,0.054168,1.254648,-20.719999,62.230000,7.840000,21.34
28742,0.069296,-0.042944,1.203896,-10.640000,58.590000,7.140000,21.36
28753,0.048312,-0.101016,1.182912,5.040000,55.720001,6.860000,21.36
28764,0.023912,-0.080032,1.219512,18.270000,51.939999,5.040000,21.37
28774,-0.026352,-0.038552,1.322480,27.580000,43.119999,4.620000,21.37
28785,0.020496,0.027816,1.402024,26.389999,42.070000,3.080000,21.40
28796,-0.031232,0.051728,1.483032,26.809999,31.570000,3.500000,21.36
28807,0.003416,0.100528,1.519632,21.350000,23.450001,2.310000,21.36
28817,-0.019032,0.091744,1.562576,14.630000,17.219999,3.290000,21.37
28828,-0.046360,0.075640,1.569408,10.710000,7.350000,2.870000,21.37
28839,-0.060024,0.081984,1.544520,8.750000,-0.910000,1.610000,21.36
28850,-0.078568,0.123464,1.518168,3.430000,-8.680000,1.680000,21.36
28861,-0.073688,0.138104,1.518168,-6.440000,-17.709999,2.030000,21.35
28872,-0.060512,0.085888,1.535248,-16.030001,-26.740000,0.630000,21.34
28883,-0.053192,0.010248,1.544032,-18.129999,-35.910000,-1.540000,21.34
28894,-0.047824,-0.020008,1.526952,-15.120000,-42.910000,-3.290000,21.37
28905,-0.028792,-0.011224,1.521584,-11.480000,-50.680000,-3.780000,21.37
28916,-0.014640,0.020984,1.510360,-10.710000,-57.820000,-5.880000,21.37
28928,-0.013664,0.032696,1.486448,-9.940000,-65.449997,-8.190000,21.34
28939,0.122488,0.054656,1.450336,-10.920000,-72.379997,-8.540000,21.34
28950,0.015616,0.087352,1.405928,-14.420000,-77.349998,-8.890000,21.31
28961,0.033672,0.120048,1.388360,-20.790001,-83.580002,-8.610000,21.31
28972,0.050752,0.139080,1.372744,-26.950001,-90.580002,-7.770000,21.40
28983,0.069296,0.124928,1.359568,-33.740002,-95.410004,-7.420000,21.34
28993,0.091744,0.105408,1.346392,-38.150002,-101.150002,-6.370000,21.34
29004,0.108336,0.101992,1.315160,-40.320000,-107.379997,-5.740000,21.37
29015,0.128832,0.090768,1.281000,-42.770000,-111.440002,-4.620000,21.37
29026,0.128344,0.092720,1.234152,-43.750000,-118.370003,-4.410000,21.39
29037,0.141520,0.078568,1.184376,-43.119999,-124.250000,-3.010000,21.39
29048,0.162992,0.061000,1.112152,-43.119999,-127.330002,-1.890000,21.29
29059,0.176168,0.025864,1.004792,-38.500000,-131.529999,-3.080000,21.37
29070,0.209352,-0.055144,0.901336,-27.370001,-135.589996,-3.850000,21.37
29082,0.256688,-0.124928,0.770064,-10.710000,-135.380005,-5.110000,21.36
29093,0.287432,-0.152256,0.640744,3.710000,-133.210007,-4.970000,21.36
29104,0.335744,-0.139080,0.521184,21.559999,-128.869995,-4.900000,21.36
29115,0.374784,-0.081496,0.441640,30.870001,-121.449997,-3.570000,21.37
29126,0.430416,-0.007320,0.379176,29.469999,-110.320000,0.420000,21.37
29137,0.457744,0.097600,0.362584,17.850000,-100.239998,5.390000,21.39
29147,0.475312,0.163480,0.368928,-2.730000,-88.059998,9.380000,21.39
29159,0.472384,0.156648,0.353800,-23.030001,-76.089996,11.970000,21.36
29169,0.472384,0.072224,0.321592,-36.189999,-67.760002,13.650000,21.35
29180,0.481168,-0.040016,0.298168,-40.950001,-57.189999,12.600000,21.35
29191,0.494832,-0.149328,0.297192,-37.380001,-47.669998,12.460000,21.37
29202,0.509472,-0.200568,0.335256,-30.660000,-40.040001,11.410000,21.37
29213,0.508496,-0.197640,0.364048,-19.740000,-31.920000,10.500000,21.37
29224,0.520696,-0.182024,0.387960,-10.920000,-24.430000,9.940000,21.37
29235,0.529968,-0.170800,0.411872,-4.760000,-18.760000,9.240000,21.34
29246,0.537776,-0.168360,0.451400,0.490000,-12.320000,8.750000,21.37
29257,0.546560,-0.146888,0.504104,2.520000,-6.650000,8.610000,21.37
29267,0.546560,-0.143472,0.543144,4.130000,-2.800000,7.420000,21.37
29278,0.544120,-0.153232,0.551928,7.000000,1.260000,6.230000,21.37
29289,0.554856,-0.187392,0.552416,10.150000,5.670000,4.900000,21.39
29300,0.558272,-0.202032,0.558272,15.050000,9.100000,3.290000,21.37
29311,0.560712,-0.210816,0.569984,20.299999,13.300000,2.030000,21.37
29321,0.559248,-0.201544,0.585112,23.660000,17.360001,0.560000,21.37
29332,0.559248,-0.166896,0.630008,24.430000,19.950001,-0.140000,21.37
29343,0.554856,-0.127856,0.655872,23.379999,23.240000,-1.050000,21.34
29354,0.550952,-0.117120,0.674416,21.559999,25.620001,-1.540000,21.34
29365,0.550464,-0.098576,0.705648,16.940001,28.559999,-1.820000,21.36
29376,0.538264,-0.098576,0.708088,14.980000,31.500000,-2.940000,21.37
29386,0.528504,-0.096624,0.696864,14.070000,33.320000,-3.710000,21.37
29397,0.519720,-0.117120,0.666120,15.960000,36.540001,-4.900000,21.35
29408,0.512400,-0.122488,0.657824,17.150000,40.040001,-5.250000,21.35
29418,0.514840,-0.088816,0.695400,16.379999,42.980000,-5.460000,21.34
29429,0.502152,-0.045872,0.753960,12.390000,45.919998,-3.780000,21.34
29440,0.492880,0.032696,0.821304,1.890000,47.459999,-2.100000,21.34
29451,0.473360,0.057096,0.836920,-8.820000,48.509998,-0.700000,21.35
29462,0.451888,0.067832,0.815936,-17.639999,49.070000,0.980000,21.35
29472,0.443592,0.022936,0.758840,-23.730000,49.980000,1.260000,21.38
29483,0.447008,-0.032696,0.722728,-25.690001,52.990002,1.960000,21.38
29494,0.460184,-0.007320,0.699304,-29.750000,58.029999,4.760000,21.36
29505,0.454328,-0.038064,0.716384,-30.240000,61.740002,5.880000,21.40
29516,0.440664,-0.060024,0.736880,-28.070000,65.449997,7.560000,21.40
29527,0.434808,-0.077592,0.797392,-29.540001,69.720001,10.780000,21.37
29538,0.405528,-0.110776,0.859368,-23.730000,71.680000,11.270000,21.37
29548,0.380640,-0.142008,0.909632,-14.280000,71.540001,12.950000,21.34
29559,0.362584,-0.124440,0.944768,-5.670000,70.910004,13.720000,21.34
29570,0.328912,-0.085888,0.949160,0.630000,69.440002,14.210000,21.36
29581,0.306464,-0.098576,0.935496,4.200000,67.830002,13.300000,21.40
29592,0.299632,-0.152744,0.894992,8.540000,67.059998,11.410000,21.40
29603,0.288408,-0.214232,0.859856,19.320000,66.849998,8.960000,21.39
29614,0.296216,-0.220088,0.843264,32.689999,68.389999,7.070000,21.39
29624,0.282552,-0.217648,0.842776,43.119999,69.370003,5.110000,21.34
29635,0.284504,-0.188368,0.857416,52.430000,72.309998,4.340000,21.33
29646,0.268888,-0.123952,0.924760,54.810001,74.410004,4.760000,21.33
29657,0.241560,-0.028304,1.004792,52.360001,74.410004,5.810000,21.35
29668,0.216672,0.034160,1.090192,38.009998,73.360001,7.560000,21.35
29678,0.177144,0.056608,1.110200,26.879999,71.889999,7.630000,21.36
29689,0.149816,0.034160,1.081896,16.730000,69.720001,6.930000,21.36
29701,0.135664,-0.046360,1.019920,14.420000,68.669998,4.970000,21.39
29711,0.120536,-0.110776,0.958920,35.000000,69.370003,2.450000,21.34
29722,0.113704,-0.164944,0.977952,23.730000,69.300003,1.540000,21.34
29733,0.107360,-0.143472,1.043344,33.040001,68.180000,0.280000,21.37
29744,0.106872,-0.060512,1.146312,37.169998,65.169998,0.630000,21.37
29754,0.096136,0.029768,1.241960,33.110001,61.529999,2.520000,21.37
29765,0.146400,0.041968,1.308816,26.250000,65.730003,0.280000,21.37
29776,0.024888,0.023912,1.314184,20.580000,60.970001,-1.120000,21.33
29786,0.014152,-0.017080,1.300520,19.530001,53.619999,-1.120000,21.37
29798,0.019520,-0.031232,1.301984,19.950001,55.160000,-3.710000,21.37
29809,-0.052704,0.030744,1.372256,16.870001,50.330002,-3.080000,21.40
29819,-0.083448,0.053680,1.468880,12.950000,40.529999,-2.660000,21.40
29830,-0.087840,0.053680,1.546472,10.780000,30.870001,-4.130000,21.37
29841,-0.101016,0.062464,1.632360,6.370000,2.660000,-3.290000,21.31
29852,-0.083448,0.053192,1.712392,2.310000,8.330000,-3.290000,21.31
29863,-0.085888,0.053192,1.743624,-0.210000,-2.800000,-4.760000,21.36
29874,-0.109800,0.080520,1.761192,-3.430000,-15.050000,-5.180000,21.36
29885,-0.106872,0.066856,1.724592,-6.020000,-23.520000,-7.210000,21.37
29896,-0.109312,0.051728,1.675792,-5.530000,-34.020000,-9.030000,21.37
29907,-0.100040,0.051728,1.643584,-7.000000,-45.990002,-9.940000,21.37
29918,-0.084912,0.027816,1.618208,-8.050000,-56.349998,-11.550000,21.34
29930,-0.057584,0.045384,1.631384,-10.710000,-63.630001,-10.990000,21.34
29941,-0.054656,0.061000,1.648464,-14.280000,-73.709999,-11.550000,21.38
29952,-0.038064,0.104432,1.645048,-21.770000,-83.860001,-10.500000,21.38
29963,-0.021472,0.129320,1.641144,-29.820000,-94.220001,-10.710000,21.39
29974,-0.016104,0.124440,1.606984,-39.410000,-104.930000,-10.360000,21.33
29986,0.004880,0.134200,1.541592,-48.439999,-111.860001,-10.010000,21.33
29997,0.010248,0.139080,1.497184,-58.169998,-119.139999,-9.170000,21.37
30008,0.015128,0.141032,1.447896,-68.250000,-128.800003,-8.050000,21.37
30019,0.031232,0.128344,1.413736,-76.370003,-136.360001,-8.400000,21.37
30030,0.042456,0.061976,1.308328,-78.330002,-146.440002,-10.780000,21.32
30040,0.085400,-0.030744,1.179008,-71.470001,-153.860001,-12.950000,21.32
30051,0.150792,-0.122488,0.998448,-59.150002,-154.419998,-15.540000,21.38
30062,0.177632,-0.159088,0.801296,-39.270000,-154.070007,-17.150000,21.38
30073,0.221552,-0.109312,0.667096,-23.100000,-158.830002,-17.290001,21.36
30084,0.313784,-0.026352,0.563152,-17.010000,-156.240005,-14.280000,21.36
30095,0.376736,0.037088,0.502152,-18.830000,-144.270004,-5.880000,21.36
30106,0.402600,0.082960,0.437248,-24.080000,-130.410004,-3.500000,21.37
30117,0.419192,0.069784,0.334768,-29.400000,-122.080002,-1.330000,21.37
30128,0.449936,0.015616,0.248392,-34.650002,-115.150002,1.260000,21.39
30139,0.493856,-0.037576,0.192760,-34.790001,-103.250000,3.430000,21.36
30150,0.516792,-0.099552,0.165432,-32.759998,-89.599998,7.140000,21.36
30161,0.534360,-0.125416,0.176168,-29.260000,-77.839996,7.630000,21.39
30172,0.530944,-0.114192,0.209352,-27.020000,-66.430000,9.380000,21.39
30183,0.535824,-0.092720,0.211792,-24.150000,-54.389999,10.990000,21.35
30194,0.535336,-0.115656,0.216672,-23.100000,-44.029999,13.160000,21.35
30205,0.543144,-0.153232,0.224480,-18.270000,-36.330002,13.510000,21.41
30216,0.553880,-0.192272,0.240096,-13.090000,-27.020000,13.440000,21.34
30227,0.554368,-0.237656,0.273768,-5.460000,-17.360001,12.530000,21.34
30238,0.549000,-0.258152,0.297192,2.660000,-8.890000,11.970000,21.37
30249,0.551440,-0.249856,0.338184,10.570000,-3.080000,11.970000,21.37
30260,0.560224,-0.235704,0.373320,15.680000,3.500000,12.040000,21.38
30270,0.560224,-0.235216,0.393816,18.690001,8.330000,11.480000,21.31
30281,0.558760,-0.244000,0.423096,20.860001,14.700000,10.850000,21.31
30292,0.551928,-0.253272,0.454816,22.610001,19.879999,9.240000,21.39
30303,0.553392,-0.254248,0.511912,23.379999,23.240000,8.960000,21.39
30314,0.559248,-0.245952,0.561200,23.450001,27.650000,8.050000,21.40
30325,0.545096,-0.240096,0.606584,23.590000,29.889999,7.210000,21.40
30335,0.547048,-0.227408,0.634400,21.420000,31.570000,7.350000,21.38
30346,0.537288,-0.223504,0.651480,19.180000,33.740002,6.230000,21.31
30357,0.528504,-0.240096,0.643672,19.600000,34.720001,4.550000,21.31
30367,0.536312,-0.230824,0.658800,17.219999,37.520000,3.710000,21.36
30379,0.526552,-0.235216,0.685152,18.059999,40.529999,2.240000,21.36
30390,0.518744,-0.233264,0.705648,19.530001,42.419998,1.120000,21.39
30401,0.519720,-0.206912,0.716872,21.490000,44.240002,-0.280000,21.39
30412,0.519232,-0.197640,0.693448,23.520000,47.250000,-1.260000,21.39
30423,0.517768,-0.190808,0.680272,24.639999,51.450001,-1.750000,21.43
30434,0.504592,-0.127856,0.715896,21.280001,55.790001,-0.910000,21.43
30445,0.480192,-0.066856,0.744688,16.450001,58.029999,1.050000,21.34
30456,0.485560,-0.010736,0.772504,4.760000,61.529999,3.920000,21.34
30466,0.468968,0.020496,0.782752,-5.530000,64.120003,6.370000,21.36
30477,0.448960,0.004392,0.760304,-16.100000,67.269997,8.050000,21.35
30488,0.443592,-0.052216,0.728096,-20.790001,72.099998,8.890000,21.35
30499,0.423584,-0.110288,0.710528,-20.510000,76.160004,10.780000,21.36
30510,0.413824,-0.107848,0.780800,-24.360001,80.849998,14.210000,21.36
30521,0.367952,-0.060024,0.902312,-28.559999,82.809998,18.620001,21.40
30532,0.324520,-0.050264,0.956968,-35.490002,82.529999,21.770000,21.36
30543,0.301096,-0.139080,0.940864,-35.139999,81.970001,21.490000,21.36
30557,0.269864,-0.325496,0.873032,-15.890000,80.779999,17.709999,21.38
30568,0.264496,-0.359168,0.877912,2.660000,79.519997,17.639999,21.40
30579,0.254736,-0.348920,0.929640,16.100000,80.080002,15.680000,21.40
30590,0.222040,-0.308904,0.979904,30.309999,79.099998,14.210000,21.38
30601,0.197640,-0.252784,1.016504,37.939999,76.720001,12.600000,21.38
30611,0.173728,-0.221552,1.020408,41.930000,73.919998,9.730000,21.39
30622,0.170312,-0.231800,0.986736,48.439999,71.750000,6.370000,21.39
30633,0.162504,-0.226432,0.945256,55.299999,69.790001,3.850000,21.38
30644,0.165432,-0.225456,0.891088,61.389999,70.419998,0.630000,21.33
30655,0.177144,-0.193248,0.931104,61.950001,72.169998,1.050000,21.33
30666,0.146400,-0.116632,1.001376,58.310001,72.519997,0.700000,21.33
30677,0.131760,-0.035136,1.052616,50.680000,72.730003,2.100000,21.33
30687,0.117120,-0.029280,1.056032,42.279999,72.800003,1.540000,21.35
30699,0.095648,-0.041968,1.031632,35.910000,72.449997,0.840000,21.32
30709,0.093696,-0.076128,1.014064,31.709999,73.570000,0.700000,21.32
30720,0.065880,-0.051728,1.082872,24.780001,73.570000,1.750000,21.34
30731,0.039040,-0.001952,1.184864,12.950000,70.629997,4.200000,21.34
30742,0.016592,0.006832,1.284904,3.780000,67.550003,5.040000,21.37
30753,-0.022936,-0.009272,1.326384,-3.710000,62.580002,5.320000,21.37
30764,-0.029280,-0.075640,1.308328,-4.830000,56.000000,3.920000,21.37
30775,-0.044408,-0.176656,1.299056,2.240000,49.070000,1.470000,21.34
30786,0.015616,-0.172264,1.320040,12.670000,50.470001,-3.150000,21.34
30797,-0.086864,-0.167872,1.416664,22.049999,42.070000,-3.710000,21.37
30809,-0.087352,-0.073200,1.494256,26.180000,29.330000,-4.060000,21.37
30820,-0.063440,-0.020984,1.538664,20.930000,23.520000,-4.690000,21.38
30831,-0.101016,-0.010736,1.557696,18.480000,12.950000,-6.090000,21.36
30842,-0.099064,-0.009760,1.582096,14.910000,4.620000,-6.300000,21.36
30853,-0.103456,-0.035136,1.590880,15.820000,-4.550000,-7.770000,21.37
30864,-0.117608,-0.004392,1.583072,15.400000,-15.050000,-8.750000,21.37
30875,-0.107360,0.015128,1.566968,12.740000,-25.129999,-9.170000,21.37
30886,-0.098088,0.030256,1.561112,5.810000,-32.689999,-10.010000,21.37
30897,-0.084912,0.034160,1.578192,-2.100000,-41.439999,-9.380000,21.37
30908,-0.075640,0.016592,1.581608,-7.770000,-50.470001,-9.870000,21.34
30919,-0.070272,0.001952,1.551352,-10.150000,-58.450001,-10.150000,21.34
30931,-0.058560,-0.002440,1.503040,-14.770000,-63.700001,-9.870000,21.36
30942,-0.058560,-0.033184,1.483032,-16.660000,-71.750000,-11.480000,21.36
30953,-0.041480,-0.022448,1.490352,-17.430000,-79.029999,-12.670000,21.36
30965,-0.029280,-0.004880,1.514264,-21.559999,-86.589996,-11.270000,21.31
30976,-0.020984,0.039528,1.548912,-27.580000,-95.129997,-10.220000,21.31
30987,-0.009272,0.082960,1.529880,-51.799999,-105.209999,-9.590000,21.38
30998,0.013176,0.081008,1.485960,-45.150002,-114.379997,-9.240000,21.33
31010,0.031232,0.053680,1.398608,-54.180000,-122.919998,-8.820000,21.33
31022,0.048800,0.004392,1.327360,-60.480000,-128.660004,-9.310000,21.32
31033,0.065880,-0.044896,1.237080,-58.240002,-135.940002,-11.060000,21.32
31044,0.100528,-0.101016,1.115568,-48.369999,-142.169998,-13.440000,21.36
31055,0.132736,-0.138592,1.016992,-34.790001,-146.649994,-14.420000,21.34
31066,0.164944,-0.150792,0.892064,-20.860001,-148.119995,-15.190000,21.34
31077,0.213744,-0.149328,0.771528,-5.180000,-147.350006,-13.860000,21.37
31088,0.264496,-0.102968,0.702232,5.460000,-143.570007,-12.880000,21.37
31099,0.292312,-0.079544,0.607560,15.190000,-140.630005,-10.220000,21.34
31112,0.348920,-0.030744,0.525088,17.920000,-133.699997,-6.090000,21.40
31123,0.384056,-0.044896,0.464576,21.209999,-124.949997,-3.990000,21.40
31134,0.412360,-0.038064,0.379176,21.420000,-115.570000,-0.770000,21.37
31145,0.440176,-0.049288,0.313296,19.040001,-107.519997,1.750000,21.37
31156,0.482144,-0.064904,0.257664,15.400000,-95.199997,3.850000,21.37
31167,0.508984,-0.066368,0.246928,8.680000,-81.199997,7.980000,21.37
31179,0.516304,-0.062952,0.249856,2.240000,-69.089996,10.500000,21.37
31190,0.529480,-0.057096,0.267424,-2.520000,-58.450001,11.830000,21.39
31201,0.534848,-0.065392,0.301096,-9.800000,-50.049999,12.950000,21.39
31213,0.541192,-0.092232,0.325008,-15.680000,-40.110001,13.650000,21.37
31224,0.542656,-0.137616,0.337696,-18.690001,-30.450001,13.160000,21.31
31235,0.540704,-0.214232,0.345016,-17.430000,-22.120001,12.110000,21.31
31246,0.544608,-0.251320,0.373808,-14.630000,-14.210000,10.710000,21.36
31257,0.540704,-0.264008,0.402112,-8.820000,-8.400000,8.680000,21.36
31268,0.532896,-0.271816,0.418704,-2.170000,-2.170000,6.860000,21.41
31279,0.536312,-0.311832,0.420656,7.280000,3.920000,3.500000,21.35
31290,0.539728,-0.345016,0.421632,16.870001,8.890000,0.000000,21.35
31301,0.553880,-0.341112,0.437736,29.400000,14.910000,-2.310000,21.35
31312,0.555344,-0.300608,0.463600,39.340000,21.490000,-4.900000,21.35
31323,0.554368,-0.249856,0.491904,43.959999,27.370001,-6.720000,21.37
31334,0.545096,-0.155672,0.560712,41.369999,31.430000,-7.140000,21.34
31345,0.529480,-0.096624,0.616344,34.020000,35.840000,-7.140000,21.34
31356,0.510448,-0.052216,0.642208,24.639999,38.570000,-6.860000,21.36
31367,0.507520,-0.078568,0.661728,17.920000,41.160000,-6.860000,21.36
31379,0.504104,-0.112240,0.647088,13.370000,43.889999,-7.770000,21.34
31390,0.498736,-0.162016,0.605120,15.890000,46.689999,-9.800000,21.39
31401,0.511912,-0.169336,0.632448,16.100000,51.520000,-8.960000,21.39
31412,0.505080,-0.087840,0.708576,16.660000,56.279999,-8.330000,21.39
31423,0.484584,0.001952,0.762744,14.630000,58.869999,-6.300000,21.39
31434,0.472384,-0.000488,0.775920,11.480000,60.759998,-5.390000,21.35
31446,0.442616,-0.047824,0.747616,15.890000,63.419998,-6.300000,21.37
31458,0.436272,-0.147864,0.667584,29.400000,65.940002,-8.610000,21.37
31469,0.431880,-0.171776,0.605608,45.220001,69.790001,-9.100000,21.35
31480,0.451400,-0.131760,0.645624,50.959999,75.669998,-7.140000,21.35
31491,0.442128,0.038064,0.781288,47.180000,80.779999,-5.110000,21.37
31501,0.412848,0.108336,0.909144,34.790001,82.739998,-2.730000,21.37
31513,0.377224,0.117120,0.957456,23.309999,83.089996,-0.350000,21.37
31523,0.339648,0.044896,0.951112,20.230000,82.669998,1.050000,21.36
31534,0.340624,-0.032696,0.876448,26.040001,83.930000,1.120000,21.36
31545,0.311832,-0.059536,0.880352,31.709999,84.279999,2.100000,21.38
31556,0.291336,-0.017568,0.947208,32.480000,86.169998,2.870000,21.38
31567,0.259616,0.046360,1.042856,28.910000,86.379997,4.480000,21.37
31578,0.223016,0.067344,1.088240,24.850000,84.070000,5.600000,21.34
31589,0.200080,0.060512,1.084336,22.469999,79.800003,5.950000,21.34
31600,0.192272,0.025864,1.044320,21.209999,77.629997,5.460000,21.41
31610,0.185440,-0.030256,1.001376,23.450001,74.900002,3.710000,21.41
31621,0.200080,-0.035136,1.030168,22.400000,73.779999,5.180000,21.40
31632,0.203496,0.008296,1.092632,20.230000,73.989998,5.250000,21.31
31643,0.180560,0.051728,1.120448,15.540000,73.500000,6.860000,21.31
31654,0.152744,0.100528,1.129720,9.940000,71.889999,7.560000,21.37
31665,0.136152,0.091256,1.112640,2.240000,69.720001,7.630000,21.37
31675,0.122488,0.070760,1.120448,-5.600000,68.040001,8.820000,21.39
31686,0.103944,0.031232,1.145336,-9.870000,66.430000,8.680000,21.39
31697,0.091256,0.019520,1.201456,-15.050000,64.470001,10.080000,21.42
31708,0.040504,-0.007320,1.280512,-14.560000,62.230000,8.050000,21.38
31719,0.031232,-0.048312,1.288320,-12.950000,58.869999,8.050000,21.38
31731,-0.019520,-0.100528,1.286856,-2.590000,45.849998,6.370000,21.39
31742,0.041968,-0.125904,1.251720,8.960000,44.730000,1.890000,21.39
31753,0.007808,-0.139080,1.266360,21.490000,39.970001,0.490000,21.40
31764,0.003416,-0.081496,1.318088,30.100000,33.740002,-0.490000,21.36
31775,0.006344,0.031232,1.358104,32.619999,29.959999,0.000000,21.36
31785,-0.015128,0.053680,1.383480,31.920000,24.290001,-1.260000,21.33
31796,-0.035136,0.089304,1.425448,28.770000,16.450001,-1.540000,21.33
31807,-0.029768,0.136152,1.455216,19.950001,10.290000,-1.680000,21.36
31818,-0.023424,0.108824,1.483520,10.500000,3.220000,-2.170000,21.38
31829,-0.027328,0.129320,1.503528,2.660000,-4.690000,-2.100000,21.38
31840,-0.030744,0.108824,1.522560,-7.210000,-11.270000,-2.100000,21.37
31852,-0.042944,0.058560,1.507432,-11.060000,-19.950001,-2.940000,21.37
31863,-0.039040,0.020008,1.455704,-10.010000,-28.070000,-4.060000,21.37
31874,-0.026840,-0.023912,1.420080,-3.640000,-35.630001,-5.670000,21.38
31885,-0.011224,-0.002928,1.384456,1.050000,-41.650002,-7.000000,21.38
31897,-0.001952,0.035624,1.388360,3.360000,-46.480000,-7.700000,21.33
31908,0.010248,0.065392,1.412760,2.590000,-53.970001,-7.490000,21.33
31919,0.021960,0.108336,1.427400,-2.240000,-60.970001,-7.000000,21.38
31930,0.031720,0.127368,1.412272,-8.960000,-68.250000,-6.580000,21.37
31941,0.041480,0.121512,1.367376,-14.490000,-73.080002,-6.230000,21.37
31952,0.044896,0.088328,1.339560,-18.830000,-77.279999,-5.740000,21.36
31963,0.052216,0.083936,1.319552,-20.440001,-83.300003,-5.180000,21.36
31975,0.056120,0.102480,1.321016,-23.870001,-89.459999,-4.060000,21.37
31985,0.060512,0.134688,1.331264,-27.020000,-96.809998,-3.150000,21.37
31996,0.081984,0.154208,1.326384,-32.410000,-102.830002,-1.260000,21.32
32008,0.116144,0.136640,1.303936,-37.240002,-108.290001,0.280000,21.34
32019,0.133224,0.123952,1.271728,-42.279999,-113.750000,1.540000,21.34
32030,0.140056,0.158600,1.292224,-50.119999,-119.699997,3.990000,21.36
32042,0.126392,0.172264,1.273680,-59.430000,-127.750000,4.690000,21.37
32053,0.144936,0.107848,1.208288,-62.650002,-134.259995,5.460000,21.37
32065,0.153720,-0.020496,1.095560,-57.750000,-139.860001,3.500000,21.37
32076,0.176656,-0.129320,0.955016,-42.279999,-144.270004,0.210000,21.37
32087,0.205448,-0.201544,0.788120,-17.920000,-146.229996,-3.290000,21.37
32098,0.263032,-0.221064,0.643184,6.790000,-144.130005,-4.130000,21.37
32110,0.326960,-0.160064,0.555832,25.900000,-138.460007,-3.430000,21.37
32121,0.394792,-0.078080,0.470432,34.930000,-130.339996,-1.260000,21.37
32132,0.444568,0.022936,0.439200,34.299999,-119.349998,1.820000,21.37
32143,0.467016,0.060024,0.417240,27.090000,-110.949997,6.230000,21.39
32154,0.491904,0.126880,0.406016,11.270000,-101.010002,10.080000,21.39
32165,0.527040,0.134688,0.369416,-5.110000,-89.389999,14.630000,21.33
32176,0.546072,0.064904,0.317688,-21.770000,-78.260002,14.770000,21.37
32187,0.526064,0.010248,0.301096,-33.880001,-68.320000,15.330000,21.37
32198,0.542168,-0.071248,0.288896,-39.759998,-58.099998,14.980000,21.39
32209,0.538752,-0.124440,0.305976,-39.759998,-48.369999,14.280000,21.39
32221,0.550464,-0.186416,0.316224,-35.349998,-40.810001,12.530000,21.36
32232,0.562176,-0.270840,0.320128,-25.059999,-31.780001,9.380000,21.32
32244,0.574864,-0.318664,0.322568,-9.940000,-23.590000,5.810000,21.32
32255,0.593408,-0.322568,0.340136,3.500000,-14.840000,3.500000,21.34
32266,0.595360,-0.285968,0.364536,12.530000,-7.630000,1.050000,21.34
32277,0.602680,-0.226920,0.388936,18.549999,-0.420000,-1.470000,21.32
32288,0.601216,-0.192760,0.400648,19.879999,5.390000,-3.850000,21.34
32299,0.598776,-0.168848,0.413824,18.340000,11.970000,-5.250000,21.34
32310,0.594384,-0.159088,0.425536,15.330000,18.620001,-7.140000,21.36
32321,0.589992,-0.167872,0.456280,13.440000,24.570000,-8.470000,21.36
32332,0.580232,-0.144936,0.514352,10.850000,28.350000,-9.030000,21.32
32343,0.570472,-0.115168,0.561688,7.000000,32.270000,-8.960000,21.34
32354,0.553392,-0.104432,0.581208,5.460000,35.349998,-9.380000,21.34
32365,0.550464,-0.105896,0.587064,5.390000,37.660000,-9.870000,21.34
32377,0.555832,-0.110776,0.585112,5.880000,42.000000,-9.800000,21.34
32388,0.547536,-0.112728,0.592920,9.660000,45.500000,-10.710000,21.41
32399,0.540704,-0.110288,0.604632,14.140000,49.419998,-11.060000,21.37
32410,0.542168,-0.024888,0.687104,10.570000,52.290001,-8.540000,21.37
32421,0.522160,0.030256,0.764696,5.880000,54.459999,-7.210000,21.40
32431,0.499224,0.066856,0.782752,0.350000,54.599998,-5.110000,21.40
32442,0.500688,0.037576,0.760304,-3.010000,55.509998,-3.780000,21.36
32453,0.496784,-0.008784,0.698328,-2.590000,57.330002,-3.640000,21.35
32464,0.494832,-0.072224,0.666608,0.630000,61.040001,-2.660000,21.35
32475,0.494832,-0.049288,0.706624,2.380000,65.379997,-0.980000,21.40
32486,0.483120,-0.000488,0.743712,1.400000,68.599998,0.980000,21.40
32497,0.470432,0.018056,0.789096,-1.400000,71.750000,2.660000,21.39
32508,0.442128,0.050752,0.835944,-5.810000,72.660004,4.760000,21.39
32519,0.435784,0.034160,0.841312,-12.110000,73.989998,6.300000,21.39
32530,0.422608,-0.037576,0.818376,-13.650000,76.790001,6.160000,21.36
32542,0.412848,-0.111264,0.848632,-7.140000,79.029999,7.910000,21.36
32553,0.391376,0.018544,0.899872,-11.340000,80.430000,11.900000,21.37
32564,0.371368,0.029768,0.944280,-18.129999,82.949997,13.720000,21.37
32575,0.327448,-0.002440,0.963312,-23.870001,82.879997,13.580000,21.34
32585,0.309392,-0.096624,0.953552,-22.049999,82.599998,12.810000,21.35
32597,0.294752,-0.191296,0.937936,-15.330000,82.949997,12.460000,21.35
32608,0.293288,-0.177632,0.958920,-8.890000,84.349998,15.260000,21.39
32619,0.262056,-0.158112,1.005768,-5.110000,84.209999,16.240000,21.39
32630,0.229848,-0.124440,1.050664,-3.080000,83.650002,15.330000,21.34
32641,0.191296,-0.099064,1.086776,-2.170000,80.989998,13.860000,21.41
32652,0.176656,-0.131272,1.089704,-0.560000,78.260002,11.830000,21.41
32664,0.160064,-0.160064,1.069696,3.290000,75.250000,10.430000,21.39
32674,0.163480,-0.180072,1.051152,9.380000,73.150002,8.750000,21.39
32685,0.162504,-0.194712,1.067744,13.440000,71.889999,8.260000,21.38
32696,0.149328,-0.152744,1.145336,16.450001,70.419998,7.630000,21.33
32707,0.078568,-0.142008,1.182912,18.270000,63.910000,6.650000,21.33
32718,0.143960,-0.112240,1.178520,13.090000,70.279999,4.130000,21.38
32729,0.081496,-0.147376,1.162904,14.350000,65.239998,3.010000,21.38
32740,0.096624,-0.121024,1.136552,18.200001,59.990002,1.470000,21.33
32751,0.100528,-0.093696,1.163880,14.630000,61.669998,1.680000,21.33
32761,0.049776,-0.096624,1.204872,12.460000,56.910000,2.450000,21.34
32772,0.061488,-0.056608,1.241960,4.760000,51.520000,4.620000,21.35
32783,0.049776,-0.064904,1.303936,-0.700000,48.090000,3.920000,21.35
32794,0.027328,-0.098576,1.330776,-3.220000,43.680000,3.080000,21.39
32805,0.023912,-0.135664,1.356152,-1.330000,37.520000,1.960000,21.39
32816,0.009760,-0.217160,1.378112,9.660000,32.060001,-1.680000,21.37
32827,-0.011224,-0.216184,1.415200,21.559999,25.200001,-4.900000,21.36
32838,-0.034160,-0.166408,1.432768,33.599998,18.690001,-7.560000,21.36
32850,-0.031232,-0.087840,1.447408,37.939999,11.340000,-8.470000,21.36
32861,-0.027328,-0.017568,1.461072,33.459999,3.850000,-9.450000,21.36
32872,-0.021472,0.021960,1.495720,25.059999,-4.130000,-9.030000,21.35
32883,-0.017568,0.035136,1.536712,11.760000,-10.360000,-8.820000,21.35
32894,-0.026840,0.029280,1.545008,-0.070000,-17.920000,-8.330000,21.35
32905,-0.040016,-0.025376,1.534760,-7.000000,-26.879999,-9.030000,21.40
32916,-0.037088,-0.085400,1.525000,-7.350000,-34.369999,-10.500000,21.40
32928,-0.044408,-0.121024,1.499624,-1.120000,-43.610001,-12.810000,21.35
32939,-0.038552,-0.093696,1.488400,4.760000,-50.959999,-14.210000,21.34
32950,-0.021472,-0.044408,1.485960,6.720000,-59.709999,-15.680000,21.34
32962,-0.012688,0.016104,1.499136,1.540000,-69.300003,-15.680000,21.36
32973,-0.001464,0.034648,1.500112,-5.740000,-78.889999,-16.100000,21.36
32984,0.007808,0.028792,1.484984,-12.390000,-88.900002,-15.960000,21.37
32995,0.023912,0.038064,1.465464,-18.549999,-96.879997,-15.120000,21.36
33007,0.017568,0.020496,1.409832,-22.190001,-104.370003,-15.330000,21.36
33018,0.028792,0.023424,1.344928,-25.340000,-113.400002,-15.610000,21.36
33030,0.048312,-0.001464,1.263432,-25.059999,-121.309998,-17.080000,21.36
33041,0.063440,-0.014640,1.198528,-21.980000,-128.029999,-17.150000,21.36
33052,0.090768,-0.011712,1.112640,-16.870001,-134.889999,-17.010000,21.36
33063,0.136152,-0.020984,1.022848,-12.390000,-138.880005,-16.030001,21.36
33074,0.162992,-0.013664,0.949648,-7.070000,-142.240005,-14.140000,21.33
33085,0.204472,-0.011712,0.864736,-1.260000,-141.610001,-12.110000,21.33
33096,0.256688,0.029768,0.801784,0.910000,-138.179993,-8.470000,21.35
33107,0.282552,0.023912,0.716872,2.450000,-135.240005,-6.090000,21.35
33118,0.325008,0.041968,0.625616,2.240000,-132.020004,-3.570000,21.35
33129,0.365024,0.018056,0.557784,1.400000,-126.209999,-1.330000,21.37
33140,0.419192,0.043432,0.495808,-3.150000,-118.300003,3.080000,21.37
33151,0.455304,0.058560,0.440664,-8.470000,-110.180000,5.530000,21.34
33162,0.489952,0.031720,0.411872,-14.560000,-98.769997,7.490000,21.37
33173,0.518256,-0.008784,0.410408,-16.730000,-87.709999,9.800000,21.37
33184,0.537776,-0.015128,0.397720,-20.370001,-76.510002,11.830000,21.41
33195,0.546560,-0.012688,0.380152,-25.340000,-67.339996,13.160000,21.41
33206,0.548024,-0.035624,0.369904,-27.510000,-57.400002,13.230000,21.38
33218,0.550952,-0.060024,0.346480,-30.379999,-47.950001,14.000000,21.38
33229,0.554856,-0.124928,0.323056,-29.190001,-38.849998,13.930000,21.32
33240,0.563152,-0.172264,0.306464,-24.080000,-31.360001,12.950000,21.33
33250,0.577792,-0.212768,0.320616,-17.080000,-21.000000,11.970000,21.33
33261,0.574864,-0.209352,0.360632,-11.270000,-11.550000,11.340000,21.42
33273,0.575840,-0.221064,0.390400,-3.640000,-4.270000,9.310000,21.42
33283,0.551440,-0.239120,0.406992,5.950000,3.500000,7.560000,21.37
33294,0.557784,-0.223016,0.447008,10.640000,10.080000,7.000000,21.36
33305,0.551928,-0.202520,0.478728,15.750000,14.700000,5.740000,21.36
33316,0.544608,-0.197640,0.485560,18.830000,19.670000,4.690000,21.39
33327,0.549976,-0.198128,0.502152,19.740000,25.270000,3.640000,21.39
33338,0.542168,-0.191784,0.519720,20.790001,29.260000,2.380000,21.35
33349,0.528992,-0.193736,0.545096,21.280001,33.740002,1.470000,21.36
33360,0.515816,-0.189344,0.563640,22.680000,37.310001,0.000000,21.36
33371,0.512888,-0.189344,0.577792,23.590000,40.880001,-0.910000,21.41
33382,0.511912,-0.163480,0.610000,23.240000,44.099998,-1.400000,21.41
33393,0.497760,-0.145912,0.637328,21.629999,47.389999,-1.890000,21.38
33404,0.485560,-0.130296,0.651480,20.020000,50.540001,-2.240000,21.38
33415,0.484096,-0.087352,0.680272,15.470000,52.639999,-1.750000,21.38
33426,0.467992,-0.078568,0.697840,11.410000,54.950001,-1.400000,21.32
33437,0.461648,-0.041480,0.724680,4.270000,57.189999,-0.280000,21.32
33448,0.450912,-0.026352,0.730048,-0.980000,59.570000,1.120000,21.39
33459,0.444568,-0.001464,0.743224,-9.310000,61.250000,3.850000,21.39
33470,0.443104,0.017080,0.765184,-20.510000,63.419998,5.530000,21.34
33481,0.430416,0.023424,0.759816,-32.759998,66.989998,7.910000,21.34
33492,0.420656,-0.001464,0.751032,-40.459999,70.279999,10.080000,21.34
33503,0.414800,-0.040016,0.756888,-46.130001,74.059998,12.670000,21.38
33514,0.404552,-0.071248,0.801784,-47.459999,77.349998,15.190000,21.38
33525,0.377224,-0.053680,0.877912,-48.509998,79.449997,18.690001,21.38
33536,0.347944,-0.062464,0.948184,-53.130001,79.169998,22.190001,21.37
33547,0.319640,-0.129320,0.981368,-52.849998,78.610001,23.240000,21.37
33558,0.284992,-0.211792,0.982344,-45.500000,76.230003,22.680000,21.36
33569,0.278160,-0.292800,0.941352,-34.580002,76.370003,21.910000,21.36
33580,0.248880,-0.357216,0.904752,-13.930000,75.459999,20.020000,21.39
33592,0.255224,-0.354288,0.913536,4.620000,75.389999,19.459999,21.38
33602,0.237168,-0.329888,0.922808,21.629999,76.510002,15.750000,21.38
33613,0.217648,-0.286456,0.941840,38.919998,75.599998,13.720000,21.38
33624,0.222040,-0.261568,0.975512,49.209999,75.949997,12.530000,21.38
33635,0.192760,-0.226920,1.000888,56.630001,74.760002,10.640000,21.37
33647,0.189344,-0.121024,1.066280,52.919998,74.620003,12.880000,21.37
33657,0.153720,-0.081496,1.110688,44.450001,73.779999,11.550000,21.33
33669,0.129320,-0.110288,1.092632,37.799999,71.750000,10.430000,21.40
33680,0.100528,-0.166896,1.053592,39.130001,70.279999,7.630000,21.40
33691,0.082960,-0.183488,0.993080,43.049999,69.230003,5.950000,21.35
33702,0.086376,-0.167384,1.002352,43.680000,69.440002,6.370000,21.35
33713,0.082960,-0.138592,1.081408,41.509998,69.230003,7.210000,21.37
33724,0.075152,-0.075152,1.163392,31.990000,68.250000,9.380000,21.34
33734,0.046360,-0.046360,1.265384,23.030001,65.870003,10.920000,21.34
33745,0.085888,-0.057096,1.331752,12.460000,65.589996,7.840000,21.38
33756,-0.024400,-0.146888,1.350296,8.820000,58.169998,5.110000,21.38
33767,-0.027816,-0.223992,1.357128,16.100000,50.610001,1.680000,21.38
33778,-0.004880,-0.242048,1.360544,27.860001,47.950001,-2.380000,21.38
33789,-0.042944,-0.224968,1.387384,38.570000,41.090000,-4.830000,21.38
33800,-0.069784,-0.124928,1.450824,42.349998,32.480000,-6.720000,21.39
33811,-0.085400,-0.060024,1.555256,39.619999,24.010000,-6.580000,21.39
33822,-0.062464,-0.023912,1.633824,29.959999,13.650000,-7.280000,21.39
33833,-0.068320,-0.029280,1.662616,22.120001,3.010000,-9.310000,21.39
33844,-0.061000,-0.011224,1.693848,15.470000,-7.630000,-9.380000,21.34
33856,-0.053680,0.021960,1.730448,3.780000,-14.560000,-9.170000,21.34
33867,-0.075152,0.028792,1.737768,-7.700000,-26.320000,-9.590000,21.34
33878,-0.075152,-0.009760,1.711416,-15.680000,-38.220001,-10.780000,21.35
33889,-0.069296,-0.064416,1.640168,-17.570000,-47.459999,-12.320000,21.35
33900,-0.076128,-0.067832,1.606496,-16.450001,-59.150002,-13.510000,21.34
33912,-0.051240,-0.042944,1.633824,-18.340000,-67.900002,-14.770000,21.40
33923,-0.032208,0.000000,1.671888,-24.360001,-78.050003,-14.980000,21.40
33934,-0.037088,0.035136,1.685552,-32.200001,-88.480003,-14.070000,21.37
33945,-0.053680,0.049288,1.639192,-37.939999,-100.029999,-14.280000,21.37
33956,-0.053680,0.041480,1.557208,-44.240002,-112.629997,-14.910000,21.36
33967,-0.021472,0.021472,1.453752,-48.650002,-120.470001,-16.450001,21.35
33979,-0.010248,0.019032,1.382504,-53.340000,-128.729996,-15.330000,21.35
33990,0.010736,0.023424,1.310768,-54.599998,-135.169998,-15.470000,21.35
34001,0.013664,0.007808,1.186328,-53.410000,-141.889999,-15.540000,21.35
34012,0.049776,-0.020008,1.071160,-50.330002,-146.580002,-15.260000,21.33
34024,0.099064,-0.050264,0.966240,-43.330002,-148.539993,-15.260000,21.38
34036,0.146400,-0.067832,0.846192,-32.130001,-147.419998,-15.820000,21.38
34047,0.172752,-0.084424,0.720776,-22.330000,-146.509995,-15.820000,21.38
34059,0.214232,-0.100040,0.576816,-7.770000,-144.270004,-14.350000,21.35
34070,0.276696,-0.110776,0.455304,5.740000,-138.880005,-12.110000,21.35
34081,0.330864,-0.069784,0.368440,13.440000,-130.130005,-8.750000,21.39
34092,0.393816,-0.024888,0.314272,14.210000,-119.419998,-3.570000,21.39
34103,0.442616,0.037088,0.285968,9.590000,-108.360001,1.470000,21.40
34114,0.453840,0.058560,0.268888,-0.560000,-96.180000,5.320000,21.36
34125,0.495808,0.072712,0.271816,-15.540000,-82.529999,10.710000,21.36
34136,0.510936,0.069784,0.261568,-26.110001,-70.489998,14.350000,21.39
34147,0.516304,-0.003904,0.251808,-37.660000,-61.529999,16.170000,21.39
34159,0.524112,-0.076128,0.253272,-45.290001,-50.540001,17.990000,21.34
34170,0.531432,-0.129808,0.287432,-49.700001,-40.110001,19.600000,21.33
34181,0.532896,-0.161528,0.336720,-50.119999,-30.940001,20.790001,21.33
34192,0.523136,-0.214232,0.398696,-46.970001,-23.309999,20.440001,21.39
34203,0.520696,-0.286944,0.429440,-37.169998,-18.549999,18.690001,21.39
34215,0.525576,-0.350872,0.442616,-23.030001,-12.530000,16.309999,21.36
34226,0.527040,-0.382104,0.458720,-7.420000,-6.650000,14.070000,21.35
34238,0.534360,-0.358680,0.506056,4.270000,-1.470000,13.440000,21.35
34249,0.534360,-0.319640,0.539728,12.040000,3.290000,11.970000,21.39
34260,0.535336,-0.284504,0.577304,14.630000,6.230000,11.130000,21.39
34270,0.529968,-0.272792,0.589504,16.799999,9.800000,9.590000,21.34
34282,0.528992,-0.265472,0.613904,15.050000,12.460000,9.100000,21.36
34292,0.533872,-0.264496,0.661728,13.720000,15.470000,7.350000,21.36
34303,0.526552,-0.283040,0.680760,14.070000,16.940001,5.670000,21.36
34314,0.527528,-0.312320,0.692472,14.280000,19.040001,4.900000,21.36
34325,0.520696,-0.313296,0.717848,16.100000,21.000000,2.870000,21.38
34336,0.508984,-0.308416,0.728096,18.760000,21.559999,1.120000,21.38
34347,0.516792,-0.295240,0.741272,19.600000,23.170000,0.140000,21.37
34358,0.517768,-0.276208,0.748104,19.740000,25.129999,-1.610000,21.39
34369,0.504592,-0.263520,0.741760,19.740000,26.250000,-3.360000,21.39
34380,0.502640,-0.267424,0.720288,21.070000,27.510000,-4.690000,21.39
34391,0.501176,-0.274256,0.699304,22.889999,29.540001,-6.160000,21.39
34402,0.505080,-0.277672,0.675880,26.879999,32.410000,-8.260000,21.37
34413,0.507032,-0.231800,0.697352,27.650000,34.860001,-7.700000,21.36
34424,0.503616,-0.196664,0.716384,27.160000,39.200001,-8.260000,21.36
34435,0.475800,-0.145424,0.718336,24.290001,42.139999,-8.470000,21.43
34446,0.464088,-0.136640,0.706624,21.840000,45.570000,-8.610000,21.43
34459,0.447984,-0.144936,0.665144,21.629999,49.770000,-9.380000,21.41
34470,0.438712,-0.150304,0.647088,22.469999,54.040001,-8.680000,21.35
34481,0.446032,-0.106872,0.679296,18.410000,58.099998,-6.370000,21.35
34492,0.436760,-0.068808,0.735416,11.270000,63.279999,-5.040000,21.38
34503,0.415288,-0.025376,0.795928,-1.610000,66.430000,-0.840000,21.38
34514,0.385032,-0.020984,0.856928,-10.430000,69.300003,1.610000,21.37
34525,0.357216,-0.058072,0.861320,-16.590000,70.209999,3.500000,21.38
34536,0.333304,-0.122000,0.830576,-13.860000,70.910004,3.640000,21.38
34547,0.315248,-0.186416,0.791048,-5.390000,71.959999,3.150000,21.37
34558,0.316224,-0.186416,0.808128,-2.520000,72.800003,5.180000,21.37
34569,0.325008,-0.170312,0.910120,-3.710000,74.550003,7.280000,21.37
34580,0.293288,-0.156648,0.966240,-1.960000,75.180000,7.490000,21.36
34592,0.276696,-0.154208,0.992104,1.400000,73.849998,7.700000,21.36
34603,0.256200,-0.208864,0.973560,7.980000,72.379997,5.880000,21.34
34614,0.238144,-0.251320,0.931592,20.230000,71.050003,3.780000,21.34
34624,0.227408,-0.270840,0.912072,34.160000,70.070000,2.240000,21.38
34635,0.224480,-0.226920,0.953552,40.180000,69.860001,3.010000,21.38
34646,0.218136,-0.170800,1.024312,45.009998,70.839996,3.010000,21.35
34657,0.181536,-0.114192,1.065792,47.180000,68.669998,2.520000,21.36
34668,0.166896,-0.049776,1.085312,45.430000,66.360001,2.870000,21.36
34679,0.162504,-0.043432,1.058472,40.250000,65.800003,2.240000,21.36
34690,0.147864,-0.068320,1.039928,36.680000,63.630001,2.590000,21.36
34701,0.162504,-0.046360,1.066768,29.190001,63.349998,4.410000,21.37
34712,0.139080,-0.048312,1.109224,24.850000,62.930000,5.180000,21.37
34723,0.121512,-0.068808,1.110200,22.049999,62.650002,5.390000,21.37
34734,0.090768,-0.099064,1.091656,26.040001,61.389999,4.340000,21.36
34745,0.071248,-0.120048,1.083360,31.010000,59.430000,3.920000,21.36
34756,0.067344,-0.091256,1.144848,34.299999,57.049999,3.920000,21.34
34767,0.025864,-0.056120,1.246840,31.709999,54.810001,2.240000,21.36
34778,0.049288,-0.015128,1.320528,21.980000,55.020000,3.640000,21.36
34789,-0.013176,-0.003904,1.394216,18.969999,45.430000,5.600000,21.38
34800,0.025376,-0.014152,1.449360,14.210000,40.180000,4.410000,21.38
34811,-0.025376,-0.074664,1.468392,14.070000,34.930000,1.470000,21.38
34822,-0.042456,-0.095648,1.473760,16.450001,26.600000,-0.210000,21.38
34833,-0.052704,-0.039528,1.510848,13.790000,18.969999,0.630000,21.37
34844,-0.059536,-0.019032,1.564040,4.970000,9.170000,0.630000,21.34
34855,-0.063928,-0.039528,1.616744,-1.960000,-0.910000,-0.910000,21.34
34866,-0.071248,-0.080032,1.656272,-6.790000,-13.020000,-2.940000,21.37
34878,-0.068320,-0.090280,1.698240,-10.710000,-22.820000,-4.060000,21.37
34889,-0.055632,-0.079544,1.707512,-15.680000,-33.880001,-5.460000,21.35
34900,-0.057096,-0.093208,1.707512,-19.250000,-45.779999,-7.630000,21.37
34912,-0.055144,-0.098088,1.714832,-22.120001,-57.400002,-9.240000,21.37
34923,-0.056120,-0.076616,1.715320,-24.360001,-69.089996,-10.640000,21.37
34934,-0.044408,-0.050264,1.665544,-27.370001,-80.779999,-11.970000,21.37
34945,-0.025864,-0.044896,1.582584,-32.130001,-91.769997,-14.840000,21.32
34956,-0.002928,-0.015616,1.512800,-39.549999,-99.190002,-15.750000,21.32
34968,0.022936,-0.001952,1.489376,-49.630001,-107.099998,-15.190000,21.32
34979,0.046848,-0.003416,1.468392,-57.189999,-115.430000,-14.910000,21.37
34990,0.061976,-0.021472,1.381040,-59.919998,-124.389999,-16.240000,21.37
35001,0.086376,-0.043920,1.261968,-60.340000,-131.880005,-17.430000,21.33
35012,0.127856,-0.061000,1.137040,-56.770000,-135.660004,-18.900000,21.34
35023,0.154208,-0.076128,1.042856,-51.029999,-138.110001,-18.270000,21.34
35034,0.205448,-0.103944,0.945744,-43.400002,-139.369995,-16.660000,21.38
35045,0.235704,-0.109800,0.820816,-32.200001,-138.039993,-15.750000,21.38
35057,0.257176,-0.094672,0.691008,-19.670000,-136.429993,-15.400000,21.37
35068,0.297192,-0.088328,0.592432,-8.400000,-131.179993,-15.610000,21.34
35079,0.336232,-0.057584,0.509472,-2.730000,-126.419998,-12.040000,21.34
35090,0.373808,-0.029768,0.475800,0.420000,-117.250000,-7.210000,21.43
35101,0.401624,0.012688,0.448472,-2.660000,-109.900002,-2.450000,21.43
35113,0.429928,0.017568,0.395768,-7.630000,-100.309998,0.770000,21.30
35124,0.451888,-0.009760,0.340624,-13.510000,-89.529999,3.710000,21.37
35135,0.480680,-0.028792,0.291824,-21.070000,-77.559998,8.890000,21.37
35146,0.481168,-0.067832,0.274256,-27.370001,-67.900002,11.690000,21.39
35157,0.487512,-0.081496,0.301584,-33.250000,-57.189999,13.650000,21.39
35168,0.495808,-0.105896,0.325008,-34.790001,-47.389999,14.140000,21.36
35179,0.501176,-0.159576,0.355264,-34.860001,-39.200001,15.190000,21.37
35190,0.521672,-0.213744,0.386496,-31.219999,-31.850000,14.980000,21.37
35201,0.521184,-0.275720,0.400160,-22.400000,-24.150000,13.860000,21.37
35212,0.532408,-0.310856,0.427488,-13.930000,-17.080000,13.860000,21.37
35224,0.533872,-0.309392,0.470432,-6.580000,-10.290000,13.230000,21.37
35235,0.529968,-0.291824,0.505080,-0.630000,-6.020000,12.040000,21.37
35245,0.524112,-0.298168,0.519232,5.670000,-1.050000,10.640000,21.37
35256,0.525088,-0.303048,0.530944,10.290000,3.290000,9.170000,21.36
35267,0.526064,-0.310368,0.539240,14.350000,6.860000,7.140000,21.36
35278,0.523624,-0.314272,0.562664,18.480000,10.360000,5.740000,21.38
35289,0.538752,-0.303048,0.590480,20.650000,14.350000,4.060000,21.38
35300,0.533872,-0.292312,0.627568,21.840000,17.850000,2.660000,21.35
35311,0.523624,-0.268888,0.666608,21.350000,20.090000,2.240000,21.35
35322,0.512888,-0.255712,0.682224,20.719999,22.260000,1.260000,21.35
35333,0.504592,-0.241560,0.702232,19.670000,23.450001,0.420000,21.39
35344,0.506056,-0.239120,0.705648,20.020000,24.920000,-0.840000,21.39
35355,0.503616,-0.212280,0.700280,18.340000,26.950001,-0.980000,21.38
35366,0.504592,-0.213256,0.681736,16.590000,29.680000,-1.680000,21.37
35377,0.624152,-0.221552,0.654896,15.400000,33.250000,-2.310000,21.37
35388,0.494832,-0.240584,0.636840,16.799999,36.400002,-3.290000,21.41
35399,0.488000,-0.240584,0.628544,20.440001,39.970001,-3.570000,21.41
35411,0.495808,-0.200568,0.654896,19.250000,44.730000,-2.450000,21.43
35422,0.490928,-0.151768,0.704184,16.379999,48.650002,-0.980000,21.38
35433,0.476776,-0.114192,0.718824,13.580000,52.150002,0.630000,21.38
35444,0.454816,-0.107848,0.696376,10.500000,55.299999,1.330000,21.40
35455,0.431392,-0.110288,0.672464,7.210000,58.660000,2.170000,21.40
35466,0.428464,-0.113216,0.684664,2.380000,62.369999,4.760000,21.40
35477,0.422120,-0.084424,0.765184,-9.380000,64.820000,8.470000,21.36
35488,0.395768,-0.064416,0.843752,-21.770000,67.059998,10.990000,21.36
35499,0.357704,-0.086864,0.909632,-29.820000,66.150002,13.720000,21.37
35510,0.340136,-0.154208,0.924760,-33.810001,64.750000,14.630000,21.37
35521,0.323056,-0.224968,0.879864,-28.209999,63.840000,14.140000,21.38
35532,0.330376,-0.300608,0.866200,-18.200001,63.349998,14.630000,21.43
35543,0.328424,-0.314760,0.857904,-5.040000,65.800003,14.280000,21.43
35554,0.302072,-0.300120,0.880352,4.340000,66.290001,13.790000,21.37
35565,0.274744,-0.293776,0.908168,17.010000,66.570000,11.690000,21.37
35576,0.245464,-0.270840,0.923296,28.420000,64.750000,10.430000,21.37
35587,0.256200,-0.284992,0.918416,38.150002,63.910000,7.770000,21.37
35598,0.262544,-0.287432,0.912560,50.330002,64.260002,6.230000,21.43
35609,0.263032,-0.221064,0.939400,56.419998,65.449997,5.880000,21.39
35620,0.245464,-0.177632,0.992104,56.490002,65.940002,5.810000,21.39
35631,0.222528,-0.140056,1.014552,54.810001,66.849998,4.760000,21.37
35642,0.193736,-0.138592,0.995032,52.709999,67.339996,4.200000,21.37
35653,0.172752,-0.166896,0.960872,55.860001,68.110001,1.820000,21.40
35664,0.162504,-0.141032,0.934032,55.930000,68.809998,1.750000,21.37
35675,0.154696,-0.107848,0.996008,50.540001,70.070000,2.380000,21.37
35686,0.139080,-0.058560,1.071648,41.230000,70.070000,3.710000,21.41
35697,0.121512,0.002928,1.158024,30.100000,69.089996,4.620000,21.41
35707,0.084424,-0.010736,1.209264,17.639999,66.290001,4.830000,21.41
35719,0.075640,-0.059536,1.221464,9.520000,63.490002,4.130000,21.36
35729,0.026840,-0.100040,1.250256,6.790000,61.389999,2.940000,21.36
35740,0.047336,-0.164944,1.265872,6.860000,61.389999,2.030000,21.34
35751,0.009272,-0.203496,1.292224,14.700000,54.250000,1.470000,21.34
35762,0.018544,-0.189832,1.327848,20.790001,51.099998,-1.330000,21.36
35773,-0.021472,-0.158600,1.363472,25.690001,46.900002,-3.990000,21.36
35784,-0.033672,-0.103944,1.404464,24.920000,40.740002,-5.110000,21.37
35795,-0.054656,-0.118096,1.483032,24.850000,32.830002,-6.580000,21.35
35806,-0.060024,-0.114680,1.558672,24.709999,23.660000,-8.610000,21.35
35818,-0.063928,-0.088816,1.625040,20.650000,15.820000,-9.450000,21.39
35829,-0.072712,-0.071248,1.681160,11.760000,5.180000,-10.500000,21.39
35840,-0.083936,-0.069296,1.687504,5.670000,-5.250000,-12.670000,21.41
35851,-0.091744,-0.076128,1.677744,3.500000,-16.170000,-14.140000,21.34
35862,-0.105408,-0.070272,1.650904,5.390000,-28.980000,-15.820000,21.34
35873,-0.095160,-0.023424,1.616744,3.640000,-36.680000,-16.170000,21.35
35885,-0.091256,0.011224,1.612840,-2.450000,-46.130001,-15.890000,21.35
35896,-0.080032,0.032696,1.615768,-10.920000,-58.240002,-14.770000,21.43
35907,-0.052216,-0.003904,1.627480,-18.200001,-69.580002,-16.590000,21.37
35918,-0.027816,-0.017080,1.628456,-22.889999,-80.080002,-17.500000,21.37
35930,-0.021472,-0.032696,1.606008,-25.480000,-90.230003,-17.080000,21.39
