timestamp_ms,ax,ay,az,gx,gy,gz,tempC
7106829,0.358192,0.192760,0.993080,-16.590000,-29.260000,19.250000,21.91
7106840,0.394792,0.201544,0.983320,-16.100000,-29.610001,19.740000,21.91
7106852,0.430904,0.193736,0.958432,-17.639999,-28.629999,19.459999,21.87
7106863,0.451888,0.116144,0.897920,-14.630000,-26.389999,17.639999,21.89
7106874,0.458720,0.123952,0.856928,-11.970000,-24.920000,16.799999,21.89
7106885,0.458232,0.163968,0.820328,-11.270000,-22.610001,16.660000,21.89
7106896,0.476776,0.175680,0.803736,-11.270000,-20.440001,16.660000,21.89
7106907,0.488000,0.219112,0.831064,-15.190000,-20.090000,17.500000,21.89
7106918,0.498736,0.248880,0.855464,-25.830000,-20.160000,18.129999,21.86
7106929,0.528504,0.192272,0.883280,-30.379999,-20.020000,18.830000,21.86
7106940,0.541680,0.148840,0.923784,-43.400002,-21.000000,19.040001,21.85
7106950,0.560224,0.081984,0.921344,-44.590000,-20.930000,16.730000,21.85
7106961,0.564128,0.017080,0.916952,-41.160000,-20.650000,14.630000,21.89
7106972,0.578768,-0.014640,0.867664,-30.520000,-19.389999,12.250000,21.89
7106984,0.591456,0.001952,0.811056,-24.920000,-18.129999,9.590000,21.89
7106995,0.622200,0.002440,0.779336,-21.139999,-16.309999,7.420000,21.88
7107006,0.660752,0.016592,0.783728,-19.950001,-13.580000,4.830000,21.88
7107016,0.671976,0.032208,0.812032,-23.309999,-11.760000,1.960000,21.91
7107027,0.681248,0.013664,0.858392,-28.280001,-11.340000,0.420000,21.88
7107038,0.691008,-0.013664,0.874496,-29.889999,-10.150000,-2.030000,21.88
7107049,0.674416,-0.025376,0.920368,-32.200001,-10.430000,-4.130000,21.87
7107060,0.672464,-0.032208,0.934032,-31.850000,-10.430000,-5.460000,21.87
7107071,0.696864,-0.059048,0.909144,-28.629999,-8.890000,-8.960000,21.89
7107082,0.699792,-0.093208,0.868152,-25.200001,-6.160000,-12.670000,21.89
7107093,0.689056,-0.111752,0.829600,-20.299999,-3.570000,-16.730000,21.91
7107104,0.677344,-0.122976,0.819352,-10.990000,0.280000,-21.209999,21.90
7107115,0.666120,-0.114680,0.829600,-0.490000,3.640000,-26.459999,21.90
7107126,0.650504,-0.104432,0.846192,5.600000,6.650000,-30.520000,21.89
7107137,0.628056,-0.060024,0.845704,8.820000,8.120000,-33.110001,21.89
7107148,0.623176,0.003904,0.860832,7.280000,10.010000,-35.630001,21.91
7107159,0.586088,0.065392,0.899872,0.840000,11.830000,-38.360001,21.86
7107170,0.549000,0.102480,0.932080,-9.170000,12.740000,-39.619999,21.86
7107181,0.533384,0.138104,0.907680,-23.730000,15.190000,-39.270000,21.91
7107192,0.512888,0.137128,0.876448,-36.119999,17.990000,-39.549999,21.91
7107203,0.493368,0.103944,0.821304,-48.020000,21.700001,-41.790001,21.89
7107214,0.465552,0.064904,0.827648,-49.070000,27.719999,-45.009998,21.89
7107225,0.388448,0.044896,0.861320,-41.439999,31.360001,-49.840000,21.89
7107236,0.345016,0.063928,0.878400,-29.540001,32.060001,-52.430000,21.89
7107247,0.345992,0.081008,0.883768,-26.740000,32.759998,-53.619999,21.89
7107258,0.346480,0.063440,0.877424,-20.580000,36.610001,-56.770000,21.90
7107269,0.317688,0.097112,0.889624,-18.340000,37.939999,-60.970001,21.90
7107279,0.268888,0.108336,0.889624,-21.980000,41.369999,-62.650002,21.92
7107291,0.215208,0.129320,0.882792,-33.320000,41.439999,-63.770000,21.89
7107302,0.194224,0.171776,0.890600,-37.869999,42.490002,-64.120003,21.89
7107312,0.146400,0.190320,0.912560,-39.200001,44.590000,-66.220001,21.86
7107323,0.134200,0.159088,0.896456,-38.709999,45.990002,-66.849998,21.86
7107334,0.173728,0.101504,0.876936,-36.470001,48.299999,-67.059998,21.88
7107345,0.171776,0.081496,0.889136,-35.349998,51.939999,-70.349998,21.91
7107356,0.101016,0.097600,0.918416,-34.230000,54.529999,-72.800003,21.91
7107367,0.071736,0.128832,0.932080,-36.610001,54.950001,-74.199997,21.84
7107378,0.083448,0.100528,0.931104,-39.900002,55.090000,-76.230003,21.84
7107389,0.062952,0.068320,0.941840,-43.680000,55.369999,-79.239998,21.93
7107400,0.024888,0.023912,0.941352,-43.680000,59.570000,-86.169998,21.93
7107411,-0.030744,0.004392,0.896456,-36.820000,61.250000,-91.769997,21.90
7107422,-0.062952,0.003416,0.851072,-29.540001,64.330002,-94.639999,21.91
7107433,-0.100040,-0.042456,0.844240,-26.320000,67.199997,-96.389999,21.91
7107444,-0.182512,-0.110288,0.930616,-20.790001,69.230003,-98.559998,21.89
7107455,-0.252784,-0.082472,0.983808,-6.510000,67.620003,-99.540001,21.89
7107467,-0.286456,-0.000488,1.003328,6.370000,61.599998,-93.519997,21.89
7107478,-0.276696,0.043432,1.032120,9.100000,55.439999,-87.010002,21.90
7107489,-0.282064,0.075640,1.064816,4.690000,49.980000,-79.029999,21.90
7107499,-0.287432,0.079544,1.115080,0.840000,45.919998,-69.300003,21.93
7107510,-0.281088,0.055632,1.119472,1.120000,38.080002,-59.500000,21.93
7107521,-0.239608,0.072712,1.126304,3.010000,29.610001,-45.290001,21.90
7107532,-0.223016,0.055632,1.132648,6.930000,21.490000,-31.150000,21.88
7107543,-0.187392,0.043432,1.116056,12.880000,12.810000,-20.230000,21.88
7107554,-0.142984,0.033672,1.078968,17.430000,5.460000,-7.700000,21.94
7107565,-0.132736,0.043920,1.067256,16.799999,0.210000,3.500000,21.94
7107576,-0.141520,0.032696,1.113128,11.830000,-4.550000,13.720000,21.87
7107587,-0.135664,0.011224,1.156560,10.990000,-11.340000,19.879999,21.91
7107598,-0.131760,-0.005856,1.138016,14.560000,-18.760000,27.299999,21.91
7107610,-0.104920,-0.007320,1.091168,17.850000,-23.870001,31.639999,21.87
7107621,-0.097600,0.024400,1.098488,17.360001,-27.020000,34.299999,21.87
7107632,-0.085888,0.020496,1.088728,17.709999,-31.639999,36.259998,21.90
7107650,-0.050752,-0.006344,1.056520,23.379999,-31.920000,40.110001,21.92
7107661,-0.070760,0.048312,1.061400,10.220000,-38.080002,43.049999,21.92
7107673,-0.068320,0.028792,1.069696,6.860000,-39.060001,46.480000,21.91
7107683,-0.052704,0.009760,1.047736,11.760000,-40.110001,48.930000,21.92
7107695,-0.032696,0.041968,1.038952,21.000000,-41.160000,49.770000,21.92
7107706,-0.022936,0.070760,0.999912,27.860001,-41.650002,50.119999,21.93
7107717,0.005368,0.083936,0.963800,33.110001,-40.250000,50.189999,21.93
7107728,0.020008,0.110776,0.927688,31.920000,-39.340000,50.119999,21.85
7107739,0.013664,0.101016,0.943792,28.910000,-36.750000,49.770000,21.89
7107750,-0.002928,0.164944,0.993568,21.350000,-38.430000,51.869999,21.89
7107761,-0.005856,0.193248,0.983808,11.410000,-40.250000,54.740002,21.89
7107772,0.075152,0.142984,0.952088,8.190000,-40.250000,56.349998,21.89
7107782,0.147376,0.143960,0.935984,6.370000,-38.779999,56.139999,21.92
7107793,0.139080,0.160064,0.927200,5.390000,-36.330002,54.669998,21.86
7107804,0.132248,0.141520,0.937448,6.580000,-35.070000,53.689999,21.86
7107815,0.145912,0.075640,0.924272,11.060000,-33.180000,51.380001,21.91
7107826,0.174216,0.080520,0.892552,17.780001,-31.430000,50.680000,21.91
7107837,0.248392,0.106872,0.881328,17.080000,-29.049999,50.889999,21.91
7107847,0.265960,0.119072,0.914512,13.720000,-26.180000,48.580002,21.91
7107858,0.274256,0.131272,0.974536,10.290000,-25.620001,45.849998,21.87
7107869,0.290360,0.138592,0.986248,5.950000,-25.830000,44.240002,21.93
7107880,0.284992,0.119560,0.978928,3.150000,-25.830000,41.020000,21.93
7107892,0.281088,0.089792,0.945256,3.850000,-25.270000,37.730000,21.93
7107903,0.353800,0.056120,0.902800,5.670000,-23.590000,35.700001,21.93
7107914,0.412360,0.031232,0.903288,8.260000,-20.299999,31.500000,21.89
7107925,0.427976,0.034160,0.898896,10.920000,-15.750000,27.020000,21.89
7107936,0.433832,0.043432,0.930616,10.150000,-13.720000,24.080000,21.89
7107947,0.421632,0.073200,0.960384,7.420000,-12.810000,19.950001,21.92
7107958,0.423584,0.089792,0.956968,2.940000,-12.180000,18.620001,21.92
7107969,0.468480,0.082472,0.941352,-2.100000,-10.920000,17.010000,21.91
7107980,0.496296,0.044896,0.939400,-5.880000,-7.840000,12.600000,21.93
7107991,0.507032,0.016104,0.972584,-7.280000,-4.550000,9.870000,21.93
7108002,0.504104,-0.002928,1.008696,-3.920000,-2.380000,6.230000,21.94
7108013,0.513864,0.032208,1.003328,-3.570000,-1.190000,3.920000,21.94
7108024,0.526064,0.030744,0.981368,-4.970000,0.560000,1.820000,21.92
7108035,0.538264,0.021960,0.977952,-3.710000,3.780000,-1.190000,21.92
7108046,0.543632,0.024400,0.991128,-3.080000,6.440000,-4.130000,21.93
7108057,0.536312,0.023424,1.024800,-3.710000,9.520000,-7.140000,21.88
7108068,0.519232,0.047336,1.044320,-6.160000,10.780000,-9.100000,21.88
7108079,0.505080,0.076128,1.045784,-10.430000,12.320000,-12.040000,21.91
7108090,0.485072,0.044408,1.036512,-11.410000,14.490000,-14.980000,21.91
7108101,0.470432,0.007320,1.021872,-10.850000,16.590000,-17.990000,21.85
7108112,0.453352,-0.025864,1.004304,-7.280000,19.320000,-21.209999,21.87
7108123,0.427976,-0.028792,0.998448,-0.490000,22.190001,-25.969999,21.87
7108134,0.394304,0.006832,1.002840,2.380000,23.730000,-29.959999,21.89
7108145,0.357704,0.039528,1.000400,1.610000,24.010000,-32.270000,21.89
7108156,0.322568,0.077104,0.997472,-3.430000,24.500000,-34.509998,21.93
7108167,0.296216,0.099552,0.994056,-9.730000,25.690001,-36.259998,21.90
7108178,0.282552,0.113216,0.986736,-18.549999,26.809999,-37.520000,21.90
7108189,0.252784,0.092720,1.017480,-28.980000,28.280001,-38.779999,21.90
7108200,0.211304,0.004880,1.039928,-31.990000,28.350000,-42.139999,21.90
7108211,0.197640,-0.026352,1.022848,-28.420000,28.629999,-46.549999,21.94
7108222,0.184952,-0.040016,0.984296,-21.280001,28.980000,-50.959999,21.91
7108233,0.169824,-0.038064,0.946720,-13.020000,30.379999,-55.020000,21.91
7108244,0.146400,-0.027328,0.918416,-8.400000,33.110001,-59.430000,21.92
7108255,0.107848,-0.026840,0.902312,-2.590000,34.509998,-63.840000,21.92
7108266,0.081984,0.008296,0.929152,1.400000,36.820000,-66.290001,21.90
7108277,0.031232,0.041480,0.943792,1.610000,37.310001,-68.949997,21.90
7108288,0.008784,0.054168,0.959408,-0.280000,37.939999,-70.000000,21.92
7108299,-0.010736,0.072712,0.946720,-7.210000,38.779999,-70.279999,21.92
7108310,-0.031232,0.096624,0.939888,-17.570000,40.459999,-71.050003,21.92
7108321,-0.049288,0.087840,0.937448,-25.270000,42.840000,-71.750000,21.92
7108332,-0.059048,0.098576,0.945256,-35.070000,44.799999,-73.290001,21.92
7108344,-0.082960,0.066856,0.985760,-42.910000,46.830002,-74.550003,21.88
7108355,-0.143472,-0.017080,1.070672,-42.910000,46.130001,-76.230003,21.89
7108366,-0.204472,-0.066368,1.098488,-34.230000,42.840000,-78.820000,21.89
7108377,-0.221064,-0.075640,1.063840,-26.459999,39.060001,-79.029999,21.93
7108389,-0.202032,-0.079544,1.011624,-13.930000,38.779999,-78.680000,21.93
7108400,-0.203984,-0.019520,0.986736,1.400000,37.869999,-77.000000,21.85
7108411,-0.209352,0.031720,1.024800,19.040001,35.279999,-70.070000,21.87
7108423,-0.217160,0.115168,1.063352,28.490000,28.700001,-58.380001,21.87
7108434,-0.199592,0.196176,1.101416,26.600000,20.719999,-46.480000,21.88
7108445,-0.187392,0.229848,1.168760,1.680000,11.340000,-29.120001,21.88
7108456,-0.185928,0.210816,1.168760,11.690000,2.380000,-12.390000,21.86
7108467,-0.149328,0.194224,1.114104,4.130000,-4.760000,4.690000,21.86
7108478,-0.110288,0.134688,1.069208,-0.560000,-11.200000,16.870001,21.86
7108489,-0.100040,0.095648,1.016504,-1.610000,-14.840000,27.790001,21.91
7108500,-0.110776,0.054168,1.011624,-1.260000,-16.940001,35.700001,21.91
7108512,-0.129808,0.043432,1.014064,0.910000,-20.580000,40.320000,21.88
7108523,-0.111264,0.018056,1.022360,2.800000,-23.450001,42.070000,21.90
7108534,-0.102968,-0.022936,1.022848,6.860000,-25.690001,43.049999,21.90
7108545,-0.086864,-0.016592,1.008696,12.110000,-27.160000,43.049999,21.91
7108556,-0.073688,-0.009760,1.004304,13.580000,-28.420000,43.400002,21.91
7108567,-0.074176,-0.014640,0.996984,17.430000,-29.049999,43.959999,21.91
7108578,-0.082472,-0.004392,0.993080,22.120001,-29.680000,45.360001,21.93
7108590,-0.057096,-0.012688,1.002840,26.320000,-29.820000,46.549999,21.93
7108601,-0.048312,0.004880,1.002352,30.940001,-29.120001,46.689999,21.91
7108612,-0.050752,0.044408,1.016016,30.379999,-30.100000,48.230000,21.91
7108623,-0.042456,0.060024,1.035536,27.020000,-30.799999,49.279999,21.92
7108634,-0.059536,0.048312,1.053592,26.110001,-32.130001,50.049999,21.91
7108645,-0.112728,0.099064,1.052128,26.459999,-34.790001,52.849998,21.91
7108656,-0.135176,0.112728,1.012600,26.530001,-36.470001,56.630001,21.94
7108667,-0.060024,0.084424,0.960872,28.209999,-39.340000,60.270000,21.94
7108678,0.032696,0.054168,0.928176,26.950001,-35.349998,58.939999,21.87
7108690,0.016104,0.024400,0.944768,27.370001,-33.950001,57.189999,21.85
7108701,0.027328,0.043432,0.963800,33.810001,-32.549999,55.720001,21.85
7108711,0.031720,0.063440,0.991128,37.240002,-31.360001,55.369999,21.88
7108722,0.001464,0.125904,1.000400,35.139999,-31.920000,55.230000,21.88
7108733,-0.015616,0.162504,0.986248,28.629999,-35.070000,56.980000,21.89
7108744,0.039528,0.173728,0.967704,19.809999,-37.660000,57.889999,21.92
7108755,0.090280,0.164944,0.956968,10.710000,-33.880001,56.910000,21.92
7108767,0.111752,0.128832,0.979904,4.900000,-32.200001,55.369999,21.85
7108777,0.114680,0.098088,0.985760,5.180000,-31.570000,51.590000,21.85
7108790,0.104432,0.088328,0.978928,9.450000,-31.150000,48.650002,21.89
7108801,0.103944,0.049776,0.948184,16.240000,-30.730000,46.060001,21.92
7108812,0.143472,0.030256,0.897432,25.410000,-29.469999,44.799999,21.92
7108823,0.247904,0.057096,0.902312,28.350000,-28.000000,43.189999,21.89
7108834,0.278648,0.112240,0.943304,24.990000,-25.969999,39.619999,21.89
7108845,0.304512,0.164944,0.968680,19.180000,-23.940001,36.820000,21.89
7108855,0.316712,0.201544,1.007232,11.480000,-23.799999,35.000000,21.89
7108867,0.318664,0.193248,1.019432,2.380000,-24.010000,32.900002,21.86
7108878,0.349896,0.182512,0.996496,-2.730000,-24.430000,31.500000,21.95
7108889,0.408456,0.151768,0.971608,-6.580000,-23.940001,28.700001,21.95
7108900,0.459696,0.097112,0.952576,-3.640000,-20.860001,24.500000,21.88
7108911,0.474336,0.070272,0.905240,-7.490000,-19.950001,18.620001,21.88
7108922,0.505080,0.045384,0.949160,6.510000,-14.420000,15.680000,21.85
7108934,0.514840,0.072712,0.972096,10.640000,-12.950000,12.880000,21.89
7108944,0.530944,0.122488,0.987224,6.790000,-12.390000,12.250000,21.89
7108955,0.537288,0.168360,1.003816,-0.210000,-11.550000,10.850000,21.89
7108967,0.546072,0.182024,1.016504,-10.500000,-10.640000,9.660000,21.89
7108978,0.553880,0.182024,1.030656,-20.299999,-9.870000,8.750000,21.89
7108989,0.557296,0.131272,1.029680,-28.280001,-8.050000,7.350000,21.86
7109000,0.567056,0.086864,1.013576,-31.360001,-5.530000,5.530000,21.86
7109011,0.566080,0.047336,1.007720,-29.330000,-3.080000,2.940000,21.92
7109022,0.567056,0.008296,1.003328,-20.860001,0.560000,0.140000,21.92
7109033,0.551928,-0.020008,1.011136,-9.730000,3.360000,-3.640000,21.93
7109044,0.526552,-0.015616,1.025288,4.550000,5.320000,-7.560000,21.90
7109055,0.497272,0.027328,1.036512,14.630000,6.160000,-10.430000,21.90
7109066,0.473360,0.070760,1.027728,18.200001,6.720000,-12.530000,21.91
7109077,0.460672,0.085400,0.997960,17.080000,8.470000,-14.980000,21.91
7109088,0.451400,0.111752,0.969168,13.020000,9.800000,-16.590000,21.89
7109099,0.433344,0.117120,0.977464,2.660000,11.340000,-17.990000,21.87
7109110,0.410408,0.074664,0.982344,-2.030000,12.880000,-21.139999,21.87
7109121,0.396256,0.035136,0.973560,-2.520000,14.420000,-24.920000,21.92
7109132,0.366488,0.010248,0.953552,3.290000,16.520000,-28.280001,21.92
7109143,0.333792,0.048800,0.930128,5.950000,17.709999,-31.430000,21.88
7109153,0.322080,0.059048,0.911096,5.530000,19.389999,-34.650002,21.88
7109164,0.302072,0.059048,0.907192,3.640000,22.469999,-37.240002,21.89
7109175,0.267912,0.088328,0.919880,-1.540000,25.270000,-39.480000,21.87
7109186,0.240584,0.108336,0.943304,-8.190000,26.530001,-42.000000,21.87
7109197,0.210328,0.094672,0.951112,-16.590000,28.280001,-44.520000,21.91
7109208,0.189344,0.040992,0.950624,-17.150000,30.170000,-47.740002,21.91
7109219,0.163480,0.017080,0.931592,-13.020000,32.410000,-52.080002,21.91
7109230,0.142496,0.023424,0.898408,-6.370000,34.509998,-56.000000,21.86
7109241,0.123952,0.030744,0.881328,-1.190000,38.009998,-59.009998,21.86
7109252,0.089792,0.052216,0.902800,-0.770000,40.599998,-61.740002,21.91
7109263,0.051240,0.074176,0.946720,-4.830000,41.650002,-64.330002,21.91
7109274,0.032208,0.102968,0.973560,-15.120000,40.740002,-65.099998,21.91
7109285,0.023424,0.071248,0.984296,-21.840000,40.459999,-68.250000,21.91
7109296,0.029280,0.045872,0.987712,-22.190001,40.389999,-72.449997,21.84
7109307,0.031232,0.040992,0.984296,-17.360001,40.250000,-78.120003,21.92
7109318,-0.015616,0.073200,0.959896,-10.430000,42.840000,-82.949997,21.92
7109329,-0.071736,0.144936,0.962336,-11.760000,44.310001,-86.519997,21.92
7109340,-0.120536,0.088328,1.001376,-14.280000,45.220001,-89.459999,21.92
7109351,-0.156648,0.037576,1.055056,-17.010000,44.029999,-91.839996,21.89
7109363,-0.234728,0.040504,1.105808,-15.540000,39.410000,-92.120003,21.91
7109374,-0.254736,0.073688,1.104344,-7.700000,33.180000,-88.410004,21.91
7109385,-0.249368,0.116632,1.069696,-0.630000,28.490000,-81.550003,21.89
7109396,-0.244488,0.132736,1.053104,8.260000,26.040001,-73.430000,21.89
7109407,-0.242536,0.183000,1.042368,13.580000,23.520000,-61.529999,21.92
7109418,-0.230824,0.200568,1.051152,14.840000,17.290001,-48.860001,21.87
7109429,-0.216672,0.214720,1.087264,13.860000,9.310000,-31.219999,21.87
7109440,-0.197640,0.245952,1.073112,8.890000,2.100000,-13.090000,21.93
7109451,-0.156648,0.226920,1.037488,0.700000,-2.380000,0.000000,21.93
7109462,-0.162016,0.181536,1.018456,-5.810000,-5.810000,14.070000,21.91
7109474,-0.166896,0.157136,1.017968,-9.660000,-9.310000,24.570000,21.92
7109485,-0.163968,0.102968,1.036512,-11.690000,-12.040000,31.500000,21.92
7109496,-0.154696,0.042456,1.032608,-8.680000,-15.820000,35.419998,21.91
7109508,-0.143472,0.022936,1.012112,-3.710000,-19.040001,37.450001,21.91
7109519,-0.118096,0.003904,0.874984,2.170000,-20.370001,37.730000,21.88
7109530,-0.105408,0.006832,0.992592,7.980000,-21.700001,36.680000,21.87
7109541,-0.098088,0.022936,0.994544,10.850000,-23.379999,36.750000,21.87
7109552,-0.098088,0.051728,0.997472,11.830000,-24.639999,37.869999,21.88
7109563,-0.108336,0.107848,1.002352,6.230000,-26.530001,41.439999,21.88
7109574,-0.118096,0.112240,1.014552,1.260000,-28.280001,46.200001,21.88
7109585,-0.108336,0.115168,1.022360,-0.840000,-29.330000,50.049999,21.92
7109596,-0.109312,0.125416,1.024800,-3.500000,-30.379999,52.150002,21.92
7109607,-0.054168,0.073200,1.032120,-3.220000,-30.240000,52.639999,21.89
7109618,-0.026352,0.024400,1.031144,0.840000,-29.540001,49.770000,21.89
7109629,-0.028304,0.018544,1.024312,9.380000,-30.240000,46.970001,21.88
7109640,-0.031232,0.019520,1.027728,16.590000,-30.170000,45.360001,21.87
7109651,-0.053680,0.034160,1.005768,21.420000,-31.360001,44.310001,21.87
7109662,-0.040992,0.099064,0.994544,21.139999,-34.299999,46.130001,21.91
7109673,0.000976,0.136152,0.997472,16.520000,-37.869999,46.410000,21.91
7109684,0.024888,0.148840,1.023336,11.130000,-39.480000,45.570000,21.92
7109695,0.033184,0.134688,1.014552,10.780000,-40.459999,44.869999,21.92
7109706,0.085888,0.111752,0.977464,12.880000,-39.619999,44.590000,21.88
7109718,0.122000,0.100040,0.958920,13.650000,-35.209999,42.279999,21.89
7109729,0.118584,0.082960,0.948184,16.450001,-33.669998,40.529999,21.89
7109740,0.119072,0.142008,0.955504,13.720000,-30.450001,40.529999,21.94
7109751,0.100040,0.139568,0.973072,11.200000,-30.379999,41.020000,21.94
7109762,0.131760,0.131760,0.978440,12.950000,-30.730000,41.090000,21.91
7109773,0.156160,0.140056,0.978440,13.020000,-30.940001,39.689999,21.84
7109784,0.196176,0.144448,0.964776,11.130000,-30.170000,38.360001,21.84
7109795,0.247904,0.151280,0.939888,10.710000,-27.860001,36.330002,21.89
7109806,0.293776,0.149328,0.925736,10.080000,-24.990000,34.509998,21.89
7109817,0.332816,0.122000,0.945744,9.520000,-20.580000,31.920000,21.91
7109828,0.337208,0.090768,0.930128,8.050000,-18.969999,28.490000,21.85
7109839,0.343064,0.144936,0.983808,9.030000,-16.799999,27.510000,21.85
7109850,0.380152,0.173728,0.973560,5.320000,-16.100000,26.530001,21.89
7109861,0.419192,0.183000,0.967704,-1.890000,-14.490000,24.219999,21.89
7109872,0.440664,0.157624,0.984784,-9.310000,-14.070000,20.719999,21.89
7109883,0.458720,0.097600,0.990640,-8.400000,-10.150000,17.080000,21.89
7109894,0.446032,0.095160,1.015040,-7.000000,-9.450000,13.510000,21.89
7109905,0.458720,0.119072,1.016016,-5.880000,-9.030000,11.200000,21.88
7109916,0.478240,0.130784,0.991128,-7.280000,-8.190000,9.660000,21.88
7109927,0.500688,0.130296,0.976976,-11.270000,-5.950000,7.910000,21.92
7109938,0.514352,0.098088,1.002840,-13.510000,-2.870000,6.160000,21.87
7109949,0.507032,0.066368,1.019920,-9.380000,-0.700000,3.080000,21.87
7109960,0.491416,0.115656,1.029680,-5.950000,-0.070000,1.050000,21.91
7109971,0.485072,0.120048,1.016992,-6.300000,1.190000,-0.700000,21.91
7109982,0.487024,0.101504,1.007232,-6.860000,3.430000,-2.590000,21.92
7109993,0.480192,0.096624,0.998448,-6.930000,5.600000,-5.040000,21.92
7110004,0.456280,0.098576,1.011136,-6.720000,8.120000,-7.210000,21.94
7110015,0.432368,0.074176,1.018456,-3.430000,9.940000,-9.240000,21.89
7110026,0.407968,0.086376,1.016992,-1.190000,10.990000,-10.990000,21.89
7110037,0.401624,0.092232,0.995520,0.000000,12.110000,-13.370000,21.89
7110048,0.392840,0.072712,0.976488,2.380000,15.050000,-15.890000,21.89
7110059,0.376736,0.047336,0.959408,7.280000,17.920000,-19.459999,21.89
7110070,0.351360,0.045384,0.953064,13.580000,20.370001,-23.030001,21.93
7110081,0.314760,0.073688,0.957944,16.450001,22.469999,-25.340000,21.93
7110092,0.280112,0.130784,0.959408,11.200000,23.240000,-27.160000,21.91
7110102,0.260592,0.141032,0.959408,1.610000,23.450001,-28.980000,21.91
7110113,0.240096,0.135664,0.967216,-8.330000,24.360001,-30.660000,21.91
7110124,0.222040,0.109800,0.960872,-14.210000,25.340000,-32.900002,21.91
7110135,0.215208,0.088816,0.932080,-19.110001,27.090000,-35.770000,21.89
7110146,0.201056,0.063928,0.899872,-20.860001,30.660000,-38.849998,21.89
7110157,0.168360,0.056608,0.896944,-20.440001,33.880001,-42.490002,21.89
7110168,0.128344,0.035624,0.929640,-19.950001,35.910000,-46.830002,21.90
7110179,0.087352,0.023424,0.946720,-17.219999,36.680000,-49.840000,21.90
7110190,0.060512,0.022936,0.964288,-15.820000,36.400002,-52.990002,21.86
7110201,0.058560,-0.009272,0.976488,-13.720000,36.119999,-57.610001,21.88
7110212,0.063928,-0.015616,0.961360,-9.520000,36.330002,-63.840000,21.88
7110223,0.039040,-0.009272,0.940376,-2.170000,38.360001,-69.230003,21.89
7110234,-0.009760,0.029768,0.935496,3.010000,40.110001,-74.970001,21.89
7110245,-0.040016,0.038064,0.922320,4.480000,41.439999,-78.889999,21.91
7110256,-0.075640,0.050752,0.933544,1.890000,42.840000,-79.660004,21.90
7110267,-0.094672,0.109312,0.945744,-6.440000,43.470001,-79.309998,21.90
7110278,-0.128832,0.179096,0.971608,-19.320000,44.799999,-77.629997,21.89
7110289,-0.187880,0.151280,1.040416,-34.860001,43.959999,-74.550003,21.89
7110301,-0.255224,0.068320,1.102880,-40.180000,39.759998,-70.699997,21.88
7110312,-0.262056,0.032696,1.126792,-34.860001,34.299999,-65.940002,21.90
7110323,-0.246928,-0.004392,1.111176,-20.160000,29.330000,-61.389999,21.90
7110335,-0.248392,0.015616,1.068720,-3.010000,24.219999,-54.389999,21.88
7110346,-0.216672,0.068320,1.024312,6.230000,20.719999,-44.660000,21.88
7110357,-0.212280,0.101504,1.044808,12.180000,17.430000,-33.320000,21.91
7110368,-0.218624,0.095648,1.089216,15.470000,11.270000,-23.450001,21.90
7110379,-0.213256,0.125904,1.089704,16.520000,2.660000,-8.960000,21.90
7110390,-0.196176,0.144448,1.070672,13.650000,-3.780000,4.270000,21.87
7110401,-0.190320,0.129808,1.059936,7.980000,-7.140000,15.190000,21.87
7110412,-0.192272,0.130296,1.061888,3.010000,-10.500000,21.840000,21.88
7110423,-0.185440,0.092232,1.061888,0.560000,-13.930000,28.070000,21.88
7110434,-0.173240,0.033672,1.045296,1.540000,-16.870001,32.480000,21.90
7110446,-0.156648,0.012688,1.037976,4.410000,-18.830000,34.230000,21.92
7110457,-0.135664,0.020984,1.022848,7.700000,-21.910000,35.279999,21.92
7110468,-0.096624,0.002928,1.036512,10.570000,-21.770000,35.209999,21.91
7110479,-0.110288,0.038552,1.048224,13.090000,-23.660000,35.560001,21.91
7110490,-0.108824,0.074664,1.071648,13.440000,-25.270000,37.660000,21.86
7110501,-0.101016,0.062464,1.084336,14.000000,-26.950001,39.410000,21.89
7110512,-0.116632,0.075152,1.081408,13.160000,-28.980000,42.349998,21.89
7110523,-0.122976,0.099552,1.067256,10.990000,-30.660000,45.990002,21.88
7110534,-0.120536,0.076616,1.052128,9.450000,-31.709999,48.650002,21.88
7110545,-0.085888,0.042456,1.037488,13.720000,-32.480000,49.560001,21.92
7110556,-0.057096,0.107360,1.022360,16.379999,-32.900002,50.049999,21.90
7110567,-0.063440,0.152256,1.027240,17.219999,-33.110001,49.980000,21.90
7110578,-0.071248,0.178120,1.020896,13.510000,-34.650002,51.730000,21.90
7110589,-0.078080,0.168848,1.012600,7.210000,-36.540001,53.549999,21.90
7110601,-0.074664,0.137128,0.996496,2.730000,-37.240002,56.070000,21.94
7110611,-0.070272,0.125904,1.017968,0.630000,-38.150002,58.520000,21.85
7110622,-0.078568,0.123464,1.033096,4.760000,-39.619999,59.639999,21.85
7110633,-0.031232,0.118096,1.034072,10.080000,-41.299999,61.040001,21.91
7110644,-0.006832,0.092720,1.017968,16.520000,-41.930000,60.060001,21.91
7110655,0.028304,0.115656,0.976000,22.610001,-42.349998,59.150002,21.90
7110666,0.061976,0.147376,0.948184,20.510000,-41.509998,59.430000,21.89
7110677,0.077104,0.186416,0.959408,12.950000,-40.250000,59.009998,21.89
7110688,0.060024,0.152256,0.975512,4.900000,-39.480000,57.610001,21.88
7110699,0.048312,0.128832,1.122888,-0.910000,-39.270000,57.259998,21.88
7110710,0.020008,0.105896,0.995032,0.000000,-40.040001,56.419998,21.93
7110721,0.089792,0.075152,0.958432,5.600000,-40.320000,56.490002,21.93
7110732,0.195200,0.067832,0.922808,12.180000,-39.200001,55.930000,21.86
7110743,0.251808,0.082960,0.917440,16.730000,-36.540001,52.919998,21.87
7110754,0.301096,0.107848,0.910608,19.389999,-33.040001,48.720001,21.87
7110765,0.341112,0.098088,0.936960,17.360001,-29.680000,44.450001,21.89
7110776,0.344528,0.091256,0.954040,13.370000,-27.860001,40.740002,21.89
7110787,0.341600,0.093696,0.955016,10.010000,-27.860001,37.450001,21.91
7110797,0.402112,0.081496,0.932568,6.860000,-26.110001,35.279999,21.89
7110808,0.447496,0.082960,0.912072,4.620000,-23.520000,31.920000,21.89
7110819,0.464088,0.061976,0.894992,5.390000,-20.230000,27.719999,21.89
7110830,0.500688,0.052216,0.895968,6.860000,-17.360001,24.570000,21.89
7110841,0.517280,0.098088,0.957456,-1.820000,-18.129999,20.719999,21.92
7110852,0.541192,0.099064,0.933056,5.950000,-12.180000,17.430000,21.92
7110863,0.550952,0.107848,0.935008,1.960000,-10.430000,14.700000,21.88
7110874,0.579744,0.083936,0.945256,-2.870000,-7.070000,13.020000,21.86
7110885,0.586088,0.072224,0.961360,-8.190000,-4.270000,10.710000,21.86
7110896,0.587064,0.068320,0.965752,-14.700000,-2.380000,8.400000,21.87
7110907,0.590480,0.044408,0.971608,-19.110001,-0.140000,6.160000,21.87
7110918,0.591456,-0.001464,0.981368,-17.010000,2.100000,2.240000,21.93
7110929,0.599752,-0.001952,0.984784,-14.000000,4.270000,-1.610000,21.87
7110941,0.607072,-0.004880,0.976976,-10.500000,7.490000,-5.950000,21.87
7110952,0.596824,-0.011712,0.995032,-6.860000,10.080000,-10.010000,21.92
7110963,0.563640,-0.004880,1.024800,-3.220000,12.110000,-13.300000,21.92
7110981,0.526552,0.006344,1.031144,-17.920000,13.930000,-19.250000,21.90
7110997,0.501664,0.038064,0.992592,-5.110000,16.309999,-23.940001,21.90
7111009,0.480680,0.025376,0.974536,-7.980000,18.690001,-28.350000,21.90
7111024,0.444080,0.040992,0.956968,-13.440000,21.840000,-33.599998,21.90
7111042,0.400648,-0.005856,0.963800,-18.900000,26.950001,-40.669998,21.89
7111055,0.365024,-0.035136,0.963800,-9.240000,30.170000,-48.090000,21.89
7111068,0.332816,-0.068808,0.970632,8.960000,33.950001,-55.020000,21.91
7111081,0.266448,-0.024400,0.966728,24.430000,36.119999,-60.900002,21.88
7111092,0.247416,0.050752,0.959408,30.660000,37.380001,-65.449997,21.88
7111103,0.185440,0.122000,0.995520,23.030001,38.360001,-67.199997,21.86
7111114,0.119560,0.200080,1.027240,9.590000,37.240002,-68.599998,21.86
7111124,0.081984,0.221552,1.030168,-12.040000,35.910000,-68.949997,21.91
7111135,0.063440,0.194712,1.013576,-31.990000,34.439999,-69.580002,21.91
7111146,0.033672,0.108824,0.993080,-42.349998,35.000000,-72.099998,21.91
7111157,0.026840,0.005368,0.903288,-43.400002,37.590000,-76.019997,21.90
7111168,0.009760,0.019520,0.894504,-44.169998,39.410000,-79.449997,21.90
7111179,-0.001464,0.009272,0.857904,-35.700001,48.020000,-82.180000,21.89
7111191,-0.084912,0.007808,0.908168,-37.869999,48.299999,-84.559998,21.88
7111202,-0.153720,-0.012688,0.978440,-33.250000,48.509998,-86.519997,21.88
7111213,-0.209352,0.005368,1.017480,-30.520000,45.430000,-86.379997,21.89
7111224,-0.243512,-0.016104,1.032120,-22.959999,44.240002,-86.309998,21.89
7111235,-0.292312,-0.013176,1.015528,-8.820000,41.930000,-84.699997,21.86
7111247,-0.296216,0.013664,0.985760,4.480000,40.529999,-80.500000,21.81
7111257,-0.311832,0.050752,1.008696,17.219999,38.360001,-74.129997,21.81
7111269,-0.348920,0.078568,1.054568,25.270000,32.970001,-68.180000,21.90
7111280,-0.344040,0.169336,1.060424,23.170000,24.570000,-56.279999,21.90
7111291,-0.291824,0.214720,1.034560,16.590000,17.430000,-42.419998,21.87
7111302,-0.251320,0.227896,1.007720,5.390000,12.810000,-27.930000,21.85
7111313,-0.221064,0.210328,1.015528,-7.770000,8.540000,-17.430000,21.85
7111324,-0.217648,0.155672,1.037000,-15.330000,4.690000,-5.740000,21.87
7111335,-0.224968,0.078080,1.067256,-13.720000,-0.140000,4.760000,21.87
7111348,-0.231312,0.022936,1.067744,-2.380000,-6.650000,14.000000,21.89
7111359,-0.209840,0.011224,1.054080,8.260000,-12.180000,22.750000,21.87
7111371,-0.191784,0.026352,1.041880,14.560000,-15.330000,28.910000,21.87
7111384,-0.185440,0.035624,1.034560,19.670000,-17.920000,33.740002,21.89
7111395,-0.180560,0.057096,1.036024,21.420000,-19.950001,37.869999,21.79
7111406,-0.195688,0.100040,1.065792,16.799999,-23.100000,41.439999,21.79
7111417,-0.209352,0.106872,1.071648,11.340000,-27.580000,47.180000,21.92
7111428,-0.208864,0.094672,1.076528,6.230000,-30.870001,53.410000,21.92
7111439,-0.218136,0.089792,1.066768,3.220000,-33.180000,59.080002,21.88
7111450,-0.230336,0.095160,1.043344,2.170000,-35.139999,63.490002,21.89
7111461,-0.185928,0.040992,1.012112,3.780000,-35.560001,67.760002,21.89
7111473,-0.145424,0.012200,1.012600,12.460000,-35.349998,68.250000,21.88
7111484,-0.142984,0.029280,1.037000,18.830000,-35.700001,68.180000,21.88
7111495,-0.170800,0.232776,1.046760,17.920000,-37.310001,69.230003,21.90
7111506,-0.175192,0.137128,1.033096,12.320000,-40.950001,71.610001,21.88
7111517,-0.166896,0.117608,1.016016,9.170000,-41.860001,72.239998,21.88
7111528,-0.155184,0.117608,0.996984,5.740000,-44.029999,74.480003,21.90
7111540,-0.099064,0.061976,0.991128,5.950000,-42.980000,74.760002,21.90
7111551,-0.065880,0.037088,0.995520,12.810000,-42.630001,73.150002,21.90
7111562,-0.028304,0.030744,0.996984,22.889999,-41.509998,71.050003,21.91
7111573,0.020008,0.044408,1.004304,28.209999,-40.880001,68.110001,21.91
7111584,0.020496,0.089304,0.998936,29.889999,-41.439999,65.870003,21.89
7111595,0.062952,0.138104,0.972584,24.500000,-42.910000,65.379997,21.89
7111605,0.126392,0.152256,0.956968,15.680000,-41.860001,63.630001,21.92
7111616,0.159088,0.151768,0.962824,1.330000,-40.110001,61.180000,21.92
7111627,0.154696,0.135176,0.980392,-10.990000,-39.619999,58.869999,21.90
7111638,0.171288,0.097600,1.006256,-13.370000,-39.900002,55.860001,21.86
7111649,0.200080,0.068808,0.998936,-6.580000,-39.689999,52.080002,21.86
7111660,0.264496,0.038064,0.960384,3.430000,-40.180000,49.070000,21.87
7111671,0.350872,0.037088,0.964288,3.290000,-42.840000,44.799999,21.87
7111683,0.459696,-0.027328,0.875960,22.610001,-32.130001,39.130001,21.94
7111694,0.517768,0.022448,0.891576,21.910000,-30.520000,34.509998,21.88
7111704,0.547536,0.080520,0.918416,17.500000,-24.430000,31.780001,21.88
7111715,0.555832,0.135176,0.954528,6.370000,-23.100000,29.120001,21.86
7111727,0.558760,0.166896,0.966240,-9.520000,-23.590000,26.950001,21.86
7111739,0.595848,0.138592,0.951600,-19.459999,-22.049999,24.360001,21.92
7111750,0.639768,0.038552,0.928176,-25.969999,-20.370001,20.160000,21.87
7111761,0.684176,-0.031720,0.922320,-18.969999,-14.350000,16.730000,21.87
7111772,0.705160,-0.067344,0.929640,-8.050000,-9.800000,10.990000,21.89
7111783,0.706624,-0.048312,0.955016,1.400000,-5.740000,6.090000,21.89
7111794,0.709064,-0.008296,0.961360,6.650000,-3.640000,2.730000,21.92
7111808,0.721264,0.027328,0.952088,4.620000,-0.700000,0.140000,21.91
7111819,0.715408,0.094184,0.976000,-8.470000,0.700000,-0.560000,21.91
7111830,0.675880,0.141032,0.987224,-27.580000,1.820000,-1.680000,21.90
7111841,0.650016,0.123952,1.003816,-39.130001,2.730000,-2.870000,21.90
7111852,0.618784,0.068320,1.019920,-45.500000,3.990000,-5.530000,21.88
7111863,0.589992,-0.020008,1.011624,-39.830002,6.090000,-8.400000,21.87
7111874,0.573400,-0.101016,0.998936,-23.940001,9.030000,-12.810000,21.87
7111885,0.543144,-0.110776,0.984296,-7.350000,11.900000,-18.270000,21.90
7111896,0.515328,-0.095160,0.973560,10.500000,13.860000,-23.030001,21.90
7111907,0.479704,-0.058560,0.958920,23.799999,16.940001,-26.950001,21.89
7111918,0.448960,0.027816,0.934032,26.950001,19.110001,-29.610001,21.89
7111929,0.422120,0.097600,0.940376,17.150000,20.299999,-31.570000,21.89
7111940,0.369904,0.103456,0.959896,1.960000,21.559999,-33.950001,21.91
7111951,0.322080,0.079056,0.983808,-8.330000,21.980000,-36.680000,21.91
7111962,0.283040,0.068320,0.987224,-12.320000,22.260000,-39.970001,21.87
7111973,0.241560,0.057584,0.932568,-11.130000,23.520000,-42.070000,21.91
7111984,0.218136,0.033184,0.910120,-9.310000,25.969999,-45.430000,21.91
7111995,0.213256,0.011712,0.887672,-7.350000,30.170000,-47.389999,21.91
7112006,0.152256,0.020984,0.914512,-7.980000,32.759998,-49.910000,21.91
7112017,0.113704,0.026352,0.946232,-9.940000,34.860001,-52.919998,21.89
7112028,0.084912,0.024888,0.960384,-11.830000,35.700001,-54.810001,21.89
7112039,0.075152,0.021472,0.951600,-17.990000,35.840000,-56.840000,21.87
7112049,0.066368,-0.015128,0.901336,-15.820000,40.529999,-59.150002,21.89
7112060,0.040992,0.037576,0.881816,-23.940001,40.110001,-62.230000,21.89
7112071,0.056608,0.029280,0.867176,-31.360001,43.049999,-65.169998,21.88
7112083,0.045384,-0.059048,0.876448,-34.720001,48.090000,-71.330002,21.88
7112094,-0.000976,-0.094672,0.932080,-33.669998,51.240002,-76.230003,21.91
7112105,-0.062952,-0.132736,0.962336,-27.020000,52.360001,-82.250000,21.89
7112116,-0.090768,-0.120048,0.963800,-22.190001,53.689999,-86.519997,21.89
7112127,-0.123464,-0.085888,0.946232,-18.480000,55.580002,-89.949997,21.92
7112138,-0.160552,-0.086864,0.939400,-19.600000,57.330002,-92.470001,21.92
7112150,-0.206424,-0.055144,0.956480,-24.709999,57.959999,-93.099998,21.86
7112161,-0.253760,-0.051728,1.030656,-29.400000,56.770000,-94.010002,21.86
7112172,-0.306464,-0.029768,1.071648,-31.430000,53.689999,-91.769997,21.86
7112183,-0.316224,-0.005856,1.076528,-34.509998,48.580002,-86.940002,21.91
7112194,-0.301584,0.003904,1.071648,-39.130001,43.820000,-82.250000,21.91
7112205,-0.302072,-0.032208,1.100928,-41.369999,38.009998,-75.669998,21.87
7112217,-0.305488,-0.077104,1.121912,-34.230000,31.500000,-69.160004,21.87
7112228,-0.292800,-0.064904,1.108248,-14.280000,25.690001,-59.080002,21.87
7112239,-0.278648,-0.040504,1.063352,6.510000,17.709999,-49.630001,21.90
7112250,-0.248880,0.003416,1.035536,19.459999,9.940000,-34.580002,21.90
7112261,-0.221064,0.007808,1.039440,24.709999,4.620000,-20.719999,21.86
7112272,-0.218624,0.010736,1.051640,31.920000,0.350000,-6.720000,21.87
7112283,-0.212768,-0.000488,1.061888,38.919998,-4.690000,4.200000,21.87
7112294,-0.205448,0.005368,1.047248,44.869999,-9.800000,17.219999,21.90
7112305,-0.198616,0.046848,1.048712,44.099998,-14.070000,26.740000,21.90
7112316,-0.202032,0.048800,1.057984,39.970001,-17.850000,33.389999,21.90
7112327,-0.208376,0.023424,1.077992,38.150002,-21.910000,37.310001,21.89
7112338,-0.213256,0.014152,1.077992,36.119999,-26.389999,41.650002,21.89
7112350,-0.215208,0.029768,1.058960,32.900002,-30.940001,46.970001,21.89
7112360,-0.221064,0.039528,1.043344,26.389999,-33.320000,51.380001,21.89
7112371,-0.223504,0.011224,1.038464,24.780001,-35.349998,55.439999,21.91
7112382,-0.205448,0.015128,1.062864,26.040001,-38.290001,58.660000,21.91
7112393,-0.243024,0.055144,1.077016,24.150000,-41.509998,61.740002,21.91
7112404,-0.268888,0.083448,1.043344,22.049999,-44.799999,64.889999,21.90
7112415,-0.259128,0.062464,1.014552,20.580000,-45.849998,68.529999,21.90
7112426,-0.237656,0.061488,0.973560,20.930000,-48.020000,70.629997,21.84
7112437,-0.216184,0.050752,0.969656,22.260000,-50.540001,72.589996,21.84
7112448,-0.183000,0.039040,0.992592,22.190001,-47.880001,71.120003,21.85
7112459,-0.212768,0.057584,0.990640,21.910000,-49.209999,70.910004,21.88
7112470,-0.182024,0.099552,0.965752,20.160000,-52.080002,74.480003,21.88
7112481,-0.113704,0.121512,0.973560,13.090000,-53.689999,75.110001,21.90
7112492,-0.065880,0.099064,0.989664,7.210000,-53.200001,74.410004,21.90
7112503,-0.035624,0.067832,1.002840,4.060000,-52.639999,72.940002,21.87
7112514,-0.003416,0.018056,1.007232,10.430000,-51.099998,70.839996,21.91
7112525,0.042944,-0.013664,1.009672,18.760000,-50.119999,65.309998,21.91
7112536,0.060512,0.010248,0.979904,27.930000,-50.330002,59.990002,21.96
7112546,0.127856,0.100040,0.944280,28.980000,-50.400002,58.029999,21.96
7112557,0.220576,0.125416,0.916952,22.820000,-46.340000,55.020000,21.87
7112568,0.250832,0.137128,0.930616,11.690000,-43.119999,51.099998,21.87
7112579,0.228384,0.141032,0.968680,1.820000,-42.700001,47.669998,21.94
7112590,0.247416,0.130784,0.983808,-1.960000,-43.330002,44.099998,21.90
7112601,0.298168,0.107848,0.948184,-2.170000,-43.119999,40.740002,21.90
7112612,0.419680,0.058560,0.891088,0.000000,-43.189999,37.099998,21.91
7112623,0.510448,0.003416,0.922320,12.110000,-34.860001,32.060001,21.91
7112634,0.531432,0.062464,0.927200,19.459999,-31.219999,26.320000,21.88
7112645,0.573888,0.065880,0.929640,23.170000,-28.350000,22.190001,21.88
7112656,0.594384,0.134688,0.947208,19.600000,-24.570000,19.809999,21.88
7112666,0.597312,0.194712,0.961360,14.490000,-23.870001,19.740000,21.88
7112677,0.660752,0.182512,0.956480,6.650000,-21.139999,19.389999,21.88
7112688,0.692960,0.173728,0.963312,-0.420000,-18.129999,18.410000,21.88
7112699,0.709552,0.147376,0.973560,-7.560000,-16.240000,16.590000,21.88
7112710,0.718824,0.125904,0.989664,-12.600000,-13.860000,15.050000,21.89
7112721,0.721264,0.107360,0.994544,-13.650000,-12.040000,12.950000,21.92
7112732,0.727120,0.085400,0.981368,-13.790000,-10.080000,11.200000,21.92
7112743,0.732000,0.043432,0.951600,-11.620000,-7.630000,9.240000,21.87
7112754,0.726144,0.033672,0.926224,-8.540000,-4.480000,7.420000,21.87
7112765,0.711016,0.028792,0.940376,-6.230000,-0.840000,5.320000,21.89
7112776,0.686128,0.027328,0.971120,-3.710000,1.750000,3.220000,21.83
7112787,0.653432,0.039040,0.977464,-1.260000,3.430000,0.840000,21.83
7112798,0.622688,0.056608,0.982344,0.350000,4.340000,-1.540000,21.87
7112809,0.603656,0.064416,0.968680,0.210000,5.670000,-3.920000,21.87
7112819,0.589992,0.031720,0.952576,0.840000,8.540000,-6.440000,21.88
7112830,0.566568,0.005368,0.938912,3.430000,12.110000,-9.940000,21.88
7112841,0.547536,-0.004880,0.930128,6.650000,14.840000,-13.440000,21.89
7112852,0.522648,-0.004880,0.939888,10.570000,17.990000,-16.309999,21.91
7112863,0.492392,0.022936,0.939888,13.790000,20.230000,-19.950001,21.91
7112874,0.473360,0.052704,0.945256,13.440000,22.400000,-23.030001,21.89
7112885,0.434808,0.086376,0.937448,10.500000,24.780001,-25.549999,21.89
7112896,0.398696,0.141032,0.940376,-17.150000,26.250000,-27.160000,21.90
7112907,0.369416,0.106384,0.960384,-13.300000,28.280001,-29.820000,21.86
7112918,0.310856,0.044896,0.980880,-20.860001,29.889999,-33.040001,21.86
7112929,0.305976,0.000488,0.990152,-19.110001,30.520000,-37.380001,21.90
7112940,0.274256,-0.017080,0.968680,-11.270000,34.020000,-42.770000,21.90
7112951,0.244976,0.000000,0.945256,-9.450000,35.349998,-48.090000,21.85
7112964,0.223016,-0.018544,0.918416,-5.530000,38.570000,-52.990002,21.89
7112975,0.164456,0.022936,0.945744,-4.760000,42.279999,-57.889999,21.89
7112986,0.113704,0.048800,0.957944,-10.080000,41.860001,-62.439999,21.89
7112997,0.081984,0.067832,0.957456,-17.709999,42.139999,-65.309998,21.89
7113008,0.067344,0.078568,0.939888,-27.650000,43.959999,-67.269997,21.94
7113019,0.035624,0.060024,0.906704,-34.299999,46.900002,-71.470001,21.90
7113030,0.011712,0.056608,0.865224,-40.810001,50.400002,-75.040001,21.90
7113042,-0.047824,0.046848,0.871080,-46.689999,55.090000,-78.540001,21.86
7113053,-0.122488,0.032696,0.924760,-50.470001,57.680000,-79.589996,21.86
7113065,-0.170800,-0.043432,1.013576,-50.400002,56.910000,-80.360001,21.90
7113076,-0.218624,-0.107360,1.050176,-45.779999,54.529999,-82.529999,21.88
7113087,-0.249856,-0.126392,1.058472,-42.770000,50.959999,-83.580002,21.88
7113098,-0.257176,-0.094672,1.016504,-38.570000,49.840000,-83.720001,21.89
7113109,-0.314760,0.009760,0.982832,-36.610001,46.970001,-82.110001,21.89
7113120,-0.328424,0.095648,0.956968,-39.200001,43.889999,-77.629997,21.90
7113131,-0.333792,0.052216,0.977952,-37.799999,41.020000,-71.400002,21.91
7113142,-0.327448,-0.019520,1.052616,-31.500000,35.910000,-64.260002,21.91
7113154,-0.325496,-0.055632,1.081408,-21.420000,28.070000,-56.910000,21.89
7113165,-0.302560,-0.088816,1.081896,-5.110000,20.090000,-49.070000,21.89
7113176,-0.283040,-0.075152,1.050176,15.820000,11.970000,-38.360001,21.85
7113187,-0.247904,-0.013176,1.006744,27.299999,6.020000,-24.570000,21.87
7113198,-0.216184,0.005368,0.995032,34.439999,2.590000,-11.060000,21.87
7113209,-0.202032,0.013664,1.028216,38.080002,-0.700000,-1.400000,21.87
7113220,-0.210328,0.039528,1.045296,38.290001,-6.300000,11.130000,21.87
7113231,-0.213256,0.046848,1.043344,35.700001,-9.940000,21.910000,21.89
7113242,-0.214232,0.061976,1.040904,28.629999,-15.540000,29.610001,21.85
7113253,-0.202032,0.046848,1.033584,19.950001,-20.299999,36.119999,21.85
7113264,-0.188368,0.027328,1.034560,14.350000,-23.590000,40.459999,21.91
7113275,-0.196176,-0.001464,1.056520,11.760000,-26.600000,43.400002,21.91
7113286,-0.200568,0.006832,1.060912,15.050000,-30.030001,47.040001,21.85
7113297,-0.191296,0.009760,1.048224,16.240000,-32.410000,51.939999,21.85
7113308,-0.195688,-0.015128,1.031144,19.530001,-33.529999,55.369999,21.89
7113319,-0.203984,0.010736,1.023824,22.750000,-35.770000,58.029999,21.89
7113330,-0.187392,0.010736,1.023336,23.940001,-37.590000,60.619999,21.89
7113341,-0.173240,0.015128,1.016992,27.440001,-38.779999,61.250000,21.89
7113352,-0.174704,0.034160,1.025776,28.980000,-40.180000,61.599998,21.89
7113363,-0.173728,0.043432,1.018456,33.040001,-41.930000,61.459999,21.83
7113373,-0.175680,0.073688,0.986736,32.759998,-45.009998,62.650002,21.86
7113384,-0.158112,0.084424,0.947208,30.309999,-45.500000,63.419998,21.86
7113395,-0.075152,0.088328,0.932080,25.549999,-45.430000,66.989998,21.88
7113406,-0.023424,0.139568,0.952088,17.219999,-45.430000,68.669998,21.88
7113417,0.011224,0.138104,1.002840,5.740000,-44.939999,67.690002,21.89
7113428,0.006344,0.123464,1.046272,0.980000,-43.680000,66.849998,21.89
7113439,-0.004392,0.120536,1.058472,0.350000,-44.939999,66.010002,21.89
7113450,0.008296,0.055632,1.051152,2.240000,-46.200001,64.610001,21.86
7113460,0.014152,-0.022448,1.021872,12.880000,-45.570000,60.060001,21.86
7113471,0.059048,-0.025864,0.968680,20.790001,-46.549999,57.119999,21.85
7113482,0.121024,0.008784,0.948184,26.250000,-45.919998,54.740002,21.85
7113493,0.179096,0.100040,0.945744,26.320000,-44.029999,52.430000,21.86
7113504,0.222040,0.139080,0.975024,19.110001,-42.279999,49.980000,21.86
7113515,0.232776,0.130296,1.011624,9.170000,-41.439999,46.689999,21.86
7113526,0.224480,0.117120,1.008208,4.900000,-41.439999,42.980000,21.92
7113537,0.267424,0.080032,0.975512,6.440000,-41.650002,39.970001,21.92
7113547,0.378200,0.058560,0.875472,7.840000,-40.599998,36.189999,21.87
7113558,0.438224,0.029280,0.941352,12.110000,-34.090000,33.459999,21.87
7113569,0.430904,0.081008,0.968192,12.740000,-31.990000,29.190001,21.87
7113580,0.437248,0.111264,0.996496,8.260000,-31.570000,25.059999,21.84
7113591,0.422120,0.132736,1.003328,7.280000,-30.309999,23.240000,21.84
7113602,0.421632,0.143472,0.998936,5.110000,-31.150000,21.840000,21.88
7113612,0.496296,0.128832,0.955992,3.850000,-31.150000,21.490000,21.88
7113623,0.563152,0.108336,0.923296,0.980000,-26.809999,20.230000,21.89
7113634,0.592432,0.083448,0.930128,-1.540000,-23.240000,0.420000,21.86
7113645,0.599752,0.059536,0.955016,-0.980000,-19.950001,15.540000,21.86
7113656,0.597800,0.048800,0.994544,0.770000,-17.990000,13.020000,21.82
7113667,0.606584,0.054656,1.000400,3.500000,-17.080000,11.620000,21.82
7113678,0.631960,0.048312,0.981856,6.230000,-16.379999,9.800000,21.89
7113689,0.656360,0.039528,0.973072,7.630000,-13.930000,8.190000,21.89
7113700,0.668072,0.034648,0.976976,7.630000,-12.250000,6.020000,21.89
7113711,0.681736,0.044896,0.981856,3.920000,-9.520000,4.900000,21.89
7113722,0.690032,0.061000,0.974536,0.070000,-6.860000,3.150000,21.89
7113733,0.686128,0.071248,0.975512,-3.290000,-4.900000,1.750000,21.92
7113743,0.668072,0.044896,0.981856,-5.250000,-2.170000,0.000000,21.92
7113754,0.651968,0.045872,0.977952,-6.650000,0.000000,-1.960000,21.92
7113765,0.636840,0.033672,0.984296,-8.190000,2.520000,-3.710000,21.89
7113776,0.614392,0.025864,0.995032,-4.410000,4.410000,-6.510000,21.89
7113788,0.593896,0.012200,0.993568,1.540000,6.790000,-9.450000,21.92
7113798,0.583160,-0.014640,0.969168,7.350000,10.010000,-12.460000,21.92
7113809,0.569984,-0.003904,0.953064,13.510000,12.530000,-15.680000,21.89
7113822,0.542656,0.042456,0.941352,17.850000,15.890000,-19.180000,21.84
7113836,0.506544,0.069296,0.949648,13.510000,18.830000,-22.469999,21.84
7113850,0.468968,0.101504,0.949648,4.550000,21.280001,-24.990000,21.89
7113863,0.440664,0.123464,0.939888,-6.370000,23.170000,-28.209999,21.85
7113874,0.394792,0.086376,0.956968,-11.410000,25.549999,-31.780001,21.85
7113887,0.338184,0.065392,0.956968,-11.200000,27.020000,-35.000000,21.89
7113899,0.324032,0.031720,0.943304,-8.820000,29.330000,-38.500000,21.86
7113910,0.310856,0.011712,0.916464,-5.110000,32.759998,-43.049999,21.86
7113921,0.291824,0.022448,0.893528,-2.100000,35.980000,-46.830002,21.90
7113932,0.252784,0.059048,0.913048,-8.750000,38.500000,-48.580002,21.85
7113943,0.194712,0.089304,0.971608,-20.580000,38.990002,-51.799999,21.85
7113954,0.164456,0.043432,1.002352,-31.360001,39.340000,-56.980000,21.89
7113965,0.145912,0.004392,1.015528,-32.830002,39.060001,-60.970001,21.89
7113976,0.157136,-0.034648,0.995032,-17.570000,40.950001,-66.500000,21.87
7113987,0.132736,-0.014152,0.913048,-16.030001,41.790001,-72.800003,21.87
7113998,0.065880,0.000000,0.858880,-8.610000,47.250000,-77.419998,21.91
7114009,-0.011712,0.038552,0.882792,-7.280000,51.099998,-81.129997,21.86
7114020,-0.096624,0.097600,0.934032,-9.380000,52.290001,-83.019997,21.86
7114031,-0.130784,0.133712,0.973560,-18.549999,50.959999,-82.110001,21.86
7114042,-0.162016,0.104920,0.957456,-23.379999,52.570000,-81.269997,21.86
7114053,-0.219600,0.109312,0.991616,-35.070000,46.900002,-80.080002,21.89
7114064,-0.230336,0.097600,0.981368,-35.349998,46.900002,-78.820000,21.84
7114075,-0.283040,0.124928,0.990152,-34.439999,45.360001,-77.209999,21.84
7114086,-0.288896,0.106872,1.020896,-27.930000,41.720001,-72.730003,21.89
7114097,-0.299144,0.038552,1.062864,-16.799999,35.139999,-67.059998,21.89
7114108,-0.298656,0.000488,1.076040,0.490000,27.930000,-60.200001,21.87
7114119,-0.264008,0.037088,1.062864,10.220000,19.180000,-54.810001,21.84
7114130,-0.225944,0.082960,1.035048,13.580000,13.440000,-48.720001,21.84
7114141,-0.192272,0.099552,1.012600,15.050000,10.430000,-41.790001,21.87
7114152,-0.171288,0.087352,1.015528,14.280000,7.560000,-36.049999,21.87
7114162,-0.179584,0.085888,1.031144,13.580000,3.500000,-27.370001,21.88
7114173,-0.160064,0.087352,1.043832,11.270000,0.910000,-18.410000,21.88
7114184,-0.124928,0.070760,1.054568,10.570000,-2.030000,-10.080000,21.87
7114195,-0.140056,0.070272,1.051640,11.340000,-5.180000,-1.470000,21.87
7114206,-0.155184,0.072712,1.045296,11.830000,-9.450000,8.610000,21.87
7114217,-0.150304,0.061976,1.023824,11.830000,-12.810000,19.040001,21.90
7114228,-0.147376,0.037576,1.024312,10.220000,-15.890000,26.040001,21.90
7114239,-0.148840,-0.001464,1.034560,11.480000,-19.180000,33.110001,21.91
7114250,-0.148352,0.034648,1.036512,9.730000,-22.260000,38.709999,21.87
7114261,-0.137616,0.019032,1.037488,6.930000,-25.549999,41.650002,21.87
7114272,-0.126392,-0.000488,1.032608,8.330000,-27.930000,44.240002,21.88
7114283,-0.125416,-0.003904,1.024312,9.170000,-30.590000,47.110001,21.88
7114295,-0.118584,-0.023424,1.016016,10.920000,-32.410000,48.930000,21.89
7114306,-0.112240,-0.043920,1.005280,15.470000,-34.509998,49.770000,21.87
7114317,-0.094184,-0.040504,0.995520,22.469999,-37.310001,49.630001,21.87
7114328,-0.103944,0.017080,0.981856,26.110001,-38.919998,49.630001,21.89
7114339,-0.119072,0.021960,0.972096,29.680000,-39.830002,49.700001,21.89
7114351,-0.121024,0.072224,0.942328,31.500000,-40.880001,51.869999,21.92
7114362,-0.083936,0.128832,0.925736,24.430000,-41.299999,55.439999,21.87
7114373,-0.070760,0.142496,0.931104,14.210000,-40.320000,57.470001,21.87
7114384,-0.068320,0.116632,0.955016,9.590000,-40.669998,58.799999,21.93
7114396,-0.052704,0.094184,0.989664,7.210000,-41.650002,59.430000,21.93
7114407,-0.060024,0.078080,0.995032,7.140000,-42.419998,58.590000,21.90
7114418,-0.012200,0.057096,0.959896,9.940000,-43.610001,57.330002,21.91
7114429,0.075152,0.047824,0.916464,12.670000,-42.560001,56.770000,21.91
7114440,0.122976,0.082472,0.917928,12.810000,-38.779999,54.599998,21.87
7114450,0.119072,0.116632,0.942816,10.710000,-38.220001,52.990002,21.87
7114461,0.138592,0.110776,0.955504,11.620000,-36.259998,50.470001,21.89
7114472,0.141032,0.134688,0.973560,11.760000,-35.070000,49.279999,21.89
7114483,0.159576,0.172264,0.988688,7.700000,-36.750000,48.509998,21.93
7114494,0.212280,0.182512,0.985272,4.830000,-37.660000,45.849998,21.87
7114504,0.259128,0.140056,0.956968,4.620000,-38.290001,42.630001,21.87
7114515,0.363072,0.127856,0.925248,4.480000,-34.090000,39.060001,21.86
7114526,0.406992,0.116144,0.916464,4.200000,-29.820000,35.840000,21.86
7114537,0.433344,0.142984,0.926712,5.530000,-26.879999,33.180000,21.88
7114548,0.471408,0.153232,0.954528,3.430000,-24.850000,32.060001,21.87
7114559,0.493856,0.167384,0.983808,0.560000,-21.070000,29.049999,21.87
7114570,0.480192,0.179096,1.015040,0.630000,-21.420000,27.299999,21.85
7114581,0.529480,0.150792,1.015040,1.820000,-21.070000,25.549999,21.85
7114592,0.584624,0.161040,0.986736,1.680000,-20.299999,24.360001,21.89
7114603,0.627568,0.170312,0.990152,-1.050000,-17.430000,22.959999,21.89
7114614,0.647576,0.161528,1.036024,-6.440000,-15.050000,21.700001,21.91
7114625,0.654896,0.141520,1.039928,-9.100000,-13.090000,21.209999,21.85
7114636,0.654408,0.131760,1.046760,-9.730000,-11.970000,19.950001,21.85
7114646,0.667096,0.137616,1.040416,-10.640000,-11.410000,19.040001,21.92
7114657,0.696376,0.108336,1.022848,-9.870000,-10.150000,17.500000,21.92
7114668,0.709064,0.062952,1.016992,-7.210000,-8.330000,15.120000,21.86
7114680,0.713944,0.052704,1.013088,-4.130000,-6.370000,12.110000,21.89
7114691,0.708088,0.050264,1.003816,-2.730000,-4.060000,10.220000,21.89
7114702,0.696864,0.064904,0.992592,-3.360000,-1.470000,8.260000,21.89
7114713,0.671000,0.091744,0.983808,-5.810000,-0.070000,6.370000,21.89
7114724,0.664168,0.067832,0.977952,-10.080000,1.680000,3.640000,21.90
7114735,0.637328,0.025376,0.984784,-11.620000,3.920000,1.120000,21.88
7114745,0.610976,-0.003416,0.978440,-9.660000,5.810000,-2.660000,21.88
7114756,0.601216,0.005856,0.950136,-9.450000,7.560000,-6.160000,21.87
7114767,0.603168,0.006344,0.922808,-11.270000,10.850000,-9.730000,21.87
7114778,0.595848,-0.035624,0.899872,-9.170000,15.750000,-14.700000,21.89
7114789,0.569008,-0.063928,0.901336,-5.810000,19.809999,-20.510000,21.89
7114801,0.518256,-0.078080,0.908656,2.380000,24.150000,-27.650000,21.86
7114811,0.450912,-0.063928,0.919392,10.640000,27.230000,-31.990000,21.84
7114828,0.390400,-0.007808,0.915976,16.170000,29.820000,-39.480000,21.85
7114839,0.343064,0.031232,0.898408,12.320000,32.270000,-43.820000,21.85
7114850,0.312808,0.066368,0.870104,2.590000,34.580002,-47.389999,21.86
7114860,0.276696,0.090768,0.847168,-10.710000,38.779999,-50.259998,21.86
7114872,0.238632,0.062464,0.859856,-29.610001,44.029999,-52.290001,21.87
7114883,0.173728,0.040992,0.895968,-30.870001,43.259998,-57.330002,21.87
7114893,0.127368,0.004880,0.932568,-32.200001,45.500000,-59.990002,21.89
7114904,0.095648,-0.044408,0.944768,-24.430000,46.689999,-65.169998,21.86
7114915,0.067832,-0.056608,0.934032,-10.010000,48.299999,-69.930000,21.86
7114926,0.020496,-0.068320,0.905728,7.840000,50.610001,-74.900002,21.88
7114937,-0.020984,-0.066368,0.892552,26.670000,53.060001,-78.120003,21.88
7114948,-0.066368,0.044896,0.916952,30.799999,52.500000,-79.029999,21.89
7114959,-0.115168,0.177144,0.924272,15.260000,50.889999,-77.209999,21.87
7114970,-0.119560,0.208864,0.923296,-7.840000,48.930000,-75.250000,21.87
7114981,-0.137128,0.199592,0.938424,-32.759998,47.040001,-71.330002,21.91
7114992,-0.154696,0.144448,0.984296,-50.470001,45.220001,-67.970001,21.91
7115003,-0.185440,0.101504,1.026752,-67.620003,42.000000,-65.239998,21.89
7115014,-0.209840,0.004392,1.050176,-71.050003,38.360001,-64.540001,21.85
7115026,-0.213744,-0.101992,1.059448,-57.470001,34.720001,-63.980000,21.85
7115036,-0.207400,-0.131272,1.052616,-28.490000,31.219999,-62.160000,21.80
7115048,-0.206424,-0.140056,1.030656,0.210000,28.139999,-60.900002,21.80
7115059,-0.202032,-0.120048,0.996496,24.219999,25.549999,-59.290001,21.89
7115070,-0.211304,-0.062464,1.010648,35.980000,21.350000,-54.320000,21.89
7115081,-0.211792,0.013664,1.036024,44.590000,17.150000,-47.529999,21.86
7115092,-0.201056,0.101992,1.044320,44.310001,11.690000,-40.110001,21.92
7115103,-0.186416,0.179096,1.037976,35.700001,7.280000,-29.889999,21.92
7115114,-0.171776,0.184952,1.036024,27.510000,4.550000,-20.020000,21.90
7115125,-0.173728,0.184464,1.038464,19.530001,1.190000,-10.500000,21.90
7115136,-0.170800,0.158600,1.038464,12.040000,-1.330000,-1.190000,21.86
7115147,-0.162504,0.104920,1.028216,10.360000,-5.110000,6.370000,21.84
7115158,-0.143960,0.084424,1.008208,10.990000,-7.840000,13.790000,21.84
7115169,-0.126392,0.068320,0.994056,12.740000,-8.960000,19.459999,21.89
7115180,-0.116632,0.063440,1.005768,14.560000,-9.520000,22.959999,21.89
7115191,-0.120536,0.094672,1.042368,13.930000,-12.320000,26.809999,21.88
7115202,-0.136640,0.136640,1.070184,11.830000,-15.540000,30.940001,21.84
7115213,-0.132248,0.151280,1.069208,8.190000,-19.950001,35.000000,21.84
7115224,-0.132248,0.168848,1.061888,2.870000,-23.450001,40.110001,21.88
7115235,-0.135664,0.156648,1.047248,-3.570000,-24.920000,44.869999,21.88
7115246,-0.152744,0.115656,1.044808,-6.650000,-26.950001,48.160000,21.85
7115257,-0.159576,0.061976,1.030656,-1.820000,-29.610001,51.590000,21.89
7115268,-0.159576,0.053680,1.029192,5.250000,-31.990000,54.529999,21.89
7115279,-0.161040,0.079056,1.008696,14.840000,-35.490002,57.680000,21.89
7115290,-0.120048,0.099552,0.983808,21.420000,-37.029999,60.480000,21.89
7115302,-0.093696,0.153232,0.976976,20.860001,-37.869999,62.509998,21.91
7115312,-0.088816,0.164944,0.990152,16.940001,-38.779999,64.750000,21.91
7115323,-0.089304,0.156648,1.013088,9.940000,-40.180000,66.290001,21.86
7115334,-0.116632,0.147864,1.024312,6.370000,-42.419998,66.779999,21.86
7115345,-0.120536,0.125904,1.003328,8.470000,-44.450001,67.830002,21.86
7115356,-0.069784,0.108824,0.966240,13.650000,-47.389999,70.419998,21.86
7115367,0.046848,0.110288,0.932080,20.719999,-46.270000,68.320000,21.86
7115378,0.122976,0.094184,0.928176,23.520000,-43.049999,66.430000,21.91
7115389,0.151280,0.082472,0.955992,27.020000,-39.270000,61.669998,21.88
7115400,0.166408,0.126880,0.994544,25.900000,-38.500000,59.849998,21.88
7115410,0.157624,0.197152,1.002352,2.100000,-38.430000,57.400002,21.89
7115422,0.152256,0.230336,1.011136,7.070000,-39.060001,56.209999,21.89
7115433,0.134200,0.230824,0.992104,-2.660000,-40.599998,55.790001,21.90
7115444,0.200568,0.177632,0.982832,-9.870000,-42.070000,55.020000,21.87
7115454,0.264496,0.084424,0.962824,-7.210000,-39.549999,50.820000,21.87
7115465,0.342576,0.034648,0.945256,0.210000,-37.869999,47.250000,21.85
7115476,0.388936,0.011712,0.951600,11.620000,-34.580002,42.840000,21.85
7115487,0.408456,0.067832,0.944768,17.010000,-32.970001,39.340000,21.89
7115498,0.425536,0.132736,0.947208,14.420000,-31.709999,37.240002,21.89
7115509,0.461160,0.216184,0.955016,-0.210000,-30.379999,37.310001,21.89
7115520,0.473848,0.200080,0.947696,-11.760000,-29.190001,35.980000,21.88
7115531,0.502640,0.014152,0.992592,-22.469999,-28.420000,34.299999,21.88
7115542,0.530456,0.065392,1.039440,-24.850000,-29.120001,31.430000,21.92
7115553,0.559248,0.039528,1.055544,-20.930000,-29.680000,27.020000,21.92
7115563,0.605608,-0.004392,1.032608,-10.640000,-28.559999,22.680000,21.91
7115574,0.662216,-0.018544,1.008208,-2.240000,-26.250000,19.740000,21.89
7115585,0.682224,0.023912,0.972096,-0.210000,-23.870001,16.660000,21.89
7115596,0.696864,0.076128,0.951112,-3.290000,-22.190001,15.400000,21.85
7115607,0.717360,0.077104,0.953064,-10.430000,-19.250000,14.770000,21.85
7115618,0.718336,0.077104,0.968192,-16.660000,-16.799999,13.790000,21.87
7115629,0.726144,0.056608,0.980880,-22.190001,-15.050000,12.600000,21.87
7115640,0.734440,0.036600,0.988688,-25.830000,-11.690000,10.850000,21.90
7115651,0.729072,-0.008784,0.982344,-22.820000,-8.260000,7.490000,21.93
7115662,0.717360,-0.052704,0.970632,-17.150000,-4.200000,3.500000,21.93
7115673,0.699304,-0.083936,0.974536,-6.930000,-1.330000,-0.980000,21.87
7115685,0.669536,-0.083448,0.981856,4.200000,1.890000,-5.390000,21.87
7115696,0.656360,-0.050752,0.968192,12.390000,4.970000,-8.190000,21.87
7115706,0.647088,-0.030256,0.917440,14.420000,9.660000,-11.340000,21.90
7115718,0.627568,-0.030256,0.894992,14.840000,13.650000,-14.980000,21.90
7115729,0.585600,-0.012688,0.906216,12.740000,18.129999,-18.270000,21.87
7115740,0.547536,-0.016592,0.917928,11.060000,21.700001,-22.330000,21.87
7115751,0.521184,-0.000488,0.923296,11.060000,24.639999,-26.530001,21.89
7115761,0.486536,0.023424,0.918416,7.280000,26.809999,-28.980000,21.82
7115773,0.462624,0.030744,0.894016,-0.350000,30.450001,-32.340000,21.82
7115784,0.442128,0.052216,0.882304,-10.500000,35.070000,-35.209999,21.91
7115795,0.410408,0.020496,0.888160,-18.200001,40.389999,-38.709999,21.91
7115806,0.354776,-0.033672,0.928176,-21.840000,43.259998,-44.380001,21.87
7115817,0.277672,-0.066368,0.954528,-19.110001,44.730000,-49.279999,21.85
7115828,0.240096,-0.095160,0.942816,-9.240000,46.410000,-56.419998,21.85
7115839,0.202032,-0.073688,0.900848,0.910000,48.580002,-62.790001,21.85
7115850,0.180072,-0.040016,0.868152,10.220000,51.730000,-70.279999,21.85
7115861,0.117120,-0.024888,0.857904,11.060000,55.160000,-75.110001,21.90
7115872,0.040992,0.029768,0.888160,4.620000,56.279999,-79.940002,21.90
7115883,-0.024400,0.052216,0.936960,-6.510000,54.880001,-83.160004,21.86
7115894,-0.059048,0.073688,0.956968,-17.150000,52.290001,-84.070000,21.86
7115905,-0.058560,0.034160,0.951600,-21.070000,50.119999,-86.309998,21.86
7115916,-0.061976,0.057096,0.953552,-19.250000,50.680000,-88.199997,21.84
7115927,-0.108824,0.009272,0.894992,-19.879999,50.820000,-89.529999,21.84
7115938,-0.157136,-0.006832,0.902800,-16.870001,52.360001,-90.650002,21.88
7115949,-0.212280,0.039528,0.928664,-12.250000,51.169998,-88.970001,21.84
7115961,-0.234240,0.084424,0.970632,-11.130000,48.020000,-84.980003,21.84
7115972,-0.244976,0.089792,1.037000,-13.090000,44.590000,-80.010002,21.84
7115983,-0.256200,0.057096,1.069208,-14.560000,39.200001,-76.930000,21.84
7115994,-0.237168,0.056608,1.063352,-14.980000,33.880001,-72.449997,21.91
7116004,-0.225944,0.050752,1.038464,-11.760000,30.309999,-67.900002,21.84
7116016,-0.202520,0.059536,1.011624,-4.550000,27.719999,-62.860001,21.84
7116027,-0.196176,0.068808,1.015040,1.400000,25.340000,-55.439999,21.89
7116038,-0.210328,0.055144,1.057496,6.580000,21.209999,-46.900002,21.89
7116048,-0.227408,0.063440,1.098976,13.790000,15.890000,-37.240002,21.83
7116059,-0.226432,0.108336,1.089704,17.850000,8.820000,-28.139999,21.83
7116070,-0.195688,0.122000,1.059448,18.760000,3.990000,-16.799999,21.87
7116081,-0.156648,0.143960,1.038464,15.330000,0.910000,-6.440000,21.87
7116092,-0.152256,0.165920,1.030168,5.460000,-1.750000,0.490000,21.87
7116103,-0.169336,0.115168,1.045296,-0.140000,-5.810000,8.330000,21.89
7116114,-0.183488,0.076128,1.050664,0.560000,-10.290000,15.610000,21.89
7116125,-0.169824,0.063928,1.033584,2.450000,-15.470000,21.350000,21.86
7116136,-0.128344,0.038064,1.019920,4.550000,-17.639999,26.320000,21.84
7116147,-0.121512,0.055632,1.008208,3.780000,-19.040001,29.889999,21.84
7116158,-0.122000,0.072224,1.005768,0.910000,-20.020000,33.250000,21.85
7116169,-0.118096,0.064416,1.012600,-2.170000,-20.790001,36.259998,21.85
7116180,-0.138104,0.053680,1.043344,-3.360000,-23.030001,40.250000,21.91
7116192,-0.151280,0.037088,1.050176,-0.490000,-26.740000,44.029999,21.87
7116202,-0.156648,0.016592,1.053592,6.790000,-29.120001,47.529999,21.87
7116213,-0.163480,0.026840,1.042856,15.190000,-32.480000,50.049999,21.85
7116224,-0.162504,0.059048,1.006744,18.969999,-35.419998,52.639999,21.85
7116235,-0.149816,0.052704,0.980392,23.379999,-35.980000,55.299999,21.89
7116246,-0.118096,0.089304,0.999424,22.260000,-36.750000,57.540001,21.86
7116257,-0.151280,0.134200,1.018456,19.040001,-39.830002,59.849998,21.86
7116268,-0.146888,0.155184,1.005280,14.140000,-42.490002,62.369999,21.87
7116279,-0.120536,0.147864,0.988200,9.380000,-45.080002,64.610001,21.87
7116290,-0.087840,0.140056,0.966240,9.030000,-45.919998,65.099998,21.87
7116301,-0.038552,0.096136,0.964776,9.170000,-47.180000,66.849998,21.87
7116312,-0.020984,0.078568,0.986248,12.670000,-43.330002,64.400002,21.88
7116323,-0.056120,0.107360,0.991128,19.110001,-43.820000,63.630001,21.84
7116334,-0.021472,0.122488,0.990640,27.440001,-45.709999,63.209999,21.84
7116345,0.051728,0.137128,0.950624,29.260000,-45.919998,63.560001,21.87
7116356,0.112728,0.168360,0.922320,27.160000,-45.220001,63.139999,21.87
7116367,0.194712,0.179584,0.931104,19.530001,-43.610001,61.810001,21.89
7116378,0.216672,0.216672,0.946232,10.570000,-40.529999,58.730000,21.87
7116389,0.198616,0.221552,0.962824,-1.260000,-39.200001,57.049999,21.87
7116400,0.198128,0.143960,0.973560,-5.950000,-38.220001,55.930000,21.88
7116411,0.206424,0.106384,0.959408,-3.850000,-36.470001,54.250000,21.88
7116422,0.254736,0.084912,0.951112,1.400000,-36.189999,52.919998,21.91
7116433,0.331840,0.059048,0.934032,9.240000,-33.740002,50.259998,21.90
7116444,0.390888,0.074664,0.930616,13.650000,-31.990000,45.990002,21.90
7116454,0.406504,0.111752,0.963800,10.500000,-30.940001,41.509998,21.89
7116465,0.429928,0.136640,0.940864,3.780000,-30.309999,38.150002,21.89
7116476,0.452376,0.083448,0.955992,0.980000,-28.980000,35.139999,21.88
7116487,0.492880,0.082960,0.948184,0.980000,-27.160000,33.529999,21.88
7116498,0.548512,0.122000,0.947696,-2.730000,-25.549999,32.270000,21.88
7116509,0.593896,0.078080,0.963312,-7.770000,-22.889999,30.100000,21.88
7116520,0.625128,0.029280,0.997960,-7.980000,-21.209999,26.180000,21.88
7116531,0.638304,0.057096,1.028216,-6.160000,-20.719999,22.889999,21.89
7116542,0.674416,0.042944,1.037488,-5.320000,-19.740000,19.320000,21.89
7116553,0.717848,0.036112,1.025288,-4.200000,-17.850000,17.990000,21.89
7116564,0.738344,0.048800,1.014064,-5.390000,-16.520000,15.960000,21.92
7116575,0.751520,0.076616,1.012600,-9.800000,-13.720000,15.050000,21.92
7116586,0.744200,0.092720,1.035048,-15.190000,-11.830000,14.980000,21.89
7116597,0.733464,0.085888,1.044808,-20.370001,-10.780000,14.280000,21.89
7116609,0.722728,0.063440,1.054568,-23.100000,-9.940000,12.600000,21.86
7116619,0.714432,0.029280,1.044808,-22.400000,-8.820000,11.130000,21.87
7116630,0.712480,-0.018544,1.036024,-20.860001,-6.300000,8.260000,21.87
7116641,0.697352,-0.040504,1.017968,-15.820000,-4.200000,4.620000,21.89
7116653,0.683688,-0.022936,0.996496,-11.130000,-2.100000,2.590000,21.89
7116663,0.654896,-0.018544,0.998448,-4.760000,0.980000,-0.210000,21.86
7116674,0.634888,-0.036112,0.988200,5.460000,3.710000,-3.710000,21.86
7116685,0.637816,-0.025864,0.989176,11.970000,5.740000,-6.020000,21.87
7116696,0.620248,-0.022936,0.999424,14.910000,8.470000,-8.680000,21.86
7116707,0.589504,0.020984,0.996008,14.840000,10.290000,-12.180000,21.86
7116718,0.570960,0.039528,0.975512,11.340000,12.110000,-15.120000,21.93
7116729,0.533384,0.048312,0.951112,6.370000,14.980000,-17.360001,21.93
7116740,0.511424,0.040992,0.939400,1.750000,17.709999,-20.370001,21.87
7116751,0.495320,0.024888,0.927200,-5.600000,20.370001,-23.450001,21.93
7116762,0.468480,0.016592,0.917440,-14.210000,23.379999,-26.320000,21.93
7116773,0.445544,-0.003904,0.908168,-22.959999,26.530001,-31.150000,21.90
7116784,0.424560,-0.065880,0.906704,-26.040001,30.940001,-37.939999,21.90
7116795,0.376248,-0.098088,0.881816,-19.389999,34.439999,-46.060001,21.85
7116806,0.328912,-0.133712,0.862296,-2.660000,39.759998,-52.919998,21.89
7116817,0.293288,-0.163480,0.829600,18.620001,45.570000,-61.740002,21.89
7116828,0.264496,-0.149816,0.817400,33.810001,50.189999,-69.580002,21.89
7116839,0.198128,-0.075152,0.874008,34.439999,53.549999,-73.360001,21.89
7116850,0.117608,0.064904,0.877912,21.420000,53.480000,-78.470001,21.87
7116861,0.091744,0.090768,0.869128,5.180000,54.599998,-81.410004,21.87
7116872,0.031232,0.067344,0.873032,-14.630000,55.860001,-84.279999,21.89
7116883,-0.019520,0.050264,0.858392,-30.309999,56.980000,-87.080002,21.88
7116894,-0.022448,0.048800,0.812032,-22.540001,62.369999,-88.199997,21.88
7116905,-0.079056,0.048800,0.825696,-52.290001,61.389999,-93.730003,21.87
7116916,-0.141520,0.029768,0.986736,-56.419998,65.029999,-96.459999,21.87
7116927,-0.242048,-0.036112,0.963800,-52.290001,64.470001,-101.220001,21.89
7116938,-0.327936,-0.088816,0.991128,-42.490002,60.270000,-103.739998,21.88
7116949,-0.348920,-0.094672,0.962824,-30.799999,56.279999,-102.339996,21.88
7116960,-0.339160,-0.077104,0.946720,-19.809999,52.849998,-98.000000,21.89
7116971,-0.332328,-0.010248,0.946720,-10.220000,49.630001,-91.629997,21.89
7116983,-0.350384,0.039528,1.015528,-5.670000,44.380001,-83.580002,21.89
7116994,-0.364048,0.082960,1.078480,3.080000,38.360001,-73.500000,21.84
7117004,-0.350384,0.096624,1.089216,11.060000,27.370001,-62.369999,21.84
7117015,-0.286944,0.118096,1.062864,17.010000,18.760000,-46.619999,21.89
7117026,-0.233752,0.146888,1.043344,18.830000,14.490000,-31.080000,21.89
7117037,-0.210328,0.159576,1.047736,15.680000,9.800000,-19.670000,21.86
7117048,-0.203984,0.138592,1.059936,9.100000,3.430000,-4.690000,21.86
7117059,-0.203984,0.059536,1.062864,8.190000,-2.870000,8.960000,21.85
7117071,-0.195688,0.023424,1.062376,11.690000,-8.680000,20.930000,21.85
7117081,-0.183000,0.047824,1.059448,13.930000,-14.000000,28.490000,21.85
7117092,-0.182024,0.060512,1.062376,13.510000,-18.549999,35.490002,21.90
7117104,-0.182512,0.051728,1.076528,12.950000,-22.260000,39.900002,21.90
7117114,-0.180560,0.036112,1.068232,12.880000,-25.760000,43.400002,21.88
7117125,-0.164456,0.043432,1.058960,10.570000,-28.980000,47.180000,21.87
7117136,-0.163480,0.060024,1.038464,7.280000,-32.200001,51.310001,21.87
7117147,-0.133224,0.064416,1.039440,2.030000,-33.110001,71.400002,21.86
7117158,-0.124440,0.018056,1.048224,1.890000,-33.740002,54.389999,21.86
7117169,-0.129808,0.005368,1.058472,6.720000,-35.700001,55.509998,21.89
7117180,-0.130784,0.003416,1.046760,14.770000,-35.910000,55.930000,21.85
7117191,-0.139080,0.021960,1.022360,20.020000,-36.610001,56.490002,21.85
7117202,-0.122976,0.023912,0.998936,23.030001,-37.730000,58.520000,21.85
7117213,-0.099064,0.003416,0.999912,26.389999,-37.939999,58.730000,21.85
7117224,-0.063928,0.026840,0.997960,28.280001,-39.410000,59.080002,21.89
7117235,-0.050752,0.079544,1.010648,23.170000,-40.389999,58.730000,21.86
7117246,-0.014640,0.097600,1.006256,18.830000,-42.349998,58.869999,21.86
7117257,0.009272,0.096136,0.978928,15.330000,-43.680000,59.009998,21.86
7117268,0.039528,0.098088,0.969168,9.660000,-42.630001,57.750000,21.86
7117279,0.037576,0.061976,0.956968,7.140000,-41.650002,56.770000,21.86
7117289,0.024888,0.036112,0.964776,8.890000,-39.619999,55.299999,21.86
7117300,-0.025864,0.052704,0.981856,11.060000,-39.759998,55.650002,21.86
7117312,-0.016592,0.057096,0.991616,16.520000,-41.160000,54.950001,21.86
7117322,0.054168,0.068320,0.982344,21.420000,-42.209999,54.040001,21.86
7117334,0.131272,0.077592,0.960872,23.379999,-41.720001,52.849998,21.87
7117345,0.159576,0.065880,0.950624,24.709999,-38.919998,48.299999,21.87
7117355,0.180560,0.075152,0.966728,22.820000,-37.310001,45.150002,21.81
7117367,0.183976,0.075152,0.964288,21.350000,-36.959999,43.189999,21.87
7117377,0.221552,0.086864,0.966728,17.570000,-33.599998,41.439999,21.87
7117388,0.209352,0.119560,0.965264,14.350000,-32.830002,40.529999,21.89
7117399,0.247416,0.129320,0.961848,12.040000,-33.180000,38.849998,21.89
7117410,0.312320,0.122976,0.975024,7.490000,-34.230000,37.520000,21.88
7117421,0.337208,0.103456,1.009184,7.000000,-32.130001,33.040001,21.88
7117432,0.356728,0.082960,1.000400,10.080000,-31.850000,29.469999,21.87
7117442,0.388936,0.074176,0.978928,12.600000,-31.500000,26.950001,21.90
7117453,0.422608,0.050752,0.953064,14.280000,-29.820000,24.150000,21.90
7117464,0.464088,0.065392,0.963800,13.650000,-27.510000,22.120001,21.89
7117475,0.461648,0.090768,0.949648,13.160000,-27.580000,18.480000,21.89
7117486,0.496784,0.097600,0.990640,12.320000,-27.650000,15.680000,21.87
7117496,0.490928,0.116144,1.012600,14.280000,-28.559999,13.300000,21.85
7117507,0.517768,0.152744,0.982344,14.840000,-29.680000,11.830000,21.85
7117518,0.562176,0.164456,0.935008,9.940000,-28.490000,11.340000,21.81
7117529,0.600240,0.142496,0.916952,3.780000,-25.410000,10.500000,21.81
7117540,0.635376,0.116144,0.918416,-0.560000,-22.190001,9.660000,21.87
7117551,0.642696,0.113704,0.944768,-5.670000,-20.299999,8.610000,21.87
7117562,0.643184,0.104432,0.967216,-6.090000,-19.110001,6.930000,21.89
7117573,0.660264,0.116632,0.968192,-5.040000,-18.690001,5.460000,21.91
7117584,0.681248,0.122488,0.941840,-5.740000,-17.639999,4.410000,21.91
7117595,0.717848,0.098088,0.922808,-7.420000,-14.070000,3.430000,21.89
7117605,0.739808,0.074176,0.909632,-9.310000,-9.310000,2.310000,21.89
7117617,0.739320,0.070272,0.906704,-11.690000,-5.320000,1.400000,21.86
7117628,0.721264,0.084912,0.914024,-12.670000,-1.820000,0.490000,21.89
7117638,0.712968,0.085888,0.908656,-12.530000,1.470000,-0.280000,21.89
7117649,0.716872,0.064904,0.907680,-10.710000,4.410000,-1.540000,21.87
7117660,0.697840,0.081008,0.927200,-8.680000,8.050000,-2.450000,21.87
7117671,0.671000,0.107848,0.945256,-7.980000,11.410000,-3.780000,21.86
7117682,0.640744,0.126392,0.950136,-10.640000,13.580000,-4.550000,21.86
7117694,0.641720,0.099552,0.919880,-13.230000,15.750000,-6.020000,21.89
7117705,0.635376,0.067832,0.894504,-12.670000,19.320000,-8.540000,21.81
7117716,0.628056,0.037088,0.879864,-10.080000,23.590000,-10.850000,21.81
7117727,0.619272,0.024400,0.864736,-6.860000,27.930000,-14.280000,21.89
7117737,0.605608,0.007808,0.900848,-5.460000,31.290001,-17.500000,21.89
7117748,0.564616,-0.005368,0.917928,-1.750000,34.580002,-22.049999,21.91
7117759,0.527040,0.008296,0.937936,-0.210000,36.610001,-26.809999,21.86
7117770,0.499224,0.021472,0.934520,-0.910000,37.869999,-31.219999,21.86
7117781,0.474336,0.035624,0.907680,-5.530000,40.180000,-35.000000,21.87
7117793,0.458232,0.049776,0.871568,-10.920000,44.380001,-40.389999,21.87
7117804,0.417728,0.052216,0.855464,-12.880000,50.049999,-47.320000,21.86
7117815,0.350872,0.042944,0.894992,-14.490000,52.779999,-53.549999,21.83
7117826,0.293776,-0.002440,0.932080,-13.300000,55.230000,-58.310001,21.83
7117836,0.224480,0.016592,0.952088,-13.790000,55.860001,-65.029999,21.88
7117848,0.178120,0.025376,0.972584,-18.059999,56.630001,-70.839996,21.88
7117858,0.119560,0.019520,0.961848,-23.240000,57.470001,-75.180000,21.90
7117869,0.067344,0.040016,0.941840,-30.450001,59.360001,-79.800003,21.90
7117881,0.000488,0.022936,0.902800,-32.619999,62.790001,-84.980003,21.87
7117892,-0.053192,0.114192,0.875472,-37.029999,62.230000,-88.410004,21.86
7117903,-0.064416,0.092720,0.908656,-45.919998,65.730003,-89.739998,21.86
7117914,-0.140056,0.040016,0.861808,-52.009998,66.500000,-94.430000,21.87
7117925,-0.182024,0.020496,0.893040,-54.250000,68.669998,-96.250000,21.87
7117936,-0.258640,0.011712,0.974536,-52.779999,68.529999,-96.040001,21.89
7117947,-0.330376,0.010248,1.048712,-51.099998,64.540001,-92.190002,21.86
7117959,-0.368440,-0.069784,1.096536,-43.330002,58.520000,-89.110001,21.86
7117970,-0.364048,-0.099064,1.085800,-29.680000,50.400002,-84.699997,21.87
7117981,-0.338184,-0.095160,1.075064,-19.740000,42.980000,-77.699997,21.87
7117992,-0.322568,-0.029280,1.045296,-9.730000,37.520000,-71.400002,21.88
7118003,-0.309880,0.018056,1.021872,-6.720000,31.430000,-64.470001,21.83
7118014,-0.299144,0.027816,1.026264,-5.180000,25.830000,-54.599998,21.83
7118025,-0.286944,0.052216,1.035536,-5.040000,18.200001,-42.070000,21.87
7118036,-0.265472,0.053680,1.055056,-5.460000,12.810000,-28.840000,21.87
7118047,-0.248392,0.015616,1.046760,0.140000,6.650000,-18.129999,21.87
7118058,-0.220576,-0.000488,1.047248,7.070000,1.470000,-5.320000,21.86
7118069,-0.224480,-0.007320,1.034072,15.190000,-2.730000,5.810000,21.86
7118081,-0.224968,-0.027328,1.020408,22.750000,-5.950000,16.240000,21.88
7118092,-0.222528,-0.028792,1.022848,29.610001,-10.150000,25.549999,21.88
7118103,-0.221552,-0.002928,1.036512,31.780001,-12.950000,30.730000,21.86
7118114,-0.223016,0.023912,1.039440,28.700001,-17.639999,37.169998,21.86
7118125,-0.225456,0.003416,1.035536,25.830000,-21.209999,41.930000,21.86
7118136,-0.211304,-0.007808,1.009184,24.780001,-24.010000,46.340000,21.88
7118147,-0.191296,0.036600,0.999912,19.879999,-26.180000,50.400002,21.88
7118158,-0.186416,0.027816,1.010648,14.560000,-27.510000,54.740002,21.90
7118169,-0.187392,0.019032,1.039440,12.110000,-28.139999,58.310001,21.79
7118180,-0.202520,0.000976,1.058960,13.930000,-30.240000,61.110001,21.79
7118191,-0.200568,-0.032208,1.066280,21.770000,-32.900002,63.910000,21.89
7118202,-0.197640,-0.035136,1.056032,28.840000,-35.139999,65.379997,21.89
7118213,-0.202520,-0.001952,1.025776,35.980000,-39.480000,68.040001,21.86
7118224,-0.156160,0.048800,1.018944,37.520000,-40.740002,68.110001,21.83
7118235,-0.166408,0.127856,0.997960,32.130001,-42.490002,69.860001,21.83
7118246,-0.154696,0.151280,1.003816,20.020000,-43.750000,72.730003,21.86
7118257,-0.150304,0.105896,1.027240,9.940000,-45.779999,73.360001,21.86
7118268,-0.131760,0.064904,1.019920,9.800000,-48.299999,73.709999,21.87
7118279,-0.050264,0.059536,1.013088,12.600000,-49.000000,75.110001,21.87
7118290,0.019520,0.058560,0.989664,16.450001,-48.509998,73.989998,21.90
7118301,0.085400,0.068808,0.973560,19.670000,-44.939999,70.489998,21.84
7118312,0.097600,0.057096,1.008696,22.750000,-42.630001,65.800003,21.84
7118323,0.079056,0.076616,1.033096,27.650000,-41.930000,61.320000,21.87
7118334,0.077592,0.107360,1.032608,28.559999,-45.290001,60.689999,21.87
7118345,0.135664,0.130784,1.010160,27.299999,-46.689999,58.799999,21.89
7118356,0.184464,0.136152,0.986736,23.940001,-44.450001,57.259998,21.85
7118367,0.231800,0.151280,0.963800,21.629999,-43.610001,56.700001,21.85
7118378,0.287432,0.139568,0.971608,17.500000,-40.669998,54.669998,21.89
7118389,0.302560,0.121512,0.982832,15.610000,-38.570000,50.820000,21.89
7118400,0.318664,0.091744,0.992592,14.350000,-37.939999,46.970001,21.88
7118411,0.345992,0.068808,0.989176,16.309999,-37.590000,43.610001,21.85
7118422,0.392840,0.089792,0.972096,19.110001,-37.240002,40.250000,21.85
7118433,0.446520,0.134688,0.966728,14.070000,-36.189999,38.500000,21.85
7118444,0.444568,0.189832,0.980880,1.260000,-34.020000,36.470001,21.85
7118454,0.458232,0.156648,0.985760,-7.980000,-33.110001,34.509998,21.92
7118466,0.467016,0.032696,0.896456,-15.330000,-34.090000,31.219999,21.92
7118477,0.515816,0.043920,0.975024,-13.090000,-31.219999,29.889999,21.87
7118488,0.543144,0.007808,0.962824,-5.390000,-29.330000,25.620001,21.86
7118499,0.589504,-0.015616,0.929640,3.080000,-26.110001,21.629999,21.86
7118510,0.614880,-0.014152,0.931592,10.850000,-22.610001,17.990000,21.87
7118520,0.612440,0.017080,0.948184,13.440000,-19.110001,15.470000,21.87
7118531,0.607560,0.054656,0.960384,11.900000,-17.639999,13.090000,21.87
7118542,0.614392,0.064416,0.976000,8.050000,-16.379999,11.130000,21.85
7118553,0.612440,0.056608,0.992104,2.310000,-14.910000,10.430000,21.85
7118564,0.602680,0.079544,0.990152,-1.680000,-14.490000,9.870000,21.84
7118575,0.620248,0.100040,0.978928,-9.800000,-13.300000,9.100000,21.84
7118586,0.618784,0.086376,0.968680,-17.080000,-10.430000,7.980000,21.91
7118597,0.617320,0.060512,0.957456,-20.440001,-7.700000,6.720000,21.91
7118608,0.623664,0.033184,0.966728,-20.440001,-5.040000,5.040000,21.91
7118618,0.632448,0.010248,0.978928,-16.799999,-1.400000,3.710000,21.87
7118629,0.619760,0.016104,0.977952,-12.740000,2.100000,2.030000,21.87
7118640,0.614392,0.034648,0.981856,-9.940000,4.270000,1.120000,21.88
7118651,0.609024,0.055632,0.969168,-8.190000,8.050000,0.210000,21.88
7118662,0.621712,0.061000,0.943792,-8.260000,12.670000,-0.420000,21.89
7118673,0.630496,0.018544,0.946232,-6.580000,17.500000,-2.170000,21.84
7118684,0.615856,0.004392,0.962336,-3.850000,22.049999,-4.340000,21.84
7118695,0.587064,-0.009272,0.967704,-1.960000,26.670000,-9.030000,21.89
7118706,0.539240,-0.009760,0.955992,-0.490000,28.980000,-13.720000,21.89
7118717,0.514352,-0.015616,0.935008,-0.840000,31.080000,-18.900000,21.85
7118729,0.478728,-0.036600,0.915488,-2.030000,33.740002,-23.379999,21.86
7118740,0.447496,-0.057584,0.899384,-4.480000,37.029999,-29.190001,21.86
7118751,0.409920,-0.074176,0.874496,-6.580000,40.040001,-35.840000,21.87
7118762,0.379176,-0.047336,0.859368,-11.620000,42.349998,-41.930000,21.87
7118773,0.348920,-0.030744,0.845704,-16.799999,44.939999,-47.599998,21.87
7118784,0.308416,-0.042456,0.833992,-19.879999,48.509998,-54.389999,21.87
7118795,0.274256,-0.046360,0.853024,-22.750000,52.009998,-60.830002,21.86
7118806,0.223504,-0.062464,0.871080,-22.330000,54.740002,-67.620003,21.84
7118817,0.154208,-0.045872,0.878888,-19.950001,57.750000,-72.870003,21.84
7118829,0.081008,-0.032696,0.888160,-21.770000,58.590000,-77.839996,21.88
7118840,0.013664,-0.049776,0.878888,-21.420000,59.220001,-83.860001,21.88
7118851,0.001464,-0.050264,0.847168,-19.740000,59.220001,-88.690002,21.82
7118862,0.041480,-0.038552,0.846192,-18.059999,59.849998,-93.099998,21.84
7118873,0.123952,0.000488,0.810080,-22.540001,63.980000,-98.349998,21.84
7118884,0.038552,0.058072,0.806176,-35.560001,73.500000,-108.570000,21.89
7118895,-0.117120,0.127368,0.974048,-51.380001,80.010002,-116.339996,21.89
7118906,-0.305000,0.111752,0.957456,-65.239998,75.389999,-120.889999,21.89
7118917,-0.410408,0.074664,1.057008,-77.559998,70.000000,-118.370003,21.84
7118928,-0.479216,-0.015616,1.119472,-83.230003,62.160000,-112.279999,21.84
7118940,-0.500200,-0.070272,1.170224,-77.000000,51.799999,-104.720001,21.83
7118951,-0.499224,-0.120536,1.187792,-55.299999,44.099998,-98.000000,21.83
7118962,-0.465552,-0.120536,1.120936,-19.459999,35.560001,-91.419998,21.87
7118973,-0.385520,-0.078568,1.059448,17.990000,28.559999,-78.470001,21.84
7118984,-0.305000,0.017080,1.001376,39.130001,23.170000,-60.549999,21.84
7118995,-0.275232,0.071248,1.022360,48.650002,18.410000,-39.130001,21.84
7119006,-0.269376,0.120048,1.074088,47.040001,11.410000,-21.490000,21.84
7119017,-0.280600,0.174704,1.113128,33.669998,1.330000,1.960000,21.88
7119028,-0.269864,0.167384,1.098000,22.049999,-7.910000,23.590000,21.86
7119039,-0.253272,0.112240,1.061888,9.730000,-13.650000,40.180000,21.86
7119051,-0.227896,0.067344,1.037000,0.910000,-18.270000,49.139999,21.84
7119061,-0.216184,-0.023912,1.039440,-1.820000,-20.719999,55.299999,21.84
7119073,-0.222528,-0.086376,1.050664,2.170000,-24.500000,58.169998,21.93
7119084,-0.219600,-0.124440,1.073112,10.290000,-27.719999,59.360001,21.85
7119095,-0.225456,-0.139080,1.056520,22.889999,-31.010000,59.500000,21.85
7119106,-0.214720,-0.127856,1.035536,33.599998,-34.020000,59.709999,21.86
7119117,-0.180072,-0.068808,1.009672,38.639999,-35.630001,60.830002,21.86
7119129,-0.160552,-0.035136,0.995032,38.150002,-35.700001,61.880001,21.85
7119140,-0.165432,-0.006832,1.012112,32.060001,-35.209999,63.000000,21.84
7119151,-0.195200,0.020496,1.030656,23.240000,-37.380001,65.379997,21.84
7119162,-0.211792,-0.010248,1.037976,18.480000,-38.639999,66.709999,21.86
7119173,-0.214232,-0.035624,1.017968,21.070000,-40.250000,66.849998,21.86
7119184,-0.205448,-0.020008,0.983808,25.900000,-41.299999,67.199997,21.88
7119195,-0.160064,-0.034648,0.974536,29.820000,-42.000000,66.709999,21.81
7119207,-0.099064,-0.021472,0.970144,37.380001,-41.090000,64.680000,21.81
7119218,-0.062952,0.041480,0.964288,38.360001,-41.160000,64.470001,21.87
7119229,-0.031720,0.084912,0.990152,31.010000,-40.950001,64.680000,21.87
7119240,-0.028304,0.060024,1.031632,22.680000,-41.230000,62.790001,21.89
7119251,-0.020496,0.020008,1.051640,19.879999,-42.630001,61.320000,21.87
7119262,-0.026352,0.019032,1.038952,23.240000,-43.400002,58.240002,21.87
7119273,-0.010736,0.010736,0.999424,32.200001,-44.799999,55.650002,21.88
7119284,0.082472,0.006832,0.979416,43.330002,-45.360001,53.619999,21.88
7119295,0.127368,0.041968,0.987224,47.810001,-44.380001,50.889999,21.86
7119305,0.124440,0.142984,1.002352,45.709999,-43.049999,47.880001,21.86
7119316,0.142496,0.201544,1.010648,29.820000,-43.330002,47.880001,21.87
7119327,0.133224,0.190320,1.020896,2.100000,-45.009998,46.970001,21.88
7119338,0.130784,0.197640,0.994056,10.010000,-47.040001,46.759998,21.88
7119349,0.181536,0.152744,0.958920,7.560000,-47.040001,44.730000,21.87
7119360,0.248392,0.092232,0.958432,15.470000,-45.080002,43.049999,21.87
7119371,0.261568,0.121024,0.955992,23.240000,-42.630001,40.250000,21.84
7119382,0.296704,0.100040,0.954040,29.049999,-40.040001,37.939999,21.86
7119393,0.316224,0.140056,0.952088,31.430000,-38.009998,36.330002,21.86
7119404,0.335744,0.281088,1.022360,27.160000,-43.680000,34.720001,21.87
7119415,0.442616,0.156648,0.916464,24.290001,-34.790001,34.230000,21.87
7119426,0.483120,0.157624,0.935008,15.680000,-33.040001,32.549999,21.88
7119436,0.621224,0.157624,0.937448,10.220000,-30.450001,30.730000,21.88
7119447,0.534360,0.123952,0.945744,3.920000,-27.930000,27.440001,21.85
7119458,0.537776,0.094184,0.942328,1.540000,-25.549999,24.500000,21.86
7119469,0.554368,0.073200,0.938424,1.820000,-24.290001,21.139999,21.86
7119480,0.585112,0.083936,0.921832,0.840000,-24.219999,18.340000,21.87
7119491,0.651968,0.074176,0.915976,1.120000,-20.160000,17.430000,21.87
7119502,0.673440,0.106384,0.940376,-7.980000,-17.010000,15.960000,21.90
7119513,0.660264,0.120536,0.989664,-15.610000,-15.470000,13.860000,21.84
7119524,0.646112,0.108336,1.015528,-22.190001,-15.120000,12.110000,21.84
7119535,0.665144,0.071248,1.014552,-25.410000,-14.910000,10.780000,21.85
7119546,0.691008,0.042456,0.989176,-25.690001,-13.650000,9.240000,21.85
7119557,0.708576,0.021472,0.976976,-25.830000,-11.410000,7.280000,21.85
7119568,0.701256,-0.009272,0.976488,-22.400000,-8.260000,4.550000,21.84
7119579,0.689544,-0.030256,0.989176,-14.140000,-5.670000,1.120000,21.84
7119591,0.675392,-0.045872,0.993568,-5.600000,-3.710000,-2.590000,21.87
7119602,0.664656,-0.003416,0.985272,2.730000,-2.170000,-4.760000,21.87
7119613,0.651968,0.039040,0.973072,4.620000,-0.490000,-6.230000,21.84
7119624,0.627568,0.074664,0.969168,3.500000,2.380000,-7.770000,21.84
7119635,0.615368,0.067832,0.970632,0.000000,4.970000,-8.680000,21.86
7119645,0.603656,0.034160,0.964288,-0.770000,7.210000,-10.850000,21.88
7119656,0.586088,0.005368,0.954528,4.690000,9.870000,-14.840000,21.88
7119667,0.571448,0.004880,0.922808,10.290000,12.810000,-18.760000,21.86
7119678,0.556808,0.016104,0.885232,15.330000,15.540000,-22.959999,21.86
7119689,0.538264,0.023424,0.871568,15.610000,19.459999,-25.690001,21.84
7119700,0.509960,0.058072,0.867176,12.460000,22.959999,-28.420000,21.87
7119711,0.486536,0.067832,0.876936,7.140000,25.480000,-31.850000,21.87
7119723,0.449936,0.074664,0.864248,2.660000,29.049999,-35.490002,21.86
7119734,0.433832,0.068320,0.855952,-1.890000,33.180000,-38.220001,21.86
7119745,0.400160,0.037088,0.833504,-3.500000,38.430000,-42.490002,21.84
7119759,0.407480,0.045384,0.786656,-5.180000,45.220001,-46.480000,21.84
7119770,0.422608,0.042944,0.793976,-11.830000,53.480000,-49.490002,21.84
7119781,0.412848,0.020496,0.817888,-16.309999,60.549999,-54.110001,21.84
7119792,0.399184,-0.033672,0.854488,-18.200001,69.580002,-59.150002,21.84
7119803,0.325984,-0.083936,0.839848,-7.560000,78.820000,-69.230003,21.84
7119814,0.243024,-0.125904,0.820328,8.960000,86.169998,-80.010002,21.81
7119825,0.150304,-0.077592,0.858880,22.190001,91.070000,-90.930000,21.81
7119836,0.000976,-0.058560,0.918904,29.889999,92.680000,-100.239998,21.85
7119847,-0.196664,-0.063928,1.079944,28.280001,85.680000,-110.669998,21.85
7119858,-0.323544,-0.019520,1.123864,26.809999,73.919998,-116.970001,21.88
7119870,-0.368928,0.015616,1.098976,24.010000,64.330002,-119.279999,21.82
7119881,-0.407968,0.082960,1.035048,23.730000,54.599998,-119.769997,21.82
7119893,-0.433832,0.170312,0.967216,21.139999,48.160000,-117.389999,21.88
7119904,-0.467992,0.315248,0.955016,10.640000,41.160000,-111.370003,21.88
7119914,-0.473360,0.371856,1.002840,-3.080000,33.320000,-102.269997,21.84
7119926,-0.473360,0.381616,1.031144,-18.270000,26.320000,-89.949997,21.83
7119937,-0.429928,0.346480,1.055544,-27.299999,18.340000,-75.459999,21.83
7119948,-0.414800,0.289384,1.048712,-25.620001,9.170000,-63.000000,21.86
7119960,-0.364048,0.249368,0.997472,-21.700001,0.980000,-47.250000,21.86
7119971,-0.280600,0.130784,0.953552,-13.090000,-1.680000,-32.410000,21.88
7119982,-0.254736,0.090768,0.929640,4.200000,-2.800000,-20.580000,21.84
7119993,-0.240584,0.105408,0.927200,21.209999,-3.290000,-9.030000,21.84
7120004,-0.258152,0.137128,0.955016,35.630001,-5.320000,1.120000,21.86
7120016,-0.262056,0.171288,0.972584,44.169998,-8.610000,12.950000,21.86
7120027,-0.244488,0.181048,0.986248,45.220001,-10.920000,24.010000,21.86
7120038,-0.233264,0.220576,0.997960,38.570000,-11.900000,31.709999,21.82
7120049,-0.227896,0.228872,0.992592,28.280001,-12.250000,36.959999,21.82
7120060,-0.232776,0.200080,1.001864,22.190001,-13.300000,42.560001,21.83
7120071,-0.228384,0.163968,1.033096,21.910000,-15.330000,47.320000,21.83
7120082,-0.227408,0.170800,1.017968,20.860001,-17.850000,51.450001,21.87
7120093,-0.216184,0.157136,1.010648,18.969999,-20.020000,54.459999,21.87
7120104,-0.221064,0.143960,1.007720,21.280001,-19.809999,56.209999,21.87
7120115,-0.236192,0.176168,1.014064,21.000000,-21.209999,60.130001,21.84
7120126,-0.217648,0.211304,1.035536,13.650000,-23.170000,63.840000,21.84
7120137,-0.199104,0.204472,1.075552,6.160000,-25.410000,64.680000,21.84
7120148,-0.207400,0.203008,1.083360,3.920000,-28.910000,65.589996,21.89
7120160,-0.157136,0.223504,1.068232,-2.730000,-32.270000,66.919998,21.89
7120170,-0.128344,0.203984,1.031632,-10.920000,-34.090000,66.360001,21.87
7120182,-0.066856,0.195688,0.996008,-18.059999,-33.669998,66.220001,21.87
7120193,-0.023424,0.180072,1.000400,-24.150000,-30.799999,65.379997,21.87
7120204,-0.040504,0.167872,0.995520,-25.900000,-31.080000,62.580002,21.79
7120215,-0.012688,0.139080,1.019920,-26.600000,-32.480000,61.810001,21.79
7120226,0.006344,0.090280,1.030656,-17.500000,-31.639999,58.099998,21.85
7120237,0.034648,0.068808,1.027240,-2.590000,-32.619999,55.720001,21.85
7120248,0.067832,0.080032,1.003328,8.190000,-33.810001,52.709999,21.82
7120259,0.097112,0.133712,0.970632,14.000000,-35.070000,50.330002,21.87
7120271,0.133712,0.193248,0.959408,11.830000,-33.740002,46.970001,21.87
7120282,0.151280,0.237656,0.937936,6.650000,-32.270000,45.360001,21.92
7120292,0.167872,0.275720,0.943792,-2.800000,-31.850000,46.130001,21.92
7120304,0.182512,0.244000,0.942328,-10.920000,-29.959999,44.169998,21.81
7120315,0.210328,0.214720,0.962824,-12.390000,-28.700001,42.910000,21.91
7120326,0.245952,0.193248,0.977464,-9.380000,-27.440001,40.110001,21.91
7120337,0.271328,0.139080,0.973560,-1.120000,-26.110001,37.520000,21.86
7120348,0.329400,0.125904,0.983808,6.580000,-24.920000,35.630001,21.86
7120359,0.337696,0.174704,1.118496,4.200000,-25.760000,33.880001,21.84
7120370,0.362584,0.214720,1.004304,3.220000,-26.530001,32.410000,21.84
7120381,0.403576,0.242536,0.991128,-3.780000,-27.650000,31.290001,21.82
7120392,0.448472,0.238144,0.977464,-15.750000,-27.160000,30.379999,21.87
7120403,0.495808,0.193736,0.976488,-24.290001,-27.160000,28.910000,21.87
7120415,0.529480,0.144448,0.986736,-29.750000,-26.040001,26.320000,21.87
7120426,0.551928,0.089304,1.000888,-28.070000,-24.850000,22.400000,21.88
7120437,0.587552,0.036600,0.996984,-22.330000,-23.030001,18.059999,21.88
7120448,0.619760,-0.002440,0.981368,-10.500000,-20.790001,13.440000,21.84
7120459,0.641720,0.006832,1.000888,-3.990000,-18.620001,10.920000,21.84
7120471,0.636352,0.047824,1.022848,-1.330000,-17.360001,7.840000,21.89
7120481,0.639280,0.129808,1.016504,-4.690000,-17.150000,6.720000,21.89
7120493,0.652944,0.157136,0.993568,-13.650000,-15.400000,6.300000,21.84
7120504,0.670024,0.151280,0.968680,-25.059999,-12.740000,5.600000,21.83
7120515,0.672464,0.103456,0.967216,-32.549999,-8.400000,5.180000,21.83
7120526,0.648552,0.059048,0.980392,-31.850000,-4.340000,3.290000,21.86
7120537,0.624152,0.026840,1.018944,-27.020000,-1.820000,1.050000,21.86
7120548,0.590480,0.011224,1.034072,-16.870001,-0.420000,-1.680000,21.82
7120559,0.565592,0.024888,1.033096,-6.650000,0.840000,-3.500000,21.79
7120570,0.551440,0.060024,0.997960,-1.750000,2.660000,-5.530000,21.79
7120581,0.546072,0.061000,0.963800,2.940000,5.180000,-8.190000,21.84
7120592,0.548024,0.049288,0.932080,6.090000,8.960000,-9.940000,21.84
7120603,0.530456,0.083448,0.925736,4.480000,11.970000,-11.200000,21.86
7120614,0.528016,0.103456,0.923784,2.800000,13.720000,-14.140000,21.79
7120625,0.514352,0.108824,0.932080,-1.890000,16.799999,-17.219999,21.79
7120636,0.487024,0.082472,0.935496,-6.790000,18.969999,-20.370001,21.89
7120647,0.451400,0.023912,0.941352,-7.630000,21.629999,-26.040001,21.89
7120658,0.430416,-0.003904,0.920368,-1.820000,23.660000,-32.549999,21.89
7120670,0.406992,-0.021472,0.889136,7.700000,27.860001,-38.990002,21.87
7120681,0.359168,-0.046360,0.882792,19.530001,31.709999,-44.450001,21.87
7120692,0.295240,-0.042456,0.911584,29.260000,33.810001,-50.959999,21.86
7120703,0.247416,0.026352,0.962824,31.639999,34.369999,-55.860001,21.86
7120714,0.194712,0.110288,0.974536,19.879999,31.850000,-58.869999,21.85
7120724,0.167872,0.117120,0.954528,8.260000,30.309999,-63.560001,21.85
7120735,0.172264,0.131272,0.892552,-5.600000,30.940001,-66.779999,21.83
7120747,0.167384,0.144936,0.827160,-21.000000,33.810001,-70.419998,21.85
7120758,0.144936,0.148840,0.842288,-38.430000,39.410000,-73.570000,21.85
7120769,0.036112,0.103944,0.917440,-51.380001,42.349998,-78.889999,21.90
7120780,-0.049288,0.084424,1.056032,-48.930000,46.900002,-84.070000,21.90
7120791,-0.128344,0.042456,0.975512,-49.279999,39.200001,-89.529999,21.84
7120802,-0.128832,0.005368,0.939400,-42.840000,37.660000,-90.370003,21.87
7120813,-0.120536,0.025376,0.890112,-39.900002,40.040001,-93.309998,21.87
7120824,-0.141032,0.020984,0.886208,-43.400002,42.980000,-96.879997,21.89
7120835,-0.255224,0.018544,0.954040,-50.610001,45.220001,-98.839996,21.89
7120847,-0.382104,0.114192,1.023824,-72.589996,39.060001,-92.959999,21.86
7120861,-0.438224,0.164944,1.025288,-90.510002,27.580000,-83.230003,21.84
7120872,-0.320616,0.060024,0.991616,-87.639999,23.240000,-55.160000,21.84
7120883,-0.258640,-0.040992,0.979904,-73.290001,24.850000,-64.260002,21.89
7120895,-0.264984,-0.096624,0.959408,-55.439999,24.430000,-60.830002,21.84
7120906,-0.266936,-0.122976,0.972096,-21.070000,26.250000,-52.709999,21.84
7120917,-0.285968,-0.127856,1.007720,14.280000,23.660000,-41.790001,21.84
7120928,-0.284504,-0.104920,1.032120,45.709999,17.219999,-30.100000,21.84
7120939,-0.259128,-0.035136,1.051152,62.509998,8.820000,-15.960000,21.84
7120950,-0.215696,0.099064,1.059448,60.340000,1.330000,-0.980000,21.85
7120961,-0.191296,0.171288,1.067744,41.090000,-2.310000,12.250000,21.85
7120972,-0.198616,0.206912,1.077992,14.770000,-7.350000,22.049999,21.87
7120983,-0.220088,0.124928,1.091168,-0.210000,-12.040000,32.410000,21.87
7120994,-0.224968,0.029280,1.091656,-6.650000,-35.000000,40.669998,21.85
7121005,-0.218624,-0.026352,1.054568,-4.550000,-22.540001,46.060001,21.83
7121017,-0.192272,-0.078080,1.045296,7.070000,-25.270000,47.320000,21.83
7121028,-0.184464,-0.056120,1.020896,19.110001,-26.879999,48.230000,21.86
7121039,-0.169824,-0.036600,1.017968,32.549999,-27.299999,49.770000,21.86
7121050,-0.174704,-0.013664,1.030656,39.830002,-27.299999,52.500000,21.86
7121061,-0.188368,0.051240,1.049200,39.410000,-30.240000,55.439999,21.84
7121072,-0.206912,0.065392,1.068232,34.020000,-32.900002,58.939999,21.84
7121083,-0.222528,0.059048,1.050664,31.709999,-35.630001,61.740002,21.85
7121094,-0.199104,0.042456,1.030656,33.250000,-37.310001,64.470001,21.85
7121106,-0.077104,0.022936,0.999912,38.220001,-37.730000,65.660004,21.83
7121116,-0.021472,0.027328,0.993568,38.849998,-34.090000,63.490002,21.83
7121127,-0.025864,0.111752,0.989664,34.720001,-31.850000,62.090000,21.85
7121138,-0.017568,0.126392,1.034072,24.570000,-31.920000,63.419998,21.82
7121150,-0.050752,0.141520,1.069696,13.020000,-33.599998,64.190002,21.82
7121161,-0.090768,0.142496,1.068720,6.090000,-37.520000,64.400002,21.87
7121172,-0.094184,0.085400,1.051640,6.930000,-38.500000,64.889999,21.87
7121183,-0.050752,0.039040,1.016016,16.240000,-39.970001,63.419998,21.83
7121195,0.047336,0.023912,0.981856,25.900000,-40.110001,61.389999,21.86
7121205,0.107848,0.056608,0.956968,31.500000,-39.549999,58.869999,21.86
7121217,0.192272,0.138592,0.942816,27.299999,-38.150002,55.860001,21.86
7121228,0.213256,0.176656,0.972584,14.560000,-36.610001,54.599998,21.86
7121238,0.225944,0.172264,1.027728,1.820000,-36.330002,53.200001,21.82
7121249,0.202032,0.172752,1.024312,-7.350000,-37.240002,51.029999,21.80
7121261,0.229848,0.127856,1.014064,-13.020000,-40.599998,48.299999,21.80
7121272,0.308904,0.065392,0.953064,-4.200000,-37.099998,44.799999,21.86
7121283,0.352824,0.053192,0.979416,0.210000,-36.119999,39.619999,21.86
7121294,0.356728,0.060512,0.981368,12.040000,-34.299999,35.419998,21.83
7121305,0.351360,0.125416,1.000400,13.790000,-36.119999,32.970001,21.82
7121316,0.350872,0.182024,0.996008,9.310000,-37.029999,32.200001,21.82
7121327,0.384056,0.209840,0.964776,0.910000,-38.009998,32.270000,21.85
7121338,0.457256,0.183976,0.944768,-12.530000,-38.290001,32.200001,21.85
7121349,0.531432,0.109312,0.923296,-11.270000,-33.320000,33.389999,21.87
7121360,0.560224,0.086376,0.956968,-13.370000,-28.910000,31.500000,21.84
7121371,0.547536,0.087840,1.007232,-13.790000,-26.809999,29.400000,21.84
7121382,0.541192,0.062464,1.030656,-10.010000,-26.530001,26.530001,21.87
7121393,0.588528,0.013664,1.031632,-4.620000,-26.809999,24.500000,21.87
7121404,0.636840,-0.026840,1.013088,-0.420000,-25.830000,22.049999,21.89
7121415,0.669536,-0.045384,0.989176,2.730000,-23.730000,18.410000,21.89
7121426,0.687104,-0.027816,0.966240,3.920000,-21.490000,15.190000,21.82
7121437,0.709552,-0.012688,0.950136,-0.420000,-19.459999,12.810000,21.83
7121448,0.724192,0.003904,0.931592,-4.200000,-16.870001,9.520000,21.83
7121459,0.737368,0.007808,0.917440,-9.380000,-13.580000,7.350000,21.83
7121470,0.738832,-0.016592,0.931104,-14.840000,-10.010000,4.620000,21.83
7121481,0.732976,-0.040504,0.933544,-14.630000,-5.600000,1.330000,21.84
7121492,0.716872,-0.085888,0.948184,-7.140000,-1.190000,-3.430000,21.85
7121504,0.689544,-0.108336,0.950136,7.000000,3.360000,-8.540000,21.85
7121514,0.659776,-0.076616,0.972096,15.680000,6.160000,-11.830000,21.90
7121525,0.630984,-0.056120,0.977952,22.889999,9.100000,-14.770000,21.90
7121536,0.595848,-0.016104,0.965264,23.030001,12.250000,-18.340000,21.82
7121547,0.561688,0.026840,0.934520,21.350000,14.770000,-21.770000,21.84
7121558,0.539728,0.031720,0.911584,19.040001,16.870001,-24.780001,21.84
7121569,0.508008,0.051240,0.885720,15.610000,19.879999,-27.299999,21.85
7121580,0.495808,0.070272,0.885720,11.130000,22.680000,-29.120001,21.85
7121591,0.457256,0.100528,0.900360,0.770000,26.180000,-31.080000,21.85
7121602,0.423096,0.064416,0.933056,-5.390000,29.610001,-34.720001,21.85
7121613,0.382104,0.037088,0.960872,-4.550000,31.219999,-38.990002,21.88
7121624,0.358680,0.046848,0.943304,-2.240000,31.850000,-43.400002,21.84
7121635,0.370392,0.032696,0.900848,0.280000,34.580002,-46.759998,21.84
7121646,0.368440,0.050752,0.817400,2.520000,38.709999,-52.500000,21.88
7121657,0.444080,0.080520,0.787632,-6.020000,46.480000,-53.060001,21.88
7121672,0.405528,0.055144,0.848632,-25.129999,60.130001,-60.130001,21.88
7121686,0.381128,0.133224,0.855464,-41.369999,70.000000,-64.750000,21.82
7121698,0.259128,0.103944,0.901824,-52.779999,80.709999,-74.339996,21.83
7121710,0.105896,0.015128,0.999912,-54.110001,84.910004,-81.900002,21.83
7121721,-0.062952,-0.062952,1.117520,-47.040001,84.209999,-88.129997,21.87
7121738,-0.267912,-0.152256,1.165344,-17.500000,74.339996,-100.099998,21.86
7121756,-0.353312,-0.082960,1.016992,-1.890000,62.720001,-104.089996,21.84
7121768,-0.391864,0.024888,0.946232,-3.220000,56.910000,-105.209999,21.84
7121779,-0.412848,0.203984,0.872544,-14.700000,49.490002,-100.029999,21.86
7121790,-0.414800,0.297192,0.851072,-31.080000,44.099998,-91.489998,21.84
7121801,-0.401624,0.287920,0.947696,-55.930000,39.549999,-78.470001,21.84
7121812,-0.454328,0.114680,1.055056,-64.330002,29.190001,-68.250000,21.80
7121823,-0.435784,0.007808,1.102880,-39.549999,16.240000,-54.880001,21.80
7121834,-0.369416,-0.116632,1.035048,-29.820000,4.690000,-42.070000,21.82
7121845,-0.252784,-0.168360,0.935496,5.600000,1.540000,-30.940001,21.85
7121856,-0.188368,-0.137616,0.891088,33.529999,0.140000,-22.540001,21.85
7121868,-0.152256,-0.035136,0.882792,48.090000,1.330000,-13.160000,21.91
7121879,-0.167384,-0.004392,0.941840,54.180000,2.520000,-4.900000,21.91
7121890,-0.201056,0.028792,1.005768,59.360001,0.140000,5.670000,21.84
7121900,-0.227408,0.058072,1.025776,59.500000,-3.920000,13.790000,21.84
7121911,-0.218136,0.071736,1.008208,54.599998,-7.000000,22.750000,21.85
7121922,-0.207888,0.093208,0.993568,42.840000,-8.260000,28.209999,21.85
7121933,-0.197640,0.088328,0.990640,30.450001,-8.960000,32.900002,21.85
7121944,-0.197152,0.041480,1.013088,25.410000,-9.030000,36.119999,21.86
7121955,-0.203984,0.017080,0.991128,26.879999,-10.990000,37.939999,21.86
7121966,-0.185928,-0.005856,0.994056,31.570000,-12.810000,40.110001,21.88
7121977,-0.160552,-0.026840,1.020408,36.750000,-14.140000,41.790001,21.80
7121988,-0.170312,-0.025376,1.079456,41.509998,-16.520000,42.770000,21.80
7121999,-0.192760,0.007808,1.117520,45.919998,-20.020000,43.889999,21.87
7122010,-0.214720,0.055632,1.109712,44.380001,-24.639999,46.130001,21.87
7122021,-0.202520,0.144936,1.067256,39.340000,-29.889999,49.630001,21.84
7122032,-0.165432,0.166408,1.063352,26.950001,-33.320000,52.430000,21.80
7122043,-0.140544,0.168848,1.062864,13.440000,-35.209999,52.990002,21.80
7122054,-0.133712,0.177144,1.056520,-0.840000,-37.310001,54.740002,21.84
7122065,-0.126880,0.145424,1.037488,-6.510000,-39.619999,55.720001,21.84
7122077,-0.107360,0.122000,1.018944,-6.580000,-40.950001,55.720001,21.84
7122088,-0.088328,0.094672,1.002840,-2.380000,-41.860001,55.860001,21.85
7122099,-0.079056,0.126880,1.007720,1.050000,-43.540001,57.959999,21.85
7122110,-0.065880,0.144936,1.020896,1.820000,-43.680000,58.520000,21.85
7122121,-0.059048,0.177632,1.038952,4.760000,-44.730000,59.360001,21.85
7122132,0.003904,0.204472,1.026752,7.350000,-45.919998,60.619999,21.84
7122143,0.040016,0.275232,0.997472,0.350000,-46.200001,61.599998,21.83
7122154,0.066368,0.258152,0.996496,-5.390000,-46.970001,60.759998,21.83
7122165,0.096624,0.194712,1.016504,-7.140000,-46.130001,57.259998,21.84
7122176,0.087352,0.149816,1.018456,-3.500000,-44.730000,55.160000,21.84
7122187,0.090280,0.142496,0.991616,3.010000,-45.080002,54.320000,21.87
7122197,0.129808,0.159088,0.961848,9.660000,-44.939999,54.389999,21.87
7122208,0.221064,0.200080,0.922808,13.370000,-44.660000,54.389999,21.86
7122219,0.274256,0.198128,0.897920,12.600000,-41.299999,52.570000,21.83
7122230,0.303536,0.222528,0.932080,3.780000,-39.060001,51.450001,21.83
7122241,0.288896,0.241072,0.968192,-2.030000,-38.570000,49.070000,21.82
7122252,0.291336,0.223992,0.992592,-5.320000,-39.970001,48.299999,21.82
7122263,0.346480,0.203496,0.976976,-5.320000,-40.740002,46.970001,21.84
7122274,0.407968,0.188368,0.955016,-4.900000,-40.459999,45.639999,21.77
7122285,0.462624,0.145912,0.953064,-6.510000,-38.430000,43.889999,21.77
7122296,0.496784,0.089304,0.953552,-4.970000,-36.259998,39.549999,21.82
7122307,0.511424,0.057584,0.928176,0.070000,-36.680000,35.490002,21.82
7122318,0.559736,0.050752,0.925248,5.740000,-34.160000,32.900002,21.87
7122328,0.598288,0.046360,0.903288,11.270000,-32.689999,29.260000,21.87
7122339,0.636840,0.049288,0.900848,14.630000,-31.360001,26.530001,21.85
7122350,0.665632,0.051728,0.915976,15.330000,-29.120001,24.010000,21.86
7122361,0.672464,0.057584,0.967704,13.230000,-28.000000,21.209999,21.86
7122372,0.671000,0.090768,0.980880,8.610000,-29.330000,19.040001,21.84
7122383,0.713944,0.098576,0.964776,3.990000,-29.889999,17.010000,21.84
7122394,0.752008,0.069296,0.932080,0.140000,-28.490000,15.050000,21.84
7122404,0.782752,0.042944,0.910120,0.490000,-25.620001,13.090000,21.83
7122415,0.795928,0.028304,0.902800,1.260000,-21.910000,11.340000,21.83
7122426,0.795928,0.039528,0.890112,1.400000,-18.760000,10.150000,21.80
7122437,0.790072,0.045872,0.858392,-2.590000,-14.490000,9.030000,21.80
7122448,0.760304,0.021960,0.863272,-7.910000,-10.850000,8.540000,21.85
7122459,0.742736,0.011224,0.879376,-9.310000,-9.240000,6.440000,21.85
7122470,0.749080,-0.006832,0.892064,-7.560000,-6.650000,3.570000,21.87
7122481,0.743712,-0.042456,0.915976,-2.030000,-3.570000,-0.560000,21.82
7122492,0.711504,-0.024888,0.918904,2.660000,-1.190000,-3.850000,21.82
7122503,0.707600,-0.001952,0.914512,4.970000,1.470000,-6.790000,21.86
7122514,0.679296,0.008296,0.898408,5.250000,5.040000,-9.660000,21.86
7122525,0.663680,0.002928,0.891088,6.860000,9.450000,-14.070000,21.87
7122536,0.634400,0.014640,0.903776,8.470000,12.390000,-17.219999,21.84
7122547,0.586576,0.043432,0.907680,6.300000,14.630000,-19.389999,21.84
7122558,0.548512,0.075640,0.895968,-0.280000,17.219999,-21.770000,21.86
7122569,0.517280,0.070760,0.893528,-9.240000,19.389999,-24.639999,21.86
7122580,0.487512,0.039528,0.882792,-14.140000,22.750000,-28.070000,21.86
7122591,0.467504,0.015616,0.871568,-15.680000,26.600000,-31.570000,21.86
7122601,0.443104,-0.012688,0.846192,-12.880000,30.940001,-35.840000,21.83
7122612,0.398208,0.019520,0.820816,-10.640000,35.560001,-38.570000,21.83
7122623,0.348432,0.037576,0.842776,-15.400000,39.900002,-41.020000,21.83
7122634,0.309880,0.031232,0.877912,-7.210000,46.200001,-43.680000,21.84
7122645,0.268888,0.050752,0.942328,-18.410000,43.189999,-48.720001,21.84
7122656,0.243512,0.045872,0.947208,-21.840000,45.990002,-51.730000,21.86
7122667,0.216672,0.029768,0.919880,-23.799999,48.230000,-55.230000,21.80
7122678,0.195200,0.034648,0.887184,-27.020000,50.189999,-58.730000,21.80
7122689,0.169824,0.021472,0.892552,-31.500000,53.759998,-62.790001,21.83
7122700,0.146400,-0.009760,0.906216,-30.940001,55.860001,-68.110001,21.83
7122711,0.144936,0.004392,0.894016,-29.680000,58.310001,-72.449997,21.84
7122722,0.160552,-0.042944,0.891576,-21.350000,67.199997,-74.900002,21.86
7122734,0.171776,0.068808,0.887184,-39.130001,65.660004,-79.730003,21.86
7122745,0.075640,0.079056,0.903288,-49.209999,71.820000,-84.209999,21.84
7122756,-0.054656,0.004392,1.027728,-57.750000,73.570000,-91.139999,21.84
7122766,-0.209840,-0.013664,1.104344,-50.610001,70.349998,-94.709999,21.86
7122777,-0.294752,0.011224,1.144848,-41.650002,63.840000,-94.709999,21.86
7122788,-0.334768,-0.016104,1.141432,-30.660000,56.980000,-93.730003,21.84
7122799,-0.325496,-0.010736,1.103856,-20.020000,51.939999,-91.769997,21.83
7122810,-0.363072,-0.009272,1.074576,-13.860000,46.410000,-89.320000,21.83
7122821,-0.355264,0.034648,1.031632,-10.220000,40.599998,-82.879997,21.84
7122833,-0.349408,0.078568,1.029192,-9.240000,35.209999,-73.570000,21.84
7122844,-0.369904,0.084912,1.053592,-5.810000,26.180000,-60.830002,21.90
7122856,-0.342088,0.091256,1.054080,3.220000,18.690001,-45.779999,21.89
7122867,-0.281576,0.099064,1.052128,9.170000,10.150000,-33.040001,21.89
7122878,-0.231800,0.074664,1.048712,12.180000,4.550000,-18.549999,21.83
7122889,-0.209352,0.082960,1.052616,13.300000,0.980000,-6.090000,21.83
7122900,-0.219112,0.093696,1.057496,13.650000,-2.590000,5.460000,21.84
7122911,-0.229360,0.083448,1.063840,13.020000,-8.470000,14.420000,21.81
7122921,-0.229360,0.020496,1.048224,14.840000,-14.070000,24.219999,21.81
7122932,-0.214720,0.015616,1.016992,17.990000,-17.990000,32.270000,21.84
7122943,-0.181536,0.029280,1.008208,17.500000,-20.510000,36.540001,21.84
7122954,-0.162016,0.000000,1.009672,19.040001,-21.629999,39.200001,21.89
7122965,-0.148352,0.009760,1.012112,20.650000,-23.030001,41.790001,21.86
7122976,-0.153720,0.020008,1.028216,21.350000,-25.270000,43.750000,21.86
7122987,-0.155672,0.024888,1.033584,21.629999,-27.090000,45.639999,21.83
7122998,-0.166408,0.036600,1.039928,21.000000,-29.540001,48.090000,21.83
7123009,-0.180560,0.071248,1.002840,17.290001,-31.850000,52.220001,21.84
7123020,-0.154208,0.093696,0.982344,10.500000,-33.880001,55.930000,21.79
7123031,-0.117608,0.053680,0.976976,6.300000,-33.389999,58.169998,21.79
7123042,-0.096136,0.011224,0.995032,4.130000,-33.389999,58.520000,21.82
7123053,-0.071736,-0.006832,1.021384,7.630000,-32.900002,57.610001,21.82
7123064,-0.059536,-0.001952,1.041880,11.830000,-32.900002,56.209999,21.86
7123075,-0.061488,0.005856,1.019920,16.030001,-33.810001,54.529999,21.86
7123086,-0.015616,0.009272,0.973072,18.900000,-35.349998,55.230000,21.86
7123097,0.035136,0.038552,0.955992,15.050000,-33.669998,53.900002,21.87
7123108,0.016592,0.038064,0.981368,11.130000,-34.230000,52.919998,21.87
7123119,0.020008,0.037088,1.024312,11.830000,-35.770000,51.380001,21.83
7123130,0.030256,0.054168,1.044320,16.030001,-37.169998,50.680000,21.83
7123141,0.050264,0.072712,1.037488,20.160000,-38.500000,49.910000,21.86
7123151,0.069784,0.078568,1.004792,26.250000,-37.799999,48.090000,21.84
7123162,0.110288,0.083448,0.971608,31.709999,-37.799999,46.970001,21.84
7123173,0.162016,0.097600,0.964288,33.529999,-36.959999,45.150002,21.88
7123184,0.222040,0.135176,0.975024,28.559999,-35.980000,45.500000,21.88
7123195,0.240096,0.210328,0.977464,16.590000,-34.090000,44.240002,21.87
7123206,0.239120,0.205936,0.988688,8.260000,-33.180000,43.400002,21.87
7123217,0.225456,0.189344,0.995520,1.400000,-33.320000,43.680000,21.84
7123227,0.226432,0.168360,0.988688,0.140000,-31.850000,41.580002,21.79
7123238,0.266936,0.112728,0.969168,3.780000,-33.669998,41.020000,21.79
7123249,0.342576,0.077592,0.949160,10.220000,-31.430000,38.570000,21.80
7123260,0.406016,0.061488,0.930616,19.530001,-28.700001,34.509998,21.80
7123271,0.429928,0.092232,0.925736,22.469999,-26.530001,32.480000,21.88
7123282,0.422120,0.134200,0.945744,22.330000,-24.780001,30.799999,21.82
7123293,0.436272,0.181536,0.908168,17.010000,-27.160000,30.309999,21.82
7123304,0.441640,0.208864,0.952088,10.290000,-25.340000,29.820000,21.82
7123315,0.438712,0.223992,0.974536,1.330000,-26.389999,30.590000,21.82
7123326,0.464088,0.187392,0.991128,-2.030000,-26.950001,29.330000,21.85
7123337,0.622688,0.115168,1.004792,-1.260000,-26.389999,28.139999,21.85
7123348,0.546560,0.075640,1.025776,3.220000,-26.740000,25.969999,21.86
7123359,0.588528,0.061976,1.032608,9.100000,-26.250000,24.219999,21.78
7123369,0.623176,0.072224,1.016016,13.090000,-25.760000,22.400000,21.78
7123380,0.644648,0.098088,1.013576,15.190000,-25.340000,20.930000,21.82
7123391,0.644648,0.099064,1.008696,15.750000,-24.850000,19.950001,21.82
7123402,0.665632,0.094672,0.999912,13.930000,-24.780001,20.370001,21.85
7123413,0.691984,0.114680,0.997472,5.320000,-24.709999,21.209999,21.83
7123424,0.720288,0.117120,0.993568,-3.290000,-24.150000,19.950001,21.83
7123435,0.743712,0.082960,0.975512,-9.100000,-22.049999,18.410000,21.84
7123446,0.751520,0.045384,0.968192,-13.510000,-19.809999,16.660000,21.84
7123457,0.749568,0.021472,0.951600,-14.980000,-17.219999,15.120000,21.85
7123467,0.764696,0.004880,0.945256,-16.170000,-14.490000,13.300000,21.85
7123478,0.763720,-0.013176,0.932568,-16.730000,-11.830000,10.500000,21.84
7123489,0.758840,-0.029280,0.921344,-15.190000,-8.540000,7.350000,21.84
7123500,0.746640,-0.061976,0.917440,-10.920000,-5.110000,3.360000,21.84
7123512,0.721752,-0.050752,0.917928,-4.550000,-0.630000,-1.610000,21.91
7123523,0.688568,-0.047824,0.911096,-1.190000,1.890000,-4.900000,21.91
7123534,0.673928,-0.024400,0.875960,0.210000,5.950000,-8.330000,21.83
7123545,0.656848,-0.012200,0.855952,0.490000,10.360000,-13.160000,21.79
7123556,0.640256,-0.018544,0.850584,-0.910000,14.490000,-17.709999,21.79
7123567,0.585600,-0.032696,0.853512,0.000000,18.830000,-21.070000,21.87
7123578,0.549488,-0.015616,0.868640,-1.190000,22.610001,-24.709999,21.87
7123589,0.488976,0.007320,0.872056,-4.690000,25.690001,-29.400000,21.84
7123600,0.459696,0.008296,0.844240,-10.500000,28.209999,-34.299999,21.84
7123611,0.442128,-0.011224,0.813008,-16.799999,32.200001,-38.009998,21.84
7123622,0.396256,-0.060512,0.809592,-20.090000,35.980000,-42.980000,21.83
7123633,0.355752,-0.067344,0.809104,-18.969999,39.340000,-48.720001,21.83
7123644,0.302072,-0.050264,0.840824,-20.790001,42.000000,-53.200001,21.81
7123655,0.257176,-0.055144,0.876448,-18.900000,44.590000,-57.959999,21.82
7123666,0.197640,-0.062464,0.914024,-12.320000,45.500000,-63.980000,21.82
7123677,0.169824,-0.030744,0.915976,-5.250000,46.060001,-68.250000,21.86
7123688,0.147864,-0.008784,0.883280,-2.450000,47.040001,-71.400002,21.86
7123699,0.120536,0.059048,0.841800,-6.580000,50.189999,-73.919998,21.85
7123710,0.085888,0.069784,0.883768,-22.540001,51.590000,-74.830002,21.85
7123721,0.030256,0.026352,0.987712,-33.110001,54.110001,-77.699997,21.82
7123732,-0.007320,0.038064,0.976488,-40.459999,49.279999,-80.570000,21.84
7123743,-0.006832,0.008784,0.966240,-43.259998,48.020000,-82.809998,21.84
7123754,-0.002440,-0.021472,0.922320,-40.880001,49.770000,-86.870003,21.80
7123765,-0.016592,-0.035624,0.938912,-42.070000,50.049999,-89.809998,21.80
7123776,-0.095648,-0.130784,1.011624,-38.220001,50.750000,-95.410004,21.86
7123788,-0.180072,-0.167384,1.054080,-26.389999,46.549999,-102.269997,21.86
7123799,-0.244976,-0.125904,1.063352,-17.570000,40.529999,-106.540001,21.86
7123810,-0.257176,-0.063928,1.031632,-16.379999,34.090000,-106.120003,21.82
7123821,-0.257176,-0.042944,0.998448,-18.059999,31.010000,-106.260002,21.82
7123832,-0.264008,0.035136,0.989664,-18.410000,30.100000,-105.489998,21.82
7123843,-0.288896,0.017568,0.996984,-19.250000,27.650000,-103.389999,21.77
7123854,-0.308904,-0.002440,0.997960,-12.600000,26.600000,-98.839996,21.77
7123866,-0.333304,-0.021472,0.980392,7.910000,25.549999,-91.000000,21.84
7123877,-0.297192,0.047336,0.937936,32.270000,22.959999,-80.919998,21.84
7123888,-0.244488,0.169824,0.934520,42.490002,20.510000,-64.820000,21.82
7123899,-0.222528,0.245464,1.012112,36.959999,17.920000,-47.599998,21.80
7123910,-0.192760,0.285480,1.099464,16.170000,12.740000,-31.430000,21.80
7123921,-0.172264,0.197640,1.157536,6.230000,7.980000,-15.330000,21.85
7123932,-0.173240,0.170800,1.140456,0.280000,-0.140000,1.890000,21.85
7123943,-0.157624,0.151768,1.114592,-6.370000,-4.900000,16.240000,21.82
7123954,-0.171776,0.133224,1.077016,-9.590000,-11.760000,26.600000,21.82
7123965,-0.154696,0.071248,1.068720,-9.170000,-15.260000,35.139999,21.82
7123976,-0.160552,0.016104,1.088240,-2.940000,-19.389999,39.340000,21.83
7123987,-0.169824,0.011712,1.102880,6.510000,-23.450001,43.470001,21.83
7123998,-0.159576,0.037088,1.091168,14.140000,-27.230000,47.320000,21.82
7124009,-0.140056,0.078080,1.061888,14.630000,-29.680000,51.799999,21.82
7124020,-0.139568,0.112240,1.033584,9.240000,-31.500000,56.070000,21.80
7124031,-0.146400,0.111752,1.041880,5.600000,-33.180000,59.360001,21.84
7124042,-0.152744,0.091256,1.054568,5.880000,-35.070000,61.389999,21.84
7124053,-0.146888,0.051240,1.038464,8.330000,-36.330002,63.770000,21.84
7124064,-0.138104,0.035136,1.000888,14.770000,-36.889999,65.169998,21.84
7124075,-0.121024,0.054168,0.971608,21.629999,-36.540001,65.379997,21.83
7124086,-0.075152,0.079544,0.935984,22.750000,-35.419998,67.690002,21.86
7124097,-0.020496,0.120536,0.915000,14.000000,-32.830002,70.559998,21.86
7124107,0.037088,0.109312,0.942816,3.220000,-30.520000,70.769997,21.81
7124118,0.056120,0.104920,0.984784,-5.110000,-29.120001,69.300003,21.81
7124129,0.055632,0.061976,1.018944,-12.040000,-27.650000,66.709999,21.84
7124140,0.055144,0.005856,1.021872,-7.980000,-28.280001,64.820000,21.82
7124151,0.081984,-0.009272,1.024312,0.700000,-29.959999,61.180000,21.82
7124162,0.104432,-0.037088,1.001864,10.570000,-30.030001,56.419998,21.82
7124173,0.162992,-0.040504,0.970632,24.360001,-29.049999,52.360001,21.82
7124184,0.179584,-0.018544,0.967704,32.060001,-26.110001,48.580002,21.84
7124195,0.173240,0.078568,0.964776,32.759998,-25.059999,45.709999,21.84
7124206,0.203984,0.113216,0.954528,26.180000,-24.219999,44.450001,21.81
7124217,0.202032,0.112240,0.959896,19.459999,-23.940001,42.910000,21.84
7124228,0.220088,0.143472,0.954528,15.190000,-25.480000,41.930000,21.84
7124239,0.257176,0.141032,1.021872,8.120000,-24.990000,40.180000,21.85
7124250,0.343552,0.101504,0.957944,11.620000,-21.910000,37.799999,21.85
7124260,0.385520,0.072224,0.940376,12.950000,-21.280001,34.650002,21.84
7124271,0.389424,0.071736,0.942816,16.379999,-15.890000,30.450001,21.83
7124282,0.380640,0.102480,0.960872,16.450001,-15.260000,28.350000,21.83
7124293,0.351360,0.142984,0.982832,13.580000,-15.400000,27.719999,21.81
7124304,0.348920,0.165432,1.007232,10.780000,-15.820000,27.790001,21.81
7124315,0.375272,0.194712,1.001864,7.910000,-16.870001,29.680000,21.86
7124326,0.426024,0.216184,1.003816,5.390000,-17.150000,30.170000,21.86
7124337,0.461160,0.154208,1.013576,1.680000,-16.870001,28.980000,21.80
7124347,0.476288,0.096136,1.046272,0.210000,-18.059999,27.299999,21.77
7124358,0.479704,0.071248,1.053592,10.150000,-16.940001,24.780001,21.77
7124369,0.489464,0.073200,1.036024,15.330000,-17.570000,23.520000,21.79
7124380,0.524600,0.078080,1.015528,18.340000,-17.920000,22.469999,21.79
7124391,0.556808,0.095648,1.008208,18.969999,-18.200001,21.350000,21.84
7124402,0.567056,0.125416,1.023336,16.100000,-18.200001,20.370001,21.82
7124413,0.565104,0.148840,1.040416,9.800000,-19.600000,19.459999,21.82
7124424,0.563640,0.139568,1.049688,3.500000,-21.209999,18.129999,21.80
7124435,0.569008,0.126880,1.033584,-4.200000,-21.910000,17.150000,21.80
7124446,0.595360,0.099552,1.011136,-9.590000,-21.629999,16.379999,21.82
7124457,0.607072,0.084424,0.984784,-13.020000,-20.370001,15.190000,21.82
7124468,0.607560,0.063928,0.958432,-15.470000,-18.690001,13.930000,21.83
7124479,0.609024,0.043432,0.948672,-16.379999,-16.030001,13.230000,21.79
7124490,0.606584,0.028792,0.953064,-16.309999,-13.650000,11.690000,21.79
7124501,0.611464,0.002928,0.969168,-13.720000,-11.130000,9.310000,21.82
7124512,0.606096,-0.028792,0.971608,-7.840000,-9.310000,6.580000,21.82
7124523,0.606096,-0.034160,0.964776,-0.560000,-6.650000,4.410000,21.85
7124534,0.597312,0.002440,0.955504,3.500000,-3.570000,2.030000,21.80
7124545,0.586576,0.024400,0.951112,3.360000,-0.980000,-0.070000,21.80
7124555,0.571448,0.009272,0.946720,5.250000,2.870000,-3.080000,21.83
7124566,0.562664,-0.026840,0.941840,9.100000,5.880000,-6.090000,21.83
7124577,0.550952,-0.035624,0.941352,11.830000,8.610000,-9.170000,21.80
7124588,0.526552,-0.023424,0.920856,11.690000,10.850000,-11.760000,21.79
7124599,0.506544,-0.006832,0.912560,10.990000,12.950000,-15.680000,21.79
7124610,0.496296,0.001952,0.912072,10.710000,15.750000,-20.090000,21.82
7124621,0.485560,-0.003416,0.907680,11.620000,18.129999,-24.010000,21.82
7124632,0.462624,-0.010248,0.918416,12.180000,20.440001,-27.860001,21.84
7124643,0.429440,-0.005368,0.937936,13.580000,22.820000,-33.110001,21.84
7124654,0.400160,0.023424,0.944280,11.900000,23.520000,-37.240002,21.88
7124665,0.366488,0.036112,0.945256,7.700000,25.690001,-40.880001,21.85
7124676,0.331352,0.050752,0.931104,4.060000,27.160000,-44.310001,21.85
7124687,0.309880,0.036600,0.927688,1.610000,28.980000,-48.369999,21.82
7124698,0.260592,0.026352,0.914512,4.550000,31.920000,-52.009998,21.82
7124709,0.216672,0.056608,0.908656,6.300000,33.040001,-55.230000,21.85
7124720,0.176168,0.042944,0.940864,5.180000,34.230000,-59.080002,21.86
7124730,0.128344,0.059048,0.947696,4.060000,33.810001,-61.320000,21.86
7124741,0.113216,0.065880,0.948184,3.500000,34.160000,-64.330002,21.86
7124752,0.081496,0.073200,0.933056,3.430000,35.349998,-66.919998,21.86
7124763,0.067832,0.123952,0.903776,-3.710000,35.630001,-66.919998,21.81
7124774,0.035136,0.159576,0.886208,-16.660000,37.520000,-67.269997,21.81
7124785,0.006344,0.141520,0.895480,-26.950001,39.200001,-67.199997,21.87
7124796,-0.007808,0.084424,0.923784,-36.119999,39.900002,-67.620003,21.82
7124807,-0.034160,0.061488,0.937448,-39.689999,40.180000,-68.180000,21.82
7124818,-0.017568,0.032208,0.918416,-28.840000,44.029999,-67.830002,21.81
7124829,-0.055144,0.025376,0.977952,-42.070000,39.410000,-71.750000,21.81
7124841,-0.079056,-0.020496,0.990152,-37.520000,40.599998,-74.690002,21.82
7124852,-0.128344,-0.033672,0.986248,-30.450001,40.320000,-77.559998,21.86
7124864,-0.167384,-0.025376,0.974048,-24.290001,39.340000,-78.330002,21.86
7124875,-0.189344,0.018056,0.960872,-22.330000,39.060001,-77.419998,21.81
7124886,-0.210328,0.040504,0.973560,-23.100000,36.889999,-73.709999,21.81
7124897,-0.222528,0.008296,1.037488,-18.830000,34.020000,-70.699997,21.83
7124908,-0.258152,-0.019032,1.086288,-4.200000,30.660000,-67.269997,21.80
7124920,-0.284016,0.022448,1.069208,13.300000,24.219999,-61.529999,21.80
7124930,-0.275720,0.101504,1.037488,25.410000,18.200001,-52.500000,21.84
7124941,-0.245464,0.128832,1.003328,28.209999,13.580000,-40.810001,21.84
7124952,-0.213256,0.162016,1.014552,24.709999,10.710000,-28.840000,21.80
7124963,-0.203984,0.200568,1.032120,12.740000,7.000000,-18.690001,21.83
7124974,-0.194712,0.155672,1.050176,4.340000,3.500000,-5.810000,21.83
7124985,-0.193736,0.106872,1.060424,0.070000,-0.210000,5.530000,21.84
7124996,-0.184952,0.081496,1.061400,2.730000,-5.110000,13.440000,21.84
7125007,-0.163968,0.108336,1.050176,2.660000,-9.800000,22.540001,21.84
7125018,-0.157136,0.062464,1.054568,2.310000,-12.110000,28.350000,21.84
7125029,-0.156648,0.043432,1.051640,7.630000,-14.980000,32.410000,21.84
7125040,-0.169824,0.053680,1.056520,10.010000,-18.340000,36.959999,21.84
7125051,-0.178120,0.064416,1.053104,11.060000,-21.840000,40.669998,21.84
7125062,-0.168848,0.077592,1.019432,11.340000,-23.660000,44.099998,21.84
7125073,-0.119560,0.079544,0.991616,9.590000,-24.430000,46.689999,21.83
7125084,-0.095160,0.089792,0.976976,6.930000,-22.469999,48.230000,21.83
7125095,-0.088816,0.110288,1.018456,4.200000,-21.770000,50.189999,21.82
7125106,-0.133224,0.104432,1.066280,3.080000,-23.379999,51.450001,21.82
7125117,-0.145424,0.109312,1.068720,3.220000,-25.969999,53.830002,21.80
7125128,-0.135176,0.091256,1.065304,2.100000,-29.190001,57.400002,21.80
7125139,-0.129808,0.067344,1.047736,6.650000,-30.660000,57.540001,21.84
7125150,-0.081008,0.047336,1.011136,14.070000,-32.130001,58.380001,21.85
