timestamp_ms,ax,ay,az,gx,gy,gz,tempC
797686,0.56364,-0.024888,1.011624,-21.77,-17.780001,-2.38,21.66
797699,0.667096,-0.271816,1.001376,-33.740002,-16.1,0.42,21.64
797710,0.672952,-0.225944,0.989664,-31.85,-15.47,-2.94,21.64
797722,0.642208,-0.18056,0.987712,-32.900002,-17.219999,-0.7,21.59
797734,0.664656,-0.22204,0.963312,-31.5,-17.15,-2.24,21.59
797746,0.646112,-0.203984,0.947696,-28.98,-18.620001,-2.03,21.61
797758,0.655384,-0.188368,0.91744,-26.18,-18.34,-1.82,21.62
797770,0.637328,-0.200568,0.882304,-24.08,-17.5,-0.42,21.62
797782,0.63196,-0.17568,0.87596,-24.5,-17.15,1.26,21.61
797794,0.639768,-0.148352,0.872544,-26.040001,-14.07,1.05,21.62
797806,0.630984,-0.116632,0.850584,-26.879999,-12.32,1.75,21.62
797817,0.649528,-0.076616,0.824232,-29.540001,-10.29,3.85,21.66
797830,0.627568,-0.035136,0.817888,-35.139999,-8.33,6.86,21.66
797841,0.637328,-0.02928,0.77592,-39.200001,-2.87,9.03,21.66
797853,0.616344,-0.06588,0.7808,-43.330002,-0.91,11.83,21.64
797864,0.610976,-0.040504,0.807152,-42.560001,0.63,12.67,21.64
797876,0.596824,-0.031232,0.822768,-39.48,1.82,14.56,21.61
797888,0.57584,0.0122,0.815448,-37.240002,1.19,17.15,21.64
797899,0.609512,0.045384,0.799344,-39.970001,3.43,22.049999,21.64
797911,0.601216,0.023424,0.794464,-46.200001,6.58,26.879999,21.64
797922,0.588528,-0.0244,0.82228,-53.830002,12.04,29.75,21.6
797934,0.560224,-0.096624,0.828624,-58.869999,16.17,31.219999,21.6
797945,0.529968,-0.142008,0.85156,-56.139999,16.450001,32.130001,21.61
797957,0.530456,-0.17568,0.81252,-44.66,17.15,31.5,21.61
797968,0.526552,-0.164944,0.792024,-29.889999,18.690001,32.060001,21.62
797980,0.53192,-0.162016,0.704184,-11.83,23.24,31.85,21.6
797992,0.49532,-0.110288,0.651968,13.3,28.629999,29.26,21.6
798004,0.450912,-0.042944,0.623176,31.709999,30.799999,27.58,21.65
798016,0.425536,0.040992,0.671,30.17,30.940001,30.940001,21.6
798027,0.454816,0.069784,0.723704,8.05,33.32,36.400002,21.6
798039,0.501176,-0.04636,0.791536,-14.91,42.139999,39.48,21.64
798050,0.417728,-0.128344,0.89304,-23.66,44.799999,40.040001,21.64
798062,0.386496,-0.206424,0.946232,-27.860001,41.93,43.540001,21.62
798074,0.389912,-0.256688,0.908168,-20.790001,42.279999,45.290001,21.66
798085,0.379664,-0.338672,0.842776,2.87,44.029999,43.119999,21.66
798097,0.343064,-0.31476,0.76128,39.060001,41.369999,36.959999,21.61
798108,0.347456,-0.281576,0.687104,70.0,35.560001,30.59,21.59
798120,0.358192,-0.288408,0.657336,85.260002,31.709999,22.68,21.59
798132,0.366488,-0.254248,0.677832,79.239998,29.540001,18.690001,21.63
798143,0.309392,-0.004392,0.822768,57.470001,19.459999,21.280001,21.63
798155,0.325496,-0.043432,0.964288,32.830002,6.86,22.26,21.66
798166,0.394792,-0.10736,0.99308,18.27,3.08,18.83,21.64
798177,0.397232,-0.171288,0.980392,10.92,-5.25,10.78,21.64
798189,0.296704,-0.138592,0.981368,7.91,-31.219999,-2.1,21.66
798201,0.69296,-0.184952,0.920856,-3.85,34.16,17.290001,21.61
798212,0.533384,-0.227896,0.876936,-10.5,44.73,3.01,21.61
798224,0.36112,-0.264008,0.827648,-5.32,32.830002,2.8,21.63
798235,0.4636,-0.269376,0.785192,5.53,24.92,-0.7,21.63
798247,0.518256,-0.223992,0.774944,5.25,28.559999,-5.6,21.64
798259,0.498736,-0.235704,0.809104,4.83,27.09,-6.72,21.62
798270,0.525576,-0.22692,0.84668,5.74,23.940001,-6.65,21.62
798282,0.550464,-0.221064,0.857904,3.08,21.139999,-5.25,21.64
798294,0.584624,-0.249368,0.856928,-1.75,18.41,-2.38,21.59
798306,0.623664,-0.262544,0.856928,-7.0,16.309999,1.12,21.59
798317,0.660264,-0.262544,0.864248,-12.67,15.96,4.9,21.63
798329,0.696864,-0.304024,0.854488,-16.66,17.219999,7.49,21.63
798340,0.725168,-0.369904,0.812032,-17.01,18.48,8.75,21.65
798352,0.742248,-0.427976,0.775432,-18.549999,18.83,11.69,21.62
798363,0.755912,-0.469456,0.783728,-17.92,17.08,14.98,21.62
798375,0.783728,-0.503128,0.811544,-16.66,16.940001,17.709999,21.63
798387,0.796416,-0.552904,0.83204,-16.1,16.59,21.559999,21.63
798398,0.81496,-0.551928,0.857416,-16.309999,15.05,25.620001,21.6
798410,0.845216,-0.557296,0.860344,-20.65,14.84,29.26,21.62
798421,0.862296,-0.596824,0.8662,-26.459999,14.77,32.130001,21.62
798433,0.870104,-0.642208,0.843752,-31.360001,16.59,34.23,21.62
798445,0.871568,-0.714432,0.848632,-37.240002,16.870001,36.470001,21.65
798456,0.877912,-0.805688,0.82228,-34.23,16.73,35.560001,21.65
798468,0.894504,-0.838872,0.7564,-24.290001,16.309999,33.459999,21.68
798480,0.921832,-0.850096,0.709552,-18.059999,35.560001,31.5,21.68
798491,0.93452,-0.848632,0.67588,-12.11,18.969999,28.98,21.66
798503,0.952576,-0.84912,0.65636,-6.79,21.0,25.48,21.61
798514,0.974536,-0.82716,0.621224,-1.89,23.1,20.58,21.61
798526,0.991128,-0.865224,0.584136,2.38,27.719999,13.65,21.64
798538,1.004792,-0.843264,0.561688,3.57,34.720001,4.27,21.64
798549,0.971608,-0.747128,0.5368,-1.47,42.77,-3.92,21.64
798561,0.938912,-0.6466,0.494344,-13.44,51.59,-14.35,21.62
798573,0.896456,-0.610976,0.52216,-34.720001,59.360001,-20.93,21.62
798585,0.87352,-0.569008,0.541192,-52.919998,87.290001,-31.92,21.65
798596,0.789584,-0.566568,0.535336,-67.480003,81.410004,-46.27,21.68
798608,0.696864,-0.657824,0.49532,-75.529999,95.970001,-61.18,21.68
798620,0.555832,-0.68808,0.481168,-78.610001,107.730003,-77.489998,21.65
798631,0.422608,-0.75396,0.510936,-71.190002,119.699997,-98.489998,21.62
798643,0.322568,-0.817888,0.489464,-45.150002,129.289993,-124.32,21.62
798655,0.114192,-0.760304,0.442616,-21.49,145.179993,-151.339996,21.64
798667,-0.080032,-0.692472,0.507032,-19.74,157.919998,-173.600006,21.64
798679,-0.320128,-0.553392,0.621224,-23.73,169.539993,-196.279999,21.68
798691,-0.613904,-0.474336,0.769088,-26.25,183.610001,-222.880005,21.67
798702,-0.98332,-0.42212,0.842776,-42.07,196.419998,-245.0,21.67
798714,-1.428864,-0.230336,1.027728,-71.470001,196.490005,-260.26001,21.64
798726,-1.78608,-0.125904,1.203896,-98.07,195.300003,-271.73999,21.6
798738,-1.985672,-0.065392,1.279536,-104.510002,178.5,-279.440002,21.6
798750,-1.957856,0.03416,1.375672,-109.129997,129.990005,-267.890015,21.64
798762,-1.70312,0.11956,1.616744,-59.5,94.220001,-244.789993,21.6
798774,-1.156072,0.3904,2.13256,44.240002,16.1,-203.350006,21.6
798785,-0.601216,0.84668,1.992504,149.029999,-64.190002,-121.029999,21.63
798797,0.106872,0.907192,0.78568,215.039993,-93.169998,-18.48,21.63
798808,0.332816,0.333304,0.247416,252.699997,-82.529999,50.82,21.63
798820,0.058072,0.484584,0.974536,222.320007,-66.989998,86.449997,21.62
798832,-0.1464,0.408944,1.477176,80.010002,-36.119999,95.059998,21.62
798843,-0.232776,-0.511912,0.776408,-62.369999,0.77,74.970001,21.69
798855,-0.19276,-1.284416,0.303048,-94.919998,29.26,23.309999,21.7
798866,-0.245952,-1.347368,0.509472,-56.209999,32.830002,-2.24,21.7
798878,-0.185928,-0.742736,0.872544,-45.919998,27.370001,-9.17,21.66
798890,-0.067832,-0.400648,1.067256,-45.57,17.43,-4.34,21.66
798902,0.009272,-0.364536,1.066768,-28.209999,7.63,3.92,21.64
798914,-0.024888,-0.496296,1.067744,5.67,-4.9,11.34,21.66
798925,-0.05856,-0.471896,1.095072,35.560001,-14.77,13.09,21.66
798937,-0.04636,-0.529968,1.054568,47.32,-19.040001,11.69,21.64
798949,0.023424,-0.490928,0.95648,43.75,-18.76,9.17,21.6
798962,0.062952,-0.433832,0.921832,22.82,-12.95,5.46,21.6
798973,0.096136,-0.38308,0.880352,3.71,-6.58,1.96,21.61
798985,0.114192,-0.382592,0.88328,-17.43,2.87,-1.61,21.65
798998,0.08784,-0.421632,0.938424,-23.450001,5.74,-3.15,21.65
799010,0.072712,-0.374784,1.009184,-21.98,2.87,-1.4,21.64
799022,0.045872,-0.448472,1.035536,-12.18,-0.77,-3.57,21.64
799034,0.101504,-0.447008,0.960872,4.34,4.69,-3.64,21.62
799046,0.02928,-0.493856,0.94916,28.35,-5.32,-6.02,21.63
799058,0.105408,-0.321592,0.974048,28.629999,-6.3,-10.57,21.63
799069,0.109312,-0.24156,0.996008,17.43,-3.85,-9.59,21.62
799081,0.125904,-0.121024,0.998936,-0.91,-1.75,-5.81,21.64
799093,0.129808,-0.215208,0.948672,-13.16,3.08,-2.52,21.64
799106,0.109312,-0.25132,0.938424,-11.97,3.01,0.07,21.64
799117,0.105408,-0.308904,0.95404,-7.84,3.36,0.56,21.57
799129,0.099064,-0.346968,0.984784,-4.9,2.59,0.63,21.57
799141,0.089304,-0.302072,1.021872,-0.91,-0.49,0.98,21.65
799153,0.110288,-0.294264,0.998448,3.64,-1.89,2.1,21.61
799165,0.103944,-0.276696,1.005768,5.6,-3.22,2.31,21.61
799177,0.099552,-0.282064,1.037976,4.2,-3.43,1.89,21.6
799188,0.101504,-0.30256,1.05896,1.96,-3.92,2.1,21.6
799201,0.09028,-0.27816,1.037488,-0.42,-5.74,2.38,21.65
799212,0.078568,-0.311832,1.01748,0.21,-7.84,2.38,21.62
799224,0.074176,-0.345992,0.98332,8.19,-8.82,1.68,21.62
799235,0.07808,-0.38552,0.922808,18.34,-8.47,-1.26,21.64
799247,0.099064,-0.354288,0.94672,22.26,-7.07,-4.62,21.67
799259,0.086864,-0.257664,1.008696,16.24,-7.28,-5.18,21.67
799271,0.0976,-0.213256,1.01748,5.25,-7.28,-2.8,21.62
799282,0.13176,-0.170312,1.037488,-4.34,-7.35,0.49,21.62
799294,0.135664,-0.220576,1.010648,-5.67,-5.88,3.99,21.62
799307,0.11712,-0.239608,0.955504,-6.58,-5.11,5.88,21.6
799319,0.107848,-0.316224,0.936472,-4.34,-4.27,3.29,21.6
799331,0.099552,-0.35136,0.9272,-1.4,-3.99,0.84,21.64
799343,0.093696,-0.33184,0.909144,0.14,-4.06,-0.7,21.65
799355,0.094184,-0.313784,0.935008,-1.12,-4.55,-0.07,21.65
799367,0.097112,-0.305,0.9882,0.49,-5.95,0.0,21.61
799378,0.084424,-0.358192,1.003328,9.73,-7.84,-0.28,21.62
799390,0.075152,-0.360632,0.962336,15.26,-9.24,0.7,21.62
799402,0.07564,-0.31232,0.96624,15.05,-9.31,3.71,21.61
799414,0.04392,-0.31964,0.967216,18.200001,-9.1,5.88,21.61
799425,0.010248,-0.2684,0.97356,20.719999,-10.71,8.4,21.65
799437,-0.00976,-0.243024,0.976488,18.41,-11.69,13.86,21.62
799449,-0.026352,-0.208864,0.992592,16.59,-15.33,21.559999,21.62
799461,-0.020008,-0.154696,1.026264,8.68,-19.25,32.619999,21.62
799473,0.028304,-0.145912,1.014064,-1.68,-14.63,41.299999,21.62
799485,-0.127368,-0.156648,0.996984,-3.08,-20.09,55.369999,21.62
799499,-0.155672,-0.210328,0.96868,0.35,-22.469999,63.98,21.64
799512,-0.236192,-0.252296,0.964288,14.63,-26.6,72.730003,21.59
799523,-0.252296,-0.264008,0.984784,34.16,-32.689999,79.870003,21.59
799535,-0.275232,-0.197152,1.04188,47.810001,-35.84,85.540001,21.61
799547,-0.292312,-0.2196,0.89792,52.43,-33.459999,90.440002,21.62
799559,-0.320128,-0.18544,0.82228,40.950001,-26.389999,98.489998,21.62
799571,-0.362096,-0.116144,0.82472,35.0,-33.25,106.050003,21.65
799582,-0.31476,-0.157136,0.88328,34.439999,-32.34,106.120003,21.64
799594,-0.3172,-0.188368,0.9394,36.049999,-28.559999,105.489998,21.64
799606,-0.353312,-0.006344,0.996008,27.23,-31.360001,107.589996,21.64
799618,-0.384056,-0.097112,1.04432,11.48,-32.970001,106.68,21.64
799629,-0.40016,-0.168848,1.052616,4.27,-30.309999,104.160004,21.63
799641,-0.376736,-0.249856,0.993568,-3.29,-32.200001,100.099998,21.64
799653,-0.300608,-0.279136,0.937936,2.59,-31.57,95.620003,21.64
799664,-0.217648,-0.164456,0.968192,6.72,-29.959999,91.0,21.66
799676,-0.199104,-0.163968,0.996496,4.9,-31.219999,86.660004,21.65
799689,-0.149328,-0.118584,1.016016,4.83,-28.280001,83.93,21.65
799700,-0.108824,-0.0854,1.018456,-0.07,-24.01,75.529999,21.64
799712,0.028792,-0.170312,0.979904,-2.03,-12.04,65.029999,21.64
799725,0.045872,-0.346968,0.921344,9.31,-18.41,56.349998,21.64
799737,0.257176,-0.273768,0.902312,15.19,-14.42,66.290001,21.6
799748,0.4026,-0.304512,0.889136,10.01,-4.2,66.080002,21.6
799760,0.40504,-0.385032,0.863272,3.36,-6.09,68.040001,21.59
799772,0.427488,-0.45384,0.809104,3.64,-12.39,62.509998,21.66
799784,0.460672,-0.397232,0.730048,-1.47,-14.21,52.150002,21.66
799795,0.421144,-0.177632,0.813496,-41.93,-21.42,52.57,21.61
799807,0.365024,-0.259616,1.265872,-110.32,-38.009998,42.490002,21.58
799819,0.443592,-0.606096,1.621624,-134.610001,-44.099998,40.740002,21.58
799831,0.391376,-0.991128,1.31516,-73.290001,-43.330002,34.369999,21.63
799842,0.59292,-1.074088,1.192184,15.47,-55.439999,22.75,21.63
799854,0.604144,-0.798856,1.348832,81.550003,-57.610001,11.13,21.59
799865,0.59292,-0.487024,1.328336,118.93,-58.939999,4.34,21.62
799877,0.728584,-0.813984,0.895968,165.830002,-61.950001,-17.219999,21.62
799888,1.142408,-0.13664,0.355264,102.480003,-48.790001,-2.1,21.64
799900,0.832528,0.267912,0.301584,-26.18,-25.41,-20.23,21.61
799912,0.189344,-0.474336,0.103456,-107.519997,3.22,-7.0,21.61
799927,0.359656,-1.236592,0.196176,-25.34,11.06,8.54,21.63
799938,0.488976,-0.921832,0.61976,52.709999,12.32,6.44,21.59
799950,0.539728,-0.46848,1.061888,74.059998,8.33,-2.45,21.59
799961,0.546072,-0.223504,1.291736,45.57,-0.14,-6.65,21.57
799972,0.491904,-0.257664,1.398608,-12.53,-6.58,-8.68,21.57
799984,0.46848,-0.392352,1.27124,-55.02,-2.8,-13.37,21.6
799996,0.384056,-0.567544,1.034072,-63.84,4.34,-19.25,21.6
800007,0.300608,-0.654896,0.84424,-35.84,5.11,-19.809999,21.6
800019,0.248392,-0.593896,0.754936,2.87,2.38,-21.280001,21.64
800030,0.242048,-0.507032,0.753472,36.540001,-0.21,-19.879999,21.63
800042,0.257176,-0.310856,0.875472,45.43,-1.54,-13.58,21.63
800054,0.295728,-0.109312,0.942328,28.139999,1.61,-10.5,21.64
800065,0.300608,-0.035136,0.976,-2.66,7.21,-10.01,21.64
800076,0.268888,-0.138592,0.977464,-26.6,11.06,-10.36,21.59
800088,0.235704,-0.242536,0.950624,-30.66,11.83,-7.98,21.62
800099,0.205936,-0.291824,0.930128,-23.17,10.5,-7.42,21.62
800111,0.189832,-0.34892,0.93696,-10.71,8.96,-6.44,21.58
800123,0.204472,-0.343064,0.9638,9.17,7.98,-5.6,21.58
800134,0.21228,-0.322568,0.976488,19.67,7.07,-4.48,21.59
800145,0.221552,-0.267424,0.987712,27.65,6.09,-2.59,21.59
800157,0.225456,-0.191296,0.995032,22.26,5.39,-1.89,21.59
800168,0.218624,-0.180072,0.996008,11.48,4.83,-0.77,21.65
800179,0.210328,-0.159088,1.001864,-0.14,4.48,0.35,21.61
800191,0.195688,-0.216672,0.99552,-6.72,3.36,-0.21,21.61
800203,0.18788,-0.264496,1.0004,-4.83,2.59,1.33,21.63
800214,0.185928,-0.24888,1.027728,-1.19,0.35,2.24,21.63
800226,0.189344,-0.2806,1.018944,4.83,-0.91,2.1,21.61
800237,0.185928,-0.283528,1.010648,10.99,-1.96,2.94,21.6
800250,0.189344,-0.270352,1.011136,13.65,-3.01,2.8,21.6
800261,0.190808,-0.249856,1.016992,11.62,-4.06,2.87,21.61
800272,0.188368,-0.238632,1.025288,6.58,-5.25,2.52,21.63
800284,0.191784,-0.259128,1.006256,3.43,-5.18,1.89,21.63
800295,0.18056,-0.245464,0.981368,-0.35,-4.62,2.17,21.64
800307,0.174216,-0.237168,0.975024,-5.18,-4.97,1.89,21.64
800319,0.178608,-0.29524,0.96624,-4.83,-4.9,2.03,21.66
800330,0.18056,-0.28792,0.961848,-1.96,-5.18,2.1,21.61
800342,0.187392,-0.301584,0.953064,2.45,-4.97,1.75,21.61
800354,0.185928,-0.276696,0.962336,4.2,-4.34,1.54,21.64
800365,0.18056,-0.26596,0.965752,3.64,-3.64,1.19,21.64
800377,0.172264,-0.2806,0.953552,3.15,-3.15,0.49,21.64
800388,0.168848,-0.267912,0.945256,3.29,-2.66,0.63,21.61
800399,0.17812,-0.254248,0.942328,1.05,-2.38,0.14,21.61
800411,0.177632,-0.269864,0.948184,-1.68,-2.31,-0.14,21.63
800422,0.179584,-0.287432,0.945256,-1.33,-1.75,0.0,21.63
800434,0.173728,-0.257664,0.95648,-1.68,-1.68,0.14,21.63
800445,0.175192,-0.270352,0.964776,-2.03,-1.47,0.35,21.65
800457,0.171776,-0.29036,0.960872,0.07,-1.47,0.07,21.65
800468,0.169336,-0.279624,0.953552,2.03,-1.33,0.14,21.59
800480,0.177144,-0.273768,0.953552,3.08,-0.98,-0.07,21.62
800491,0.17568,-0.27084,0.953064,4.06,-0.84,0.07,21.62
800502,0.180072,-0.257664,0.952576,5.11,-0.14,0.28,21.64
800514,0.181536,-0.24156,0.951112,4.06,0.56,0.49,21.64
800525,0.181048,-0.23668,0.965264,0.91,0.56,0.98,21.65
800536,0.18544,-0.251808,0.97356,-2.38,0.84,0.98,21.61
800547,0.175192,-0.275232,0.96868,-2.17,1.47,1.26,21.61
800559,0.174216,-0.279624,0.96868,-1.75,1.82,1.26,21.6
800571,0.171288,-0.279136,0.974536,-1.33,1.75,1.54,21.6
800582,0.179096,-0.286456,0.973072,-0.28,1.96,1.61,21.58
800593,0.181048,-0.27084,0.964776,0.56,2.52,1.68,21.61
800604,0.174216,-0.284016,0.976,-0.91,2.45,1.05,21.61
800616,0.167872,-0.302072,0.987224,0.7,1.96,0.91,21.63
800627,0.171776,-0.276208,0.99552,0.35,1.33,0.98,21.61
800639,0.166896,-0.276696,0.998936,-1.4,0.84,0.14,21.61
800650,0.16104,-0.286456,1.00528,-2.38,0.21,-0.21,21.62
800661,0.171776,-0.29768,1.0004,-1.12,-0.14,-0.98,21.62
800673,0.158112,-0.304024,0.995032,0.21,-1.4,-1.75,21.64
800684,0.159576,-0.30744,0.992104,2.59,-2.38,-2.1,21.6
800696,0.166896,-0.277672,0.987712,3.36,-2.87,-2.38,21.6
800708,0.164456,-0.266448,0.984784,3.5,-3.01,-1.96,21.61
800719,0.167384,-0.245952,0.982344,2.24,-3.01,-1.68,21.61
800731,0.16592,-0.246928,0.979904,-0.35,-3.08,-1.54,21.62
800742,0.167872,-0.250344,0.986248,-2.73,-3.57,-0.98,21.6
800754,0.17812,-0.250344,0.986248,-4.34,-3.92,-0.98,21.6
800766,0.179584,-0.252296,0.984296,-7.77,-3.99,-0.84,21.63
800777,0.180072,-0.263032,0.984784,-10.22,-3.85,-0.49,21.6
800789,0.174216,-0.284016,0.970632,-10.08,-3.5,-0.14,21.6
800800,0.168848,-0.314272,0.964776,-6.58,-3.43,-0.56,21.64
800812,0.167384,-0.323056,0.96868,-1.61,-3.64,-0.49,21.64
800824,0.169824,-0.326472,0.959408,4.48,-3.85,-0.28,21.61
800836,0.174704,-0.30744,0.96136,8.05,-3.99,-0.28,21.64
800847,0.186416,-0.272304,0.964776,8.61,-3.5,0.21,21.64
800859,0.184952,-0.248392,0.966728,5.6,-2.66,0.77,21.62
800870,0.18056,-0.244488,0.958432,1.05,-1.96,1.4,21.61
800882,0.17812,-0.253272,0.960872,-2.66,-1.26,1.26,21.61
800893,0.17568,-0.279136,0.957944,-4.69,-1.26,0.98,21.64
800905,0.179096,-0.296216,0.948672,-4.9,-1.19,0.7,21.64
800916,0.176168,-0.313784,0.93696,-2.87,-1.05,0.0,21.59
800928,0.171288,-0.31232,0.959408,0.21,-1.26,-0.56,21.64
800940,0.17568,-0.303048,0.970632,3.15,-1.47,-0.77,21.64
800952,0.172264,-0.276696,0.974536,3.85,-1.68,-0.49,21.62
800963,0.173728,-0.262544,0.977464,2.24,-1.75,-0.56,21.59
800975,0.176656,-0.264496,0.973072,0.0,-1.4,-0.42,21.59
800987,0.168848,-0.282064,0.96136,-0.07,-1.47,-0.28,21.61
800999,0.168848,-0.267424,0.960384,0.42,-1.33,0.35,21.61
801011,0.17324,-0.264008,0.963312,0.07,-1.12,0.56,21.64
801022,0.169336,-0.274744,0.965264,-0.56,-0.77,0.63,21.6
801034,0.169824,-0.279624,0.973072,-1.75,-0.56,0.42,21.6
801046,0.166896,-0.304024,0.988688,-1.19,-0.98,0.14,21.61
801058,0.167872,-0.304512,0.986248,0.07,-1.75,-0.14,21.6
801069,0.169336,-0.308416,0.978928,1.33,-1.96,-0.35,21.6
801081,0.165432,-0.307928,0.970632,3.08,-1.96,-0.42,21.63
801093,0.165432,-0.278648,0.976,3.64,-2.17,0.21,21.63
801104,0.16836,-0.265472,0.974536,2.17,-2.31,0.28,21.61
801115,0.169824,-0.26352,0.976,-0.35,-2.24,0.42,21.57
801127,0.1708,-0.288408,0.969168,-1.68,-1.82,0.07,21.57
801139,0.1708,-0.291824,0.967216,-1.33,-1.89,-0.07,21.62
801151,0.16836,-0.285968,0.975024,-1.75,-2.31,-0.35,21.57
801163,0.171288,-0.284016,0.976976,-1.89,-2.45,-0.77,21.57
801174,0.16836,-0.30256,0.974536,-2.31,-2.59,-1.26,21.61
801186,0.170312,-0.318176,0.980392,-0.14,-2.8,-1.61,21.61
801197,0.170312,-0.30256,0.974048,1.54,-3.22,-1.61,21.6
801209,0.169824,-0.285968,0.961848,2.59,-3.15,-1.54,21.6
801220,0.1708,-0.285968,0.957456,2.73,-3.22,-1.61,21.6
801233,0.175192,-0.276208,0.960384,2.52,-2.45,-0.56,21.58
801245,0.172752,-0.26352,0.975512,0.98,-2.17,0.07,21.57
801257,0.176656,-0.272792,0.974536,0.63,-1.82,0.49,21.57
801268,0.174704,-0.284504,0.966728,0.49,-1.4,0.42,21.6
801280,0.16836,-0.293776,0.9638,0.56,-1.4,0.42,21.62
801291,0.171288,-0.297192,0.972584,1.4,-1.61,0.42,21.62
801303,0.17812,-0.28304,0.972096,1.54,-1.75,0.56,21.59
801315,0.179584,-0.28792,0.976976,1.82,-1.61,0.42,21.59
801326,0.174216,-0.284504,0.977464,2.31,-1.33,0.42,21.6
801339,0.172752,-0.280112,0.975512,1.89,-1.33,0.7,21.62
801350,0.169336,-0.280112,0.972584,1.33,-1.47,0.84,21.62
801362,0.170312,-0.284016,0.964776,0.91,-1.47,0.91,21.63
801373,0.171288,-0.279624,0.969656,-0.07,-1.4,0.98,21.58
801385,0.169824,-0.284504,0.977464,-1.33,-1.68,0.84,21.58
801397,0.165432,-0.294752,0.987224,-1.75,-2.31,0.56,21.65
801408,0.164944,-0.298168,0.986736,-1.26,-3.22,0.35,21.65
801420,0.164456,-0.30988,0.982344,0.56,-3.57,-0.42,21.62
801431,0.166896,-0.299632,0.98088,2.24,-3.99,-0.28,21.63
801443,0.169824,-0.2806,0.97356,2.45,-3.99,-0.42,21.63
801455,0.169824,-0.27572,0.969168,1.68,-3.85,-0.21,21.61
801466,0.171776,-0.27328,0.964288,1.19,-3.43,0.07,21.61
801478,0.16836,-0.271816,0.959408,-0.07,-3.22,0.21,21.62
801489,0.16592,-0.282064,0.96136,-0.98,-2.94,0.21,21.6
801501,0.16104,-0.2928,0.960872,-1.19,-2.87,0.49,21.6
801512,0.164944,-0.286944,0.968192,-1.05,-2.87,0.56,21.6
801523,0.16592,-0.288896,0.969656,-0.56,-2.73,0.28,21.57
801535,0.170312,-0.291824,0.966728,0.35,-2.24,0.28,21.57
801546,0.16592,-0.297192,0.959408,1.68,-2.03,0.07,21.63
801557,0.16592,-0.290848,0.962336,2.45,-2.1,0.07,21.63
801569,0.169336,-0.282064,0.9638,1.68,-2.17,-0.07,21.56
801581,0.166408,-0.279624,0.966728,-0.21,-2.24,-0.35,21.6
801593,0.167384,-0.28792,0.965752,-1.68,-1.89,-0.28,21.6
801604,0.163968,-0.29524,0.960384,-2.52,-1.47,-0.42,21.61
801616,0.162504,-0.294264,0.950136,-1.47,-1.19,-0.63,21.57
801628,0.162504,-0.288896,0.9516,-1.54,-1.19,-1.12,21.57
801640,0.162992,-0.29524,0.96624,-1.68,-1.47,-1.26,21.56
801652,0.168848,-0.288896,0.963312,-1.82,-1.26,-1.33,21.56
801664,0.171776,-0.282064,0.964776,-2.52,-0.84,-1.54,21.61
801676,0.16836,-0.290848,0.954528,-2.94,-0.28,-1.47,21.6
801687,0.162504,-0.293288,0.957456,-1.96,0.07,-1.19,21.6
801698,0.164944,-0.292312,0.970632,-1.4,-0.07,-1.05,21.59
801710,0.16592,-0.28304,0.97356,-1.75,0.07,-0.77,21.56
801722,0.165432,-0.282064,0.975024,-2.52,0.07,-0.63,21.56
801734,0.167384,-0.295728,0.976488,-2.87,0.14,-0.84,21.59
801746,0.16592,-0.30256,0.975024,-2.59,0.0,-0.56,21.59
801760,0.160064,-0.31476,0.980392,-0.98,-1.05,-0.56,21.59
801771,0.163968,-0.315736,0.983808,1.61,-1.54,-0.49,21.58
801783,0.164944,-0.310368,0.975512,3.71,-1.89,-0.7,21.58
801794,0.162504,-0.298168,0.975512,4.41,-2.24,-0.98,21.61
801806,0.166896,-0.29524,0.978928,4.2,-2.8,-0.84,21.61
801817,0.169824,-0.282064,0.983808,2.94,-3.01,-0.63,21.61
801829,0.171776,-0.274256,0.987712,0.28,-3.22,-0.56,21.62
801841,0.169824,-0.294752,0.977952,-1.19,-3.15,-0.7,21.59
801853,0.163968,-0.29768,0.971608,-1.05,-3.22,-0.63,21.59
801864,0.164944,-0.301584,0.96868,-0.35,-3.78,-0.42,21.61
801877,0.170312,-0.292312,0.970144,0.56,-4.34,-0.49,21.61
801889,0.17324,-0.288408,0.972584,0.35,-4.27,-0.21,21.58
801900,0.172264,-0.289872,0.975024,0.0,-3.99,0.0,21.58
801912,0.172264,-0.289384,0.972096,-0.07,-3.64,0.42,21.58
801924,0.17324,-0.292312,0.970144,-0.28,-3.57,0.63,21.61
801935,0.1708,-0.306952,0.966728,0.84,-3.57,0.77,21.51
801947,0.172752,-0.30012,0.962336,1.33,-3.29,0.91,21.51
801959,0.172264,-0.297192,0.959408,1.05,-2.94,0.77,21.61
801973,0.166408,-0.294752,0.960384,0.56,-2.73,0.91,21.62
801985,0.166408,-0.292312,0.959896,0.35,-2.8,0.77,21.62
801996,0.166896,-0.293776,0.959408,0.14,-2.8,0.7,21.64
802008,0.164944,-0.297192,0.970144,-0.07,-2.94,0.56,21.55
802020,0.164456,-0.305976,0.974048,-0.14,-3.15,0.35,21.55
802032,0.158112,-0.31232,0.976488,1.54,-3.43,0.21,21.58
802043,0.161528,-0.298168,0.973072,1.82,-3.64,-0.07,21.58
802055,0.160552,-0.30988,0.96136,2.94,-3.78,-0.35,21.6
802067,0.162016,-0.300608,0.9638,4.41,-3.99,-0.21,21.56
802079,0.164944,-0.2806,0.964288,4.34,-3.92,0.0,21.56
802090,0.16836,-0.269376,0.955992,1.96,-3.43,0.14,21.61
802102,0.162992,-0.284504,0.9516,-0.14,-3.01,-0.14,21.56
802114,0.165432,-0.291336,0.953064,-1.26,-2.8,-0.07,21.56
802126,0.167872,-0.303048,0.963312,-1.89,-3.01,-0.42,21.58
802137,0.169824,-0.308904,0.973072,-1.19,-3.36,-0.49,21.58
802149,0.174216,-0.309392,0.972096,0.0,-3.08,-0.98,21.6
802161,0.17324,-0.304512,0.959896,1.75,-2.52,-0.7,21.59
802173,0.166408,-0.295728,0.952088,2.8,-2.17,-0.91,21.59
802184,0.16348,-0.29768,0.957944,3.29,-2.38,-0.56,21.6
802196,0.167872,-0.277672,0.957456,3.01,-2.38,-0.21,21.55
802208,0.173728,-0.274256,0.962336,1.05,-1.75,-0.14,21.55
802220,0.167872,-0.281088,0.962336,-17.92,-1.4,0.28,21.58
802232,0.16348,-0.279136,0.96624,-1.82,-1.33,0.35,21.61
802243,0.165432,-0.303048,0.973072,-1.96,-1.61,0.42,21.61
802255,0.166896,-0.310368,0.974048,-0.56,-1.96,0.07,21.64
802267,0.166896,-0.307928,0.971608,1.82,-2.31,-0.21,21.64
802278,0.165432,-0.294264,0.96624,2.24,-2.38,-0.77,21.61
802290,0.164456,-0.300608,0.960384,2.38,-2.1,-1.19,21.62
802301,0.164944,-0.291336,0.96136,2.31,-2.03,-0.84,21.62
802313,0.164456,-0.292312,0.963312,1.4,-1.96,-0.84,21.62
802325,0.163968,-0.304024,0.966728,1.68,-2.03,-0.56,21.62
802336,0.166408,-0.302072,0.977464,1.61,-2.17,-0.56,21.58
802348,0.169336,-0.304512,0.97844,1.89,-2.03,-0.42,21.61
802359,0.169824,-0.295728,0.973072,2.8,-1.61,-0.35,21.61
802371,0.170312,-0.286456,0.965264,1.89,-1.05,-0.35,21.59
802383,0.166896,-0.305,0.964288,0.49,-0.84,-0.35,21.55
802395,0.165432,-0.308904,0.976,1.19,-1.19,-0.28,21.55
802406,0.167872,-0.304512,0.982832,1.05,-1.54,-0.77,21.58
802418,0.166408,-0.306952,0.983808,0.77,-2.03,-0.91,21.57
802430,0.16836,-0.303536,0.981856,0.0,-2.24,-1.19,21.57
802442,0.164944,-0.309392,0.980392,-0.77,-2.8,-1.19,21.6
802454,0.168848,-0.318664,0.975512,0.07,-3.15,-1.12,21.6
802465,0.172752,-0.30256,0.981856,0.56,-3.64,-0.98,21.6
802477,0.174704,-0.29768,0.973072,1.12,-3.71,-1.05,21.54
802489,0.176168,-0.294752,0.969168,1.33,-4.06,-1.12,21.54
802500,0.181536,-0.285968,0.969656,0.21,-4.34,-1.4,21.59
802512,0.179584,-0.296704,0.962824,-0.21,-3.99,-1.54,21.58
802524,0.177144,-0.291336,0.964776,-0.91,-3.92,-1.4,21.58
802537,0.17568,-0.293288,0.960872,-1.61,-3.64,-1.19,21.64
802548,0.176656,-0.30256,0.962336,-0.84,-3.5,-1.12,21.64
802560,0.17568,-0.302072,0.961848,0.56,-3.43,-0.84,21.61
802572,0.17568,-0.293776,0.962336,1.19,-3.64,-0.49,21.63
802583,0.176656,-0.28792,0.96136,1.33,-3.5,-0.28,21.63
802595,0.172264,-0.282552,0.960384,2.03,-3.22,0.0,21.63
802606,0.169336,-0.271328,0.957944,1.33,-2.87,0.42,21.61
802618,0.171776,-0.281576,0.957944,0.14,-2.31,0.77,21.61
802630,0.162992,-0.2928,0.955016,0.98,-1.96,1.26,21.57
802641,0.162992,-0.284992,0.953552,2.31,-1.75,1.68,21.57
802653,0.162504,-0.293776,0.947696,3.78,-1.26,1.89,21.65
802664,0.16104,-0.271328,0.935984,4.48,-0.7,2.87,21.59
802676,0.158112,-0.23668,0.935496,2.24,0.49,4.13,21.59
802688,0.147864,-0.217648,0.968192,1.54,0.21,6.16,21.61
802699,0.165432,-0.224968,0.972096,0.42,1.33,6.37,21.61
802711,0.154208,-0.205936,0.960384,-2.03,2.24,6.65,21.61
802723,0.171776,-0.159088,0.945744,-10.15,3.71,6.72,21.6
802734,0.16104,-0.186416,0.99552,-24.85,2.59,6.79,21.6
802746,0.153232,-0.201056,1.050176,-50.119999,1.12,8.4,21.61
802757,0.142008,-0.24644,1.01992,-70.07,3.36,8.4,21.63
802769,0.125416,-0.337696,1.014064,-77.489998,3.01,9.94,21.63
802780,0.12932,-0.522648,0.960384,-59.849998,3.92,8.54,21.61
802792,0.098576,-0.36356,0.961848,-36.049999,2.17,16.309999,21.63
802804,0.08784,-0.2196,0.967216,-25.549999,-1.54,19.389999,21.63
802815,0.053192,-0.22936,0.974048,-8.75,-3.15,20.02,21.61
802827,0.034648,-0.147864,0.972584,7.42,-3.36,24.219999,21.61
802839,0.020008,-0.179584,0.975512,14.49,-3.99,22.26,21.59
802851,0.060024,-0.386008,0.974048,18.549999,-6.37,25.690001,21.59
802862,0.062952,-0.31232,1.130208,13.09,-10.64,26.74,21.59
802874,0.036112,-0.121512,1.218048,-4.2,-16.52,28.49,21.59
802886,0.067344,-0.200568,1.174616,-13.44,-19.25,28.280001,21.53
802898,0.062952,-0.396256,1.046272,-4.83,-16.030001,24.99,21.53
802909,0.08784,-0.467504,0.908168,7.07,-14.21,26.110001,21.59
802921,0.132736,-0.443104,0.796416,20.440001,-12.04,26.530001,21.59
802932,0.140056,-0.337208,0.796904,19.6,-14.56,28.209999,21.59
802944,0.198616,-0.443592,0.876448,18.200001,-17.85,26.18,21.62
802955,0.257664,-0.462624,0.962336,13.86,-17.08,24.85,21.62
802967,0.280112,-0.496296,0.99308,8.75,-14.42,24.639999,21.62
802978,0.350872,-0.534848,0.980392,0.91,-10.36,26.25,21.58
802990,0.404552,-0.55632,0.94428,-5.32,-5.39,27.790001,21.58
803001,0.435296,-0.644648,0.841312,-8.89,-0.28,27.299999,21.58
803013,0.462136,-0.709064,0.787632,-7.56,-1.26,29.4,21.58
803025,0.528992,-0.679784,0.813008,-6.65,-3.57,27.719999,21.65
803037,0.60024,-0.774456,0.992592,-4.76,-3.29,24.780001,21.56
803049,0.670512,-0.819352,0.948672,-4.34,-1.05,24.08,21.56
803060,0.71492,-0.848144,0.975024,-4.62,3.01,25.129999,21.58
803072,0.77348,-0.845216,0.952576,-4.27,7.14,25.41,21.56
803083,0.827648,-0.906704,0.860344,-4.55,7.84,16.309999,21.56
803096,0.876936,-0.951112,0.696376,-0.98,15.68,23.24,21.6
803107,0.879864,-0.996984,0.624152,2.24,19.389999,23.309999,21.6
803118,0.918904,-0.92476,0.678808,-4.13,18.27,18.690001,21.61
803130,0.962336,-0.920368,0.782264,-12.88,20.23,15.47,21.56
803142,0.987224,-0.796904,0.868152,-27.860001,21.700001,10.71,21.56
803154,0.973072,-0.865712,0.79544,-41.93,31.780001,3.85,21.61
803165,1.005768,-0.942816,0.721264,-49.07,48.02,-1.82,21.58
803176,0.796416,-1.164368,0.631472,-27.440001,31.57,-2.8,21.58
803188,0.870104,-1.128256,0.582672,2.38,35.98,-20.299999,21.56
803200,0.864736,-1.203408,0.43432,24.15,51.73,-51.310001,21.56
803212,0.747128,-1.161928,0.402112,32.130001,61.880001,-73.779999,21.58
803223,0.57828,-1.032608,0.41236,42.560001,57.889999,-105.980003,21.62
803234,0.485072,-1.121912,0.33672,43.119999,66.919998,-147.419998,21.62
803246,0.310368,-1.244888,0.260104,39.619999,93.660004,-181.020004,21.58
803257,-0.125416,-1.428864,0.264008,56.0,97.93,-227.570007,21.58
803269,-0.49532,-1.30052,0.210816,85.120003,107.730003,-270.690002,21.59
803281,-0.935496,-0.99552,0.330376,84.699997,130.059998,-317.450012,21.59
803292,-1.238544,-0.185928,0.562664,-16.73,144.759995,-348.529999,21.59
803304,-1.91784,1.053104,1.257088,-303.380005,172.339996,-350.279999,21.61
803316,-2.293112,0.944768,1.652368,-484.190002,213.360001,-312.76001,21.55
803328,-2.582984,-0.111752,1.301496,-414.959991,244.720001,-301.350006,21.55
803339,-2.699128,-1.148264,0.930616,-179.899994,230.160004,-288.399994,21.58
803351,-2.711328,-0.774456,1.734352,216.929993,94.849998,-249.410004,21.58
803363,-1.748992,1.606008,2.733776,354.130005,-113.400002,-149.589996,21.59
803374,0.330864,2.319464,1.47864,336.209991,-138.740005,-33.110001,21.52
803386,0.6588,1.103856,0.47092,259.48999,-33.740002,66.639999,21.52
803398,-0.23424,0.89304,1.062864,166.460007,-30.66,119.139999,21.57
803410,-0.510936,0.327936,1.138504,-11.83,-28.0,129.360001,21.62
803421,-0.507032,-1.189744,0.159576,-112.980003,4.55,86.660004,21.62
803433,-0.144936,-1.858792,0.101992,-91.209999,31.57,55.299999,21.61
803445,-0.342088,-1.446432,0.668072,-62.509998,41.16,7.98,21.58
803457,-0.352824,-1.025776,1.084336,-56.490002,21.77,-6.72,21.58
803468,-0.237656,-0.745664,1.084824,-31.360001,22.4,-23.1,21.59
803480,-0.264496,-0.775432,1.0614,21.629999,-1.05,-12.88,21.59
803493,-0.04392,-0.394792,1.155584,61.950001,-1.47,1.19,21.59
803504,-0.177144,-0.419192,1.181448,62.369999,-16.73,12.04,21.55
803516,-0.076616,-0.44652,1.004792,46.48,-15.82,11.34,21.55
803527,-0.026352,-0.537288,0.878888,25.129999,-2.17,5.25,21.63
803539,-0.120536,-0.572912,0.854488,14.7,-7.91,1.89,21.57
803551,0.013176,-0.431392,0.898408,-2.52,0.42,2.52,21.57
803563,0.015616,-0.371368,0.964288,-26.389999,7.84,1.54,21.59
803575,0.010248,-0.474336,0.958432,-34.860001,11.97,0.77,21.59
803586,-0.032208,-0.537776,0.972096,-23.870001,8.89,-0.77,21.57
803598,-0.057096,-0.574864,0.985272,-0.77,2.52,-2.24,21.57
803609,-0.0366,-0.518744,0.984296,19.6,-1.82,-4.69,21.57
803621,-0.015616,-0.4392,0.972096,29.190001,-4.13,-7.77,21.59
803632,0.003416,-0.347944,0.986248,23.030001,-4.34,-9.24,21.53
803644,0.008784,-0.320616,1.006256,12.04,-1.82,-9.52,21.53
803655,0.00488,-0.304512,0.965264,2.59,0.56,-7.35,21.57
803666,0.016104,-0.271328,0.953064,-6.93,2.38,-4.2,21.57
803678,0.01464,-0.321592,0.961848,-8.54,4.13,-2.03,21.59
803690,-0.006832,-0.343064,0.967216,-4.83,2.8,-1.12,21.55
803701,-0.001464,-0.384544,0.979416,-0.84,1.96,-1.82,21.55
803713,-0.00488,-0.374784,0.976,2.59,0.77,-1.89,21.57
803725,0.00244,-0.345016,0.969168,1.96,-0.91,-2.31,21.59
803736,0.01708,-0.301096,0.969656,-5.04,-0.77,-0.28,21.59
803748,0.030744,-0.338672,0.949648,-9.59,0.21,1.4,21.6
803759,0.01952,-0.331352,0.95892,-12.11,0.56,2.1,21.6
803771,0.000976,-0.383568,0.964776,-9.87,0.98,1.61,21.59
803783,-0.006832,-0.437248,0.9516,-3.15,-0.21,-0.07,21.55
803795,-0.005368,-0.388448,0.99552,0.7,-2.1,-1.26,21.55
803806,0.005856,-0.38308,0.976,2.66,-2.87,-0.77,21.59
803818,0.01952,-0.372344,0.959408,2.03,-2.87,-0.63,21.59
803830,0.00488,-0.323544,0.972096,-3.22,-2.52,-0.7,21.55
803841,-0.011224,-0.348432,0.978928,-7.49,-2.8,0.42,21.58
803853,-0.017568,-0.376248,0.966728,-3.71,-3.99,0.42,21.58
803864,-0.010248,-0.404552,0.943304,4.27,-4.48,-0.07,21.6
803876,-0.0122,-0.410408,0.935008,10.64,-4.76,-1.82,21.55
803887,-0.00244,-0.347944,0.964776,10.01,-5.74,-1.68,21.55
803899,0.008784,-0.311832,0.99308,-0.21,-5.67,0.21,21.58
803911,0.013664,-0.299144,0.964776,-7.0,-4.48,2.24,21.58
803923,-0.000976,-0.368928,0.907192,-7.56,-3.57,1.96,21.59
803935,0.001952,-0.415776,0.882304,-4.27,-1.89,0.28,21.55
803947,0.013176,-0.38552,0.911096,-2.03,-1.26,-1.4,21.55
803958,0.027328,-0.40016,0.937448,-0.14,-0.49,-2.87,21.62
803970,0.033672,-0.340136,0.953552,-2.94,-0.07,-2.45,21.59
803981,0.02684,-0.37088,0.989176,-2.17,0.77,-2.73,21.59
803993,0.02196,-0.348432,0.995032,-0.7,-0.77,-1.96,21.57
804004,0.028792,-0.396744,0.973072,2.8,-2.38,-1.82,21.57
804015,0.04148,-0.39284,0.960384,8.05,-2.87,-2.52,21.61
804027,0.03416,-0.349896,0.950624,8.12,-3.29,-2.38,21.54
804038,0.035136,-0.313784,0.975512,1.47,-3.64,-1.19,21.54
804049,0.032696,-0.30988,0.991616,-3.78,-3.22,-0.14,21.59
804060,0.03416,-0.335256,0.968192,-5.39,-2.73,0.14,21.59
804072,0.02684,-0.376248,0.951112,-2.52,-3.36,-0.7,21.59
804083,0.029768,-0.372344,0.95892,0.56,-4.06,-1.54,21.59
804095,0.036112,-0.387472,0.965264,5.04,-3.92,-2.17,21.59
804106,0.042456,-0.32208,0.960384,4.55,-4.13,-1.05,21.63
804118,0.041968,-0.302072,0.986248,0.0,-3.43,0.49,21.55
804129,0.034648,-0.30744,0.992592,-2.1,-3.01,2.1,21.55
804141,0.0244,-0.331352,0.970144,0.28,-3.64,3.22,21.55
804152,0.025864,-0.350872,0.928664,3.57,-3.71,2.66,21.55
804163,0.026352,-0.368928,0.931104,5.11,-3.01,1.75,21.56
804175,0.024888,-0.338184,0.95648,3.71,-3.57,1.54,21.56
804186,0.02928,-0.320616,0.981856,-1.33,-3.71,2.38,21.56
804198,0.027816,-0.345504,0.987224,-2.03,-3.71,3.64,21.58
804209,0.026352,-0.351848,0.966728,-0.77,-3.71,3.99,21.58
804220,0.013664,-0.352336,0.974048,-0.42,-4.62,4.48,21.54
804231,0.022448,-0.370392,0.99064,2.03,-5.53,4.55,21.55
804243,0.026352,-0.367952,0.98088,2.24,-6.09,4.97,21.55
804254,0.016104,-0.373808,0.969168,1.33,-6.37,4.9,21.55
804265,0.014152,-0.376736,0.970632,1.33,-6.58,4.62,21.55
804276,0.01464,-0.372832,0.968192,1.12,-6.58,4.48,21.59
804288,0.01464,-0.374296,0.972584,1.47,-6.93,4.83,21.62
804299,0.006832,-0.362096,0.976,1.61,-6.79,5.11,21.62
804310,-0.005368,-0.349408,0.99552,0.42,-7.49,6.3,21.61
804322,-0.0122,-0.40504,0.96624,2.94,-8.54,7.28,21.59
804333,-0.015616,-0.42944,0.92476,8.19,-8.96,6.37,21.59
804344,-0.015128,-0.439688,0.91012,13.58,-7.91,3.99,21.61
804356,-0.019032,-0.415288,0.915488,16.52,-7.49,2.8,21.61
804368,-0.001952,-0.374296,0.934032,14.35,-6.79,3.85,21.61
804380,0.004392,-0.3294,0.940864,5.53,-5.46,6.16,21.57
804391,-0.00976,-0.316224,0.955016,-3.71,-4.83,8.82,21.57
804402,-0.013664,-0.364048,0.960384,-7.42,-4.76,10.5,21.59
804414,-0.02196,-0.38064,0.955016,-7.35,-4.69,11.27,21.59
804426,-0.026352,-0.447496,0.9394,-2.52,-5.18,11.41,21.57
804438,-0.035136,-0.454328,0.937936,6.16,-6.51,9.8,21.62
804449,-0.035624,-0.424072,0.95404,11.62,-7.0,9.31,21.62
804460,-0.045872,-0.394304,0.972584,12.88,-8.54,9.45,21.59
804471,-0.057584,-0.350384,0.992592,10.36,-10.64,11.69,21.59
804482,-0.064416,-0.332328,1.009184,9.1,-12.81,13.86,21.59
804494,-0.074664,-0.330864,0.998448,8.19,-14.42,16.59,21.6
804505,-0.093696,-0.345016,0.970632,8.54,-16.52,20.58,21.6
804517,-0.120048,-0.3538,0.966728,13.16,-19.040001,25.41,21.6
804529,-0.136152,-0.361608,0.96624,16.24,-24.5,32.549999,21.61
804540,-0.12444,-0.416264,0.949648,26.110001,-26.25,39.060001,21.61
804551,-0.136152,-0.330864,0.956968,35.98,-29.610001,43.959999,21.6
804563,-0.145424,-0.29768,0.959896,34.93,-30.59,48.369999,21.6
804574,-0.181048,-0.299632,0.977464,31.99,-31.709999,52.080002,21.58
804586,-0.203984,-0.30012,0.974536,28.629999,-33.459999,54.880001,21.56
804598,-0.232776,-0.321104,0.952088,30.450001,-35.209999,58.869999,21.56
804609,-0.248392,-0.298656,0.952576,34.790001,-39.48,62.02,21.62
804620,-0.214232,-0.295728,0.952576,38.779999,-43.330002,65.309998,21.54
804632,-0.213256,-0.2806,0.995032,40.040001,-44.310001,66.849998,21.54
804643,-0.223016,-0.289384,0.998936,36.119999,-44.66,69.370003,21.54
804654,-0.225944,-0.298168,0.972584,30.59,-43.82,71.68,21.54
804666,-0.23912,-0.262056,0.954528,28.559999,-43.189999,73.43,21.57
804677,-0.23912,-0.243512,0.952088,27.65,-42.98,73.779999,21.57
804688,-0.228384,-0.241072,0.935496,27.860001,-42.84,72.449997,21.57
804700,-0.193248,-0.23912,0.925248,24.99,-39.759998,70.489998,21.57
804711,-0.164944,-0.225456,0.92476,22.68,-38.849998,70.07,21.57
804723,-0.144936,-0.198616,0.950136,22.469999,-38.57,68.110001,21.6
804734,-0.115168,-0.22936,0.970144,21.559999,-37.450001,65.379997,21.57
804745,-0.100528,-0.216184,0.984296,18.48,-33.810001,63.209999,21.57
804757,-0.112728,-0.17568,1.00284,10.29,-33.810001,62.369999,21.57
804769,-0.15128,-0.237656,1.006256,4.97,-36.540001,59.150002,21.57
804780,-0.108824,-0.285968,0.972584,5.25,-34.93,56.91,21.59
804792,-0.129808,-0.301584,0.959896,12.46,-39.41,54.389999,21.59
804803,-0.09272,-0.232776,0.996008,16.799999,-39.830002,51.939999,21.59
804814,-0.111752,-0.174704,1.011136,20.58,-44.939999,51.450001,21.55
804825,-0.043432,-0.18056,0.983808,21.77,-45.639999,54.740002,21.55
804837,0.056608,-0.179584,0.975024,20.23,-39.689999,52.57,21.61
804848,0.057096,-0.166896,0.99064,16.73,-35.490002,50.259998,21.56
804859,0.035136,-0.144448,1.00528,11.2,-33.950001,48.580002,21.56
804870,0.06588,-0.1708,1.0004,6.65,-28.07,47.810001,21.59
804882,0.07564,-0.193248,0.95404,4.62,-26.389999,43.889999,21.58
804894,0.239608,-0.247416,0.894016,7.84,-7.07,52.57,21.58
804905,0.333304,-0.34404,0.845216,18.200001,-7.77,39.900002,21.57
804917,0.301096,-0.335744,0.893528,26.950001,-21.84,31.57,21.57
804928,0.38064,-0.327936,0.942328,29.049999,-31.57,32.759998,21.57
804939,0.44408,-0.237168,0.99796,20.23,-33.529999,29.049999,21.53
804951,0.435784,-0.225456,0.977464,2.17,-28.42,23.799999,21.53
804962,0.477264,-0.29524,0.89304,-14.7,-21.280001,17.08,21.58
804973,0.55144,-0.365024,0.817888,-23.73,-14.7,12.18,21.58
804985,0.593408,-0.508984,0.815448,-19.25,-11.97,7.35,21.52
804997,0.635376,-0.543632,0.886696,-6.93,-7.42,6.23,21.52
805008,0.618784,-0.542168,0.97844,7.35,-6.44,5.32,21.52
805019,0.598288,-0.54656,0.987712,19.040001,-6.93,6.09,21.59
805031,0.580232,-0.472872,0.966728,22.120001,-7.91,5.81,21.57
805042,0.547536,-0.415288,0.884256,20.16,-7.35,5.53,21.57
805054,0.484584,-0.342576,0.808128,8.05,-3.99,4.62,21.57
805065,0.48312,-0.328912,0.857904,-18.200001,-3.08,4.69,21.57
805076,0.467016,-0.410408,0.797392,-35.84,-1.19,5.67,21.52
805087,0.300608,-0.436272,0.784704,-50.330002,-1.4,9.31,21.59
805099,0.269864,-0.3782,1.104832,-62.93,-15.26,11.2,21.59
805110,0.227408,-0.366976,1.495232,-80.709999,-23.17,13.79,21.59
805121,0.240096,-0.482632,1.345416,-54.32,-32.900002,17.15,21.59
805133,0.345504,-0.530944,1.347856,-10.57,-41.509998,9.24,21.62
805145,0.303536,-0.639768,1.418128,11.97,-47.110001,-3.08,21.57
805156,0.463112,-0.969168,1.203408,102.900002,-46.549999,-7.98,21.57
805168,0.677344,-0.68808,0.426024,180.320007,-32.619999,-2.73,21.61
805179,0.68564,0.529968,0.416752,82.110001,-22.540001,-2.59,21.61
805191,0.324032,0.236192,0.421144,-37.869999,-6.37,-14.77,21.57
805202,0.18544,-0.33428,0.412848,-63.91,4.55,-2.59,21.6
805213,0.15128,-0.571936,0.447008,-43.82,17.709999,-4.69,21.6
805224,0.20252,-0.600728,0.629032,-11.76,18.620001,0.35,21.56
805236,0.273768,-0.486048,0.842288,27.23,19.110001,1.61,21.56
805247,0.2684,-0.247416,1.034072,41.720001,17.5,0.35,21.57
805258,0.258152,-0.210328,1.17608,29.049999,15.54,-4.69,21.58
805269,0.240096,-0.206912,1.219512,9.59,15.33,-7.7,21.58
805280,0.200568,-0.220088,1.203896,-7.42,13.65,-11.2,21.54
805292,0.164944,-0.280112,1.169736,-13.86,9.1,-11.27,21.54
805303,0.139568,-0.291824,1.117032,-10.15,4.62,-9.66,21.57
805315,0.141032,-0.31476,1.020408,4.9,1.89,-9.17,21.54
805326,0.140056,-0.245952,0.977464,18.48,1.12,-8.68,21.54
805337,0.144936,-0.18544,0.978928,24.43,0.42,-5.53,21.53
805349,0.157136,-0.115168,1.015528,19.18,0.07,-3.5,21.54
805360,0.1586,-0.079056,1.043344,6.16,-1.4,-2.31,21.54
805371,0.166408,-0.116144,1.062864,-2.73,-1.82,-1.75,21.63
805383,0.15616,-0.168848,1.059448,-8.61,-2.31,-3.01,21.63
805394,0.159088,-0.226432,1.028216,-7.7,-3.08,-1.89,21.57
805405,0.166896,-0.22692,0.999912,-1.75,-3.71,-1.61,21.51
805417,0.166896,-0.221552,0.98332,4.13,-4.41,0.14,21.51
805429,0.169824,-0.2074,0.989176,6.93,-4.9,0.07,21.55
805440,0.17568,-0.22204,0.991128,10.64,-4.62,0.49,21.55
805452,0.171776,-0.184952,0.984296,7.7,-3.78,0.98,21.59
805463,0.166896,-0.183976,0.97844,1.61,-3.5,1.47,21.61
805475,0.162016,-0.196664,0.969656,-3.71,-3.36,1.96,21.61
805486,0.157136,-0.237168,0.952576,-6.16,-2.38,1.75,21.61
805499,0.159576,-0.254248,0.953064,-2.52,-1.33,2.45,21.53
805510,0.161528,-0.235704,0.95404,2.17,-1.19,2.45,21.53
805521,0.164456,-0.250832,0.93208,8.26,-0.84,2.03,21.53
805532,0.166896,-0.216184,0.941352,8.89,-0.42,0.98,21.53
805544,0.1708,-0.2196,0.962824,6.3,-1.05,-0.14,21.55
805555,0.184464,-0.199592,0.974048,2.59,0.21,0.0,21.57
805567,0.177144,-0.193248,0.977464,-4.55,1.33,-0.84,21.57
805578,0.162504,-0.24888,0.974536,-9.1,1.33,-1.96,21.62
805589,0.150792,-0.267424,0.975024,-7.14,1.05,-2.1,21.62
805601,0.15128,-0.264984,0.981368,-3.99,0.28,-2.45,21.59
805612,0.164456,-0.284016,0.977464,1.68,-0.14,-2.45,21.54
805624,0.176168,-0.257176,0.972584,5.88,-0.14,-2.38,21.54
805635,0.167384,-0.238632,0.981368,5.39,-0.49,-2.66,21.58
805646,0.175192,-0.236192,0.982832,5.25,-0.35,-1.54,21.58
805657,0.183488,-0.202032,0.98332,4.48,0.14,-0.63,21.57
805669,0.183976,-0.20252,0.980392,2.31,0.42,-0.63,21.55
805680,0.185928,-0.218624,0.972584,1.54,1.05,-0.7,21.55
805691,0.184464,-0.240584,0.976,1.61,0.91,-1.4,21.57
805702,0.194224,-0.263032,0.97356,2.73,0.21,-2.03,21.57
805713,0.201056,-0.255712,0.96868,5.32,0.42,-1.82,21.54
805725,0.20252,-0.24156,0.981856,7.7,-0.35,-1.96,21.54
805736,0.199104,-0.214232,0.99308,6.23,-0.14,-1.82,21.54
805748,0.191784,-0.210328,1.008208,2.66,-0.35,-2.17,21.57
805759,0.19276,-0.211304,1.009672,-0.42,-0.63,-1.96,21.59
805771,0.195688,-0.216184,0.992104,-2.45,-0.63,-1.61,21.59
805783,0.193248,-0.21228,0.978928,-4.27,-0.56,-0.84,21.56
805795,0.19032,-0.22204,0.983808,-4.34,-0.63,-0.28,21.56
805806,0.178608,-0.232776,0.989664,-1.05,-1.19,0.21,21.56
805818,0.179584,-0.226432,0.991128,1.61,-1.4,0.28,21.6
805829,0.177632,-0.239608,0.989664,5.04,-1.4,1.05,21.6
805840,0.182024,-0.233752,0.989664,7.14,-1.19,1.68,21.61
805851,0.179584,-0.222528,0.99552,7.91,-1.54,1.96,21.61
805862,0.174704,-0.20496,1.001864,5.32,-1.54,3.01,21.54
805874,0.173728,-0.178608,1.002352,-0.14,-1.4,3.22,21.62
805885,0.167872,-0.207888,0.990152,-4.9,-1.47,3.01,21.62
805897,0.167384,-0.237656,0.988688,-6.16,-1.4,2.73,21.54
805908,0.16836,-0.261568,0.979416,-4.13,-1.26,2.59,21.57
805920,0.173728,-0.267424,0.970144,-1.12,-1.26,2.52,21.57
805931,0.167872,-0.271816,0.972584,2.24,-1.96,2.1,21.57
805943,0.1708,-0.276696,0.981368,5.25,-2.1,1.61,21.57
805954,0.173728,-0.250344,0.984296,6.44,-2.31,1.05,21.61
805965,0.17568,-0.227896,0.978928,4.62,-2.38,0.63,21.56
805977,0.180072,-0.220088,0.976976,1.68,-1.54,0.42,21.56
805989,0.171288,-0.210816,0.982832,-1.75,-1.19,0.49,21.54
806000,0.162992,-0.21716,0.981368,-5.46,-1.12,0.49,21.54
806012,0.159576,-0.225456,0.98088,-7.21,-1.19,0.7,21.57
806024,0.155672,-0.23424,0.98088,-6.37,-1.61,0.56,21.56
806035,0.153232,-0.261568,0.975024,-3.36,-2.17,0.0,21.56
806046,0.148352,-0.267424,0.973072,2.66,-2.66,-0.07,21.52
806057,0.157136,-0.230336,0.976488,5.18,-2.94,0.28,21.56
806069,0.159576,-0.215696,0.976488,5.18,-2.52,0.07,21.56
806080,0.149816,-0.215696,0.984784,3.92,-2.24,0.35,21.54
806092,0.150304,-0.208376,0.989176,2.45,-2.24,0.49,21.54
806103,0.149328,-0.223992,0.9882,0.91,-2.45,0.35,21.61
806114,0.153232,-0.245952,0.981856,1.4,-2.87,0.0,21.55
806125,0.162016,-0.247904,0.980392,1.54,-3.29,0.0,21.55
806136,0.166896,-0.238632,0.982344,1.96,-2.8,-0.07,21.57
806148,0.164944,-0.237168,0.98088,2.03,-2.52,0.0,21.57
806159,0.166408,-0.24644,0.974048,2.94,-2.17,0.07,21.56
806170,0.165432,-0.244488,0.97844,3.78,-2.03,0.28,21.54
806182,0.174216,-0.242048,0.97844,4.13,-1.96,-0.07,21.54
806193,0.174216,-0.24156,0.972584,4.2,-1.54,0.07,21.61
806205,0.175192,-0.227896,0.972584,3.92,-0.7,-0.28,21.61
806217,0.1708,-0.220088,0.971608,2.31,0.28,0.14,21.57
806229,0.160552,-0.224968,0.97356,0.28,0.98,0.42,21.57
806240,0.160064,-0.231312,0.984296,-0.21,0.91,0.91,21.57
806251,0.161528,-0.226432,1.00284,-0.91,0.98,0.63,21.57
806263,0.151768,-0.244976,1.002352,-0.49,0.77,0.14,21.55
806275,0.154696,-0.242048,1.001864,0.77,0.28,-0.14,21.55
806287,0.159576,-0.232776,0.993568,1.4,-0.14,-0.42,21.57
806300,0.155672,-0.228872,0.991616,0.77,-0.28,-0.42,21.59
806312,0.155184,-0.225944,0.992592,0.07,-0.42,-0.56,21.59
806324,0.157624,-0.22448,1.001376,-0.56,-0.7,-0.28,21.57
806336,0.157136,-0.22692,1.001864,-1.61,-1.12,-0.49,21.57
806347,0.152744,-0.234728,0.99552,-2.03,-1.61,-0.91,21.57
806360,0.154696,-0.244976,0.99064,-2.03,-1.96,-1.26,21.59
806372,0.150792,-0.254248,0.99064,-0.7,-2.31,-1.4,21.59
806384,0.147864,-0.255224,0.993568,1.61,-2.8,-1.75,21.54
806395,0.148352,-0.243512,0.990152,3.5,-3.29,-2.1,21.6
806407,0.15372,-0.227896,0.981368,3.5,-3.5,-2.38,21.6
806418,0.154208,-0.205936,0.979416,1.68,-3.5,-2.59,21.59
806429,0.14884,-0.205448,0.981368,-1.75,-3.22,-2.38,21.59
806440,0.144936,-0.208376,0.982832,-4.41,-2.87,-2.59,21.59
806451,0.143472,-0.221552,0.986248,-6.23,-2.8,-2.24,21.56
806463,0.142984,-0.232776,0.990152,-6.02,-3.08,-2.73,21.56
806474,0.14396,-0.237168,0.989176,-4.48,-3.29,-2.87,21.54
806486,0.139568,-0.244976,0.999424,-3.29,-3.57,-3.01,21.54
806497,0.138592,-0.246928,1.006256,-1.26,-3.85,-2.94,21.64
806508,0.132248,-0.245952,0.99796,0.98,-4.34,-3.36,21.54
806520,0.131272,-0.245464,0.985272,3.64,-4.55,-3.22,21.54
806531,0.12932,-0.243024,0.976,5.6,-4.48,-3.43,21.59
806542,0.132248,-0.22692,0.967216,5.11,-4.48,-3.43,21.59
806554,0.131272,-0.230824,0.972584,3.01,-4.62,-3.43,21.56
806566,0.137128,-0.230824,0.98088,2.03,-4.41,-3.36,21.56
806577,0.142984,-0.207888,0.98088,-0.07,-3.71,-3.08,21.56
806588,0.137128,-0.227408,0.98332,-1.33,-3.85,-3.36,21.54
806600,0.142008,-0.250344,0.975512,0.98,-3.64,-3.43,21.55
806611,0.13908,-0.232776,0.970632,3.29,-3.29,-3.43,21.55
806622,0.142496,-0.215696,0.95404,3.99,-2.03,-3.22,21.58
806634,0.145424,-0.205936,0.94428,4.76,-1.26,-2.24,21.58
806645,0.158112,-0.188368,0.942328,2.94,0.07,-2.24,21.6
806657,0.159088,-0.167384,0.932568,-17.57,2.1,-1.61,21.57
806668,0.157136,-0.146888,0.933056,-4.76,3.36,-1.54,21.57
806680,0.161528,-0.131272,0.970632,-15.4,3.85,-1.26,21.6
806692,0.160064,-0.14396,0.975512,-23.24,5.25,-1.47,21.6
806703,0.144448,-0.223016,0.977952,-23.799999,5.04,-2.73,21.55
806715,0.140056,-0.281576,0.981368,-19.110001,5.81,-4.27,21.59
806727,0.121024,-0.284992,0.99796,-7.7,4.76,-4.55,21.59
806738,0.125904,-0.24644,1.019432,-7.7,3.92,-3.43,21.55
806749,0.131272,-0.143472,1.089704,-24.709999,1.19,-1.19,21.54
806761,0.108824,-0.250832,1.131672,-50.470001,-1.75,-1.96,21.54
806772,0.113216,-0.386984,1.127768,-40.32,-2.94,0.56,21.52
806784,0.140056,-0.151768,1.085312,-32.200001,-1.54,5.46,21.52
806796,0.119072,-0.2318,1.033584,-17.290001,-2.38,5.53,21.55
806807,0.078568,-0.179584,1.018944,-11.55,-3.78,11.83,21.55
806818,0.106872,-0.14152,0.971608,-6.72,-5.39,15.12,21.55
806830,0.133224,-0.084912,0.95404,-9.8,-4.76,17.92,21.53
806841,0.090768,-0.225944,0.955992,-6.23,-5.25,18.200001,21.59
806853,0.104432,-0.205448,1.002352,-6.65,-4.34,22.610001,21.59
806865,0.097112,-0.103456,1.054568,-12.04,-6.23,23.66,21.57
806876,0.086864,-0.151768,1.083848,-17.5,-8.82,24.85,21.57
806888,0.108336,-0.178608,1.077504,-22.049999,-10.85,28.42,21.55
806899,0.14884,-0.23668,1.05164,-21.700001,-11.97,28.98,21.58
806911,0.179096,-0.259616,1.003328,-22.75,-10.57,28.629999,21.58
806923,0.20252,-0.349896,0.95404,-16.940001,-9.87,27.370001,21.56
806934,0.214232,-0.402112,0.914512,-8.96,-9.52,29.190001,21.56
806946,0.225456,-0.389424,0.959896,-4.83,-12.25,28.700001,21.57
806957,0.27328,-0.455792,0.981856,-2.45,-14.63,29.4,21.57
806968,0.331352,-0.518256,0.979904,2.31,-15.19,32.130001,21.57
806980,0.413336,-0.487024,0.967216,1.68,-13.37,34.790001,21.55
806992,0.482632,-0.46604,0.9516,-7.07,-11.2,36.119999,21.5
807003,0.542168,-0.49044,0.969656,-19.67,-11.69,35.139999,21.5
807014,0.590968,-0.623664,0.911584,-23.59,-5.53,35.84,21.56
807025,0.645136,-0.779824,0.828624,-16.66,-1.96,36.610001,21.56
807037,0.710528,-0.80764,0.752496,-10.01,1.26,37.380001,21.57
807049,0.757376,-0.822768,0.727608,-5.74,4.06,36.68,21.54
807060,0.789584,-0.840824,0.816424,-4.97,5.18,33.740002,21.54
807072,0.811544,-0.866688,0.887672,-3.85,9.24,31.01,21.57
807084,0.82472,-0.85156,0.889136,-6.3,12.11,29.82,21.5
807096,0.860344,-0.842776,0.826672,-13.44,17.01,27.16,21.5
807107,0.884744,-0.848144,0.778848,-23.940001,20.790001,23.870001,21.54
807119,0.873032,-0.781776,0.756888,-39.900002,26.459999,16.870001,21.54
807130,0.906216,-0.855952,0.732,-51.73,23.24,25.83,21.55
807141,0.88084,-0.84424,0.72224,-57.610001,25.690001,17.780001,21.58
807152,0.895968,-0.809104,0.684176,-75.32,33.529999,10.92,21.58
807164,0.845704,-0.903776,0.678808,-77.980003,34.09,-0.42,21.55
807175,0.871568,-0.942816,0.65636,-72.660004,47.389999,-12.46,21.55
807187,0.766648,-1.057496,0.625616,-56.349998,49.84,-29.82,21.58
807199,0.687592,-1.056032,0.61732,-35.91,51.240002,-67.550003,21.55
807210,0.626592,-1.04676,0.590968,-14.14,53.200001,-76.860001,21.55
807221,0.530456,-1.129232,0.584136,2.94,63.84,-106.610001,21.57
807233,0.31476,-1.238056,0.525576,25.48,63.700001,-145.600006,21.57
807244,0.142496,-1.250256,0.384544,39.759998,73.010002,-186.410004,21.54
807256,0.022936,-1.201456,0.370392,44.73,131.529999,-209.860001,21.56
807267,-0.460672,-1.13704,0.346968,61.459999,147.0,-266.769989,21.56
807278,-1.014064,-0.748592,0.40504,37.240002,150.009995,-308.350006,21.56
807290,-1.522072,-0.214232,0.705648,-50.889999,147.419998,-333.130005,21.54
807301,-1.938336,0.177144,1.112152,-200.059998,156.589996,-340.549988,21.54
807313,-2.312632,0.3172,1.44448,-300.720001,178.570007,-338.519989,21.54
807325,-2.534672,-0.052216,1.281976,-286.51001,199.429993,-313.670013,21.54
807337,-2.539064,-0.439688,1.212192,-108.220001,180.179993,-280.910004,21.54
807348,-2.248704,0.115656,2.1106,95.760002,90.720001,-204.679993,21.57
807360,-1.18584,1.253184,2.663504,220.149994,-56.77,-114.309998,21.57
807371,0.281088,1.82512,0.908168,265.369995,-70.489998,1.82,21.57
807383,0.395768,0.442128,0.093696,286.089996,-18.690001,70.279999,21.54
807394,-0.217648,0.235704,0.781776,294.48999,-54.389999,120.82,21.54
807406,-0.427488,0.407968,1.601128,166.949997,-72.940002,125.580002,21.55
807418,-0.576328,-0.134688,0.852048,-23.24,-48.509998,98.769997,21.55
807429,-0.153232,-1.439112,0.065392,-133.350006,31.780001,85.540001,21.6
807442,-0.264008,-1.7324,0.218624,-123.690002,27.58,9.66,21.57
807454,-0.37332,-1.343464,0.721752,-96.389999,26.18,-12.53,21.57
807466,0.020496,-0.655872,1.054568,-82.389999,21.84,-20.440001,21.57
807478,-0.020496,-0.727608,1.094584,-54.669998,18.76,-13.58,21.57
807490,-0.157624,-0.88084,1.1102,25.34,-4.97,-7.28,21.57
807502,-0.11956,-0.776896,1.091656,79.169998,-17.780001,2.8,21.56
807513,-0.101992,-0.50752,1.072624,88.690002,-31.5,6.51,21.54
807525,0.065392,-0.405528,0.962824,62.580002,-23.799999,6.44,21.54
807536,0.043432,-0.544608,0.860832,42.84,-15.33,2.8,21.57
807547,0.041968,-0.40748,0.83692,17.15,-4.69,-2.52,21.57
807559,0.044408,-0.360144,0.847656,-18.129999,-1.47,-2.52,21.53
807570,0.088328,-0.411384,0.899384,-46.41,6.44,-3.71,21.54
807582,0.0488,-0.55876,0.912072,-45.57,12.18,-5.53,21.54
807593,0.01952,-0.546072,0.971608,-28.42,7.14,-6.65,21.55
807604,0.030744,-0.543632,0.981856,-10.64,4.13,-8.33,21.55
807616,0.025376,-0.445544,0.969656,-2.31,1.96,-9.73,21.55
807627,0.01708,-0.450424,0.934032,2.87,0.98,-11.27,21.51
807638,0.001464,-0.462136,0.879376,14.84,-0.56,-13.3,21.51
807650,0.021472,-0.416264,0.877424,25.27,-2.94,-13.65,21.59
807662,0.067832,-0.244,0.9394,19.6,-2.17,-10.85,21.59
807673,0.092232,-0.176168,0.99796,-0.56,0.84,-4.13,21.55
807685,0.077592,-0.267424,0.955992,-17.08,3.29,1.26,21.54
807697,0.05124,-0.386984,0.913048,-17.92,4.34,2.59,21.54
807708,0.0366,-0.464088,0.908168,-6.79,4.27,0.07,21.55
807719,0.03904,-0.453352,0.923296,4.13,2.94,-2.52,21.54
807730,0.050264,-0.40504,0.97112,5.6,0.84,-2.94,21.54
807742,0.066368,-0.316712,0.992104,-3.08,0.21,-2.38,21.55
807753,0.063928,-0.328912,0.992592,-10.29,-0.49,-0.35,21.55
807765,0.061976,-0.392352,0.948184,-7.84,0.07,0.21,21.52
807776,0.04636,-0.401624,0.942816,-5.39,0.35,-0.49,21.53
807787,0.038552,-0.413336,0.95892,-1.33,-1.12,0.07,21.53
807799,0.055632,-0.407968,0.970144,1.68,-2.1,0.21,21.56
807811,0.06344,-0.419192,0.976976,5.39,-3.15,0.49,21.56
807822,0.061488,-0.363072,0.981368,5.81,-4.48,1.26,21.57
807833,0.06344,-0.399184,0.94428,6.79,-3.85,0.0,21.57
807845,0.054168,-0.450912,0.908168,12.18,-2.73,-2.94,21.57
807856,0.055144,-0.449936,0.892064,14.91,-2.17,-6.44,21.54
807868,0.055144,-0.375272,0.902312,10.22,-3.01,-7.42,21.52
807879,0.076128,-0.30744,0.941352,0.07,-2.17,-5.81,21.52
807891,0.079056,-0.285968,0.964776,-8.19,-1.26,-2.87,21.55
807902,0.08296,-0.34648,0.957944,-11.48,-0.63,0.35,21.55
807914,0.053192,-0.362584,0.968192,-6.3,-1.75,1.82,21.55
807926,0.052216,-0.37088,0.958432,0.56,-3.71,3.08,21.53
807937,0.049288,-0.406992,0.937936,6.44,-4.55,2.66,21.53
807948,0.056608,-0.391864,0.937936,11.9,-5.46,2.73,21.55
807960,0.062952,-0.367464,0.965264,13.23,-5.81,3.22,21.55
807971,0.062464,-0.330376,0.975024,8.75,-6.58,4.76,21.58
807984,0.067344,-0.33184,0.96624,0.42,-5.74,6.44,21.52
807998,0.05368,-0.379176,0.942328,-3.43,-4.55,6.51,21.57
808010,0.062464,-0.411872,0.947208,-1.19,-3.92,5.81,21.57
808022,0.073688,-0.433344,0.95892,2.8,-4.48,6.02,21.53
808034,0.070272,-0.4026,0.97844,3.01,-4.97,5.11,21.53
808046,0.055144,-0.377712,0.99552,0.77,-5.95,5.25,21.6
808057,0.057096,-0.403576,0.978928,3.57,-6.44,4.41,21.57
808069,0.050752,-0.428952,0.943304,9.38,-6.44,3.29,21.57
808081,0.049288,-0.442128,0.916464,15.19,-6.37,1.61,21.55
808092,0.064416,-0.427488,0.925736,18.27,-6.86,0.56,21.53
808104,0.088816,-0.352336,0.96868,10.29,-7.0,1.19,21.53
808115,0.089792,-0.32452,0.991616,-1.82,-5.95,3.36,21.54
808127,0.074176,-0.333792,0.996984,-6.79,-5.81,5.53,21.54
808139,0.070272,-0.428464,0.93208,-1.19,-4.83,4.41,21.56
808151,0.069784,-0.458232,0.884256,6.86,-4.06,1.96,21.52
808162,0.069296,-0.445544,0.908168,11.83,-3.57,-0.7,21.52
808174,0.062952,-0.40016,0.955016,11.55,-4.13,-2.52,21.55
808186,0.061488,-0.30988,0.97844,3.57,-4.62,-1.54,21.48
808198,0.06588,-0.325008,0.961848,-2.66,-4.27,0.56,21.48
808209,0.059536,-0.3416,0.941352,-3.08,-3.85,2.17,21.53
808222,0.044896,-0.37088,0.925736,1.54,-4.48,3.15,21.53
808233,0.05124,-0.38796,0.932568,8.89,-5.04,3.22,21.55
808245,0.055632,-0.422608,0.924272,16.73,-5.67,3.22,21.55
808256,0.06832,-0.388936,0.925736,20.440001,-6.37,2.73,21.55
808268,0.081984,-0.316712,0.943304,14.56,-6.72,3.85,21.56
808280,0.0976,-0.296216,0.972096,1.33,-4.76,5.74,21.53
808291,0.085888,-0.32696,0.976488,-8.47,-3.36,6.65,21.53
808303,0.06832,-0.354288,0.967704,-12.95,-2.52,6.58,21.56
808315,0.0488,-0.419192,0.959896,-8.33,-3.01,5.81,21.56
808328,0.03172,-0.447496,0.937936,2.24,-4.27,4.62,21.54
808339,0.034648,-0.477264,0.929152,14.35,-5.74,2.73,21.53
808351,0.044408,-0.43188,0.939888,20.370001,-6.86,1.47,21.53
808363,0.060512,-0.37332,0.969168,17.08,-7.0,2.45,21.53
808375,0.05612,-0.2806,0.979416,5.39,-6.79,4.97,21.56
808387,0.046848,-0.28304,0.969656,-7.0,-5.46,7.77,21.56
808398,0.022448,-0.328424,0.955504,-11.62,-5.18,9.87,21.52
808410,0.00244,-0.380152,0.948184,-8.05,-5.46,11.48,21.54
808422,-0.022448,-0.392352,0.942816,1.26,-8.47,12.6,21.54
808434,-0.030744,-0.370392,0.950136,7.7,-11.76,14.49,21.56
808446,-0.020496,-0.386984,0.959408,12.67,-13.79,16.52,21.56
808457,-0.02684,-0.392352,0.942328,17.15,-15.26,18.76,21.54
808469,-0.02928,-0.37088,0.903776,19.110001,-15.33,21.700001,21.52
808481,-0.065392,-0.322568,0.904264,17.5,-16.379999,24.709999,21.52
808493,-0.092232,-0.329888,0.909632,14.84,-17.360001,28.49,21.55
808504,-0.12688,-0.343552,0.911096,19.110001,-21.35,34.02,21.57
808516,-0.121512,-0.346968,0.906704,24.99,-25.549999,40.950001,21.57
808528,-0.125904,-0.333792,0.913536,34.16,-31.15,47.880001,21.56
808540,-0.0976,-0.298656,0.962336,35.91,-33.950001,52.57,21.48
808552,-0.127368,-0.303536,0.986736,32.48,-35.91,56.139999,21.48
808564,-0.135664,-0.2928,0.996984,26.110001,-33.18,59.009998,21.52
808576,-0.189832,-0.321104,0.99308,24.01,-33.110001,59.220001,21.52
808587,-0.232288,-0.332328,0.952088,25.059999,-35.07,59.709999,21.52
808599,-0.257664,-0.3294,0.9516,27.09,-38.220001,62.720001,21.52
808611,-0.288408,-0.336232,0.953552,30.309999,-44.240002,64.68,21.52
808622,-0.281088,-0.38308,0.93696,44.169998,-44.52,65.589996,21.56
808634,-0.332816,-0.325984,0.9394,63.77,-52.009998,69.089996,21.52
808646,-0.302072,-0.240096,0.938424,79.449997,-65.169998,73.080002,21.52
808657,-0.201544,-0.137128,0.941352,80.360001,-65.099998,76.300003,21.51
808669,-0.1098,-0.032208,0.96136,62.720001,-54.529999,79.940002,21.51
808681,-0.150792,0.045872,1.03456,40.110001,-48.23,84.0,21.59
808693,-0.184952,0.055144,1.041392,14.63,-43.330002,84.349998,21.54
808705,-0.20252,-0.079056,1.018944,3.08,-40.740002,85.260002,21.54
808717,-0.214232,-0.176168,0.99308,6.51,-42.84,80.849998,21.54
808729,-0.169824,-0.261568,0.940376,21.42,-41.93,76.580002,21.5
808741,-0.008784,-0.264496,0.913048,30.379999,-35.279999,80.919998,21.5
808752,0.079056,-0.214232,0.972584,31.639999,-27.51,81.970001,21.54
808764,0.106872,-0.133224,1.022848,26.389999,-19.530001,85.050003,21.59
808775,0.12932,-0.103456,1.129232,7.77,-13.93,79.940002,21.59
808787,0.041968,-0.10492,0.999424,-7.63,-14.28,79.870003,21.54
808799,-0.079544,-0.210328,1.016992,-11.62,-30.66,73.779999,21.54
808811,0.074176,-0.338672,0.903288,-0.84,-42.77,58.59,21.52
808822,0.265472,-0.452376,0.858392,15.54,-39.689999,49.349998,21.54
808834,0.412848,-0.44164,0.86864,30.030001,-31.360001,42.700001,21.54
808846,0.460184,-0.406016,0.932568,32.759998,-28.49,36.189999,21.57
808858,0.520696,-0.369416,0.987224,26.18,-22.33,29.959999,21.54
808869,0.541192,-0.358192,0.992104,13.65,-18.129999,23.52,21.54
808880,0.538264,-0.403576,0.91744,2.94,-18.83,18.620001,21.57
808892,0.650504,-0.478728,0.833016,0.21,-15.12,17.15,21.57
808903,0.71492,-0.515328,0.813984,-0.49,-9.94,14.63,21.59
808915,0.72712,-0.59536,0.894992,3.78,-3.99,14.42,21.54
808926,0.6832,-0.637328,0.97356,16.17,-2.94,12.67,21.54
808938,0.645136,-0.582672,1.001376,22.049999,-1.68,13.09,21.55
808950,0.623176,-0.545096,1.006744,22.82,-2.45,10.01,21.55
808961,0.620736,-0.516792,1.035536,19.18,-3.01,6.44,21.53
808973,0.592432,-0.450424,1.031632,7.77,-1.12,4.27,21.54
808985,0.534848,-0.411384,1.030168,-6.72,-0.91,1.19,21.54
808997,0.494832,-0.415288,1.028216,-20.02,-2.17,-1.47,21.52
809010,0.44164,-0.437736,1.011136,-28.07,-3.08,-3.08,21.53
809021,0.393328,-0.4758,0.975512,-25.200001,-4.41,-5.53,21.53
809033,0.366,-0.55388,0.960384,-7.98,-5.81,-11.06,21.54
809044,0.343064,-0.51972,0.943792,14.07,-6.58,-8.33,21.51
809056,0.305488,-0.46848,0.928176,31.01,-8.33,-9.45,21.51
809067,0.313784,-0.306952,0.908168,35.0,-8.4,-8.54,21.53
809079,0.28792,-0.211792,0.90036,19.74,-7.42,-7.49,21.53
809091,0.271816,-0.155184,0.908656,-2.03,-5.6,-6.51,21.57
809103,0.267424,-0.20252,0.913048,-19.110001,-2.52,-6.86,21.55
809115,0.243024,-0.274256,0.90036,-24.360001,0.56,-6.86,21.55
809127,0.210816,-0.313296,0.904752,-18.41,1.26,-7.7,21.56
809138,0.20008,-0.328424,0.90036,-9.87,0.35,-8.61,21.48
809150,0.214232,-0.314272,0.891576,1.19,0.0,-9.17,21.48
809162,0.21716,-0.284992,0.908168,7.63,0.49,-8.19,21.52
809173,0.215208,-0.26108,0.896456,9.94,2.45,-4.76,21.52
809184,0.197152,-0.22692,0.901336,6.37,3.57,-1.89,21.52
809196,0.20496,-0.182024,0.938912,0.49,5.11,-1.47,21.52
809208,0.164944,-0.161528,0.920856,-3.01,8.19,-0.49,21.52
809220,0.142496,-0.209352,0.905728,-4.06,8.61,0.0,21.54
809231,0.14884,-0.204472,0.885232,1.75,8.26,1.89,21.5
809243,0.129808,-0.22936,0.914512,1.61,6.79,2.24,21.5
809254,0.125904,-0.251808,1.047736,-1.82,2.17,2.1,21.49
809266,0.14152,-0.13908,1.135576,-0.35,-0.14,3.08,21.49
809277,0.137128,-0.223504,1.153144,-0.77,-1.54,5.32,21.55
809289,0.172752,-0.195688,1.069696,4.34,-0.28,6.09,21.5
809300,0.138104,-0.075152,1.020408,-2.03,-0.14,8.4,21.5
809312,0.118584,-0.137128,1.00284,-2.66,-3.85,7.91,21.55
809324,0.123952,-0.195688,1.101416,-11.62,-9.87,5.39,21.55
809336,0.206912,-0.224968,1.091168,-18.059999,-10.5,5.39,21.55
809348,0.245952,-0.176168,1.097024,-19.18,-9.17,5.04,21.53
809361,0.153232,-0.296704,1.05652,-5.6,-5.11,1.96,21.5
809372,0.057096,-0.416752,1.037,12.67,-7.63,0.07,21.5
809384,0.116632,-0.449936,1.026264,37.66,-13.51,0.84,21.53
809396,0.205448,-0.18788,1.079944,27.58,-17.57,2.87,21.53
809407,0.33184,-0.027816,1.038464,-0.98,-19.32,-2.03,21.56
809419,0.350384,-0.183976,0.930616,-21.91,-10.08,-9.59,21.55
809431,0.277184,-0.370392,0.613416,-25.549999,9.8,-15.75,21.55
809443,0.117608,-0.57584,0.392352,-3.36,23.309999,-11.48,21.53
809455,0.0,-0.476776,0.586088,34.23,19.25,3.85,21.51
809467,0.149816,-0.076616,0.954528,47.740002,13.58,11.69,21.51
809478,0.202032,-0.171776,1.05652,47.810001,13.37,3.22,21.57
809490,0.154696,-0.137616,1.0248,45.709999,19.110001,4.9,21.57
809501,0.140544,0.088328,1.064328,7.21,22.959999,0.84,21.52
809512,0.10492,-0.172264,1.088728,-22.26,24.01,-3.64,21.56
809524,0.077592,-0.27084,1.108248,-28.42,19.040001,-0.56,21.56
809535,0.09028,-0.30744,1.093608,-23.870001,13.72,-2.17,21.52
809548,0.085888,-0.406016,1.049688,2.94,9.1,17.5,21.52
809559,0.093208,-0.31476,1.04676,20.299999,5.6,0.0,21.52
809571,0.098576,-0.262056,1.050176,29.049999,3.01,-1.05,21.52
809582,0.114192,-0.128344,1.08092,19.6,0.84,0.56,21.52
809594,0.131272,-0.093208,1.089216,-0.14,0.0,-0.35,21.52
809606,0.128344,-0.169824,1.076528,-13.37,-0.56,-1.54,21.51
809617,0.133224,-0.252296,1.027728,-13.72,-0.42,-3.01,21.51
809629,0.121512,-0.291824,1.002352,-4.41,-1.89,-4.06,21.55
809641,0.12688,-0.311832,0.987712,8.33,-4.2,-3.01,21.56
809653,0.142496,-0.235216,0.992104,15.05,-5.11,-2.1,21.56
809665,0.15372,-0.218136,0.993568,15.05,-3.85,-1.89,21.54
809677,0.157136,-0.192272,0.99308,12.25,-2.03,-1.68,21.54
809689,0.150792,-0.149816,0.998448,3.29,-1.54,-1.19,21.54
809701,0.147864,-0.20984,0.998936,-3.36,-1.68,-1.12,21.47
809713,0.144936,-0.21472,0.992592,-5.81,-0.98,0.0,21.47
809724,0.145424,-0.197152,0.994056,-8.19,-0.28,-0.49,21.54
809736,0.14152,-0.25376,0.986248,-5.74,0.63,-0.35,21.48
809748,0.13664,-0.27084,0.990152,0.07,0.84,0.28,21.48
809760,0.138104,-0.26108,0.98576,5.88,0.7,1.12,21.51
809772,0.141032,-0.25376,0.98088,10.5,0.63,1.4,21.55
809783,0.130784,-0.196176,0.996496,8.19,0.28,1.26,21.55
809794,0.13176,-0.187392,1.01504,2.38,-0.28,0.28,21.57
809806,0.1342,-0.18788,1.014064,-2.87,-0.21,0.0,21.57
809817,0.1342,-0.18544,0.996984,-8.54,-0.21,-0.63,21.52
809829,0.132248,-0.226432,0.989664,-10.92,-0.77,-0.84,21.54
809841,0.130296,-0.262056,0.982344,-7.21,-1.68,-0.07,21.54
809853,0.130784,-0.250344,0.992104,-2.1,-2.38,0.56,21.52
809864,0.132248,-0.255712,1.000888,3.01,-3.15,0.21,21.52
809876,0.131272,-0.261568,0.984784,8.05,-2.94,-0.28,21.52
809888,0.132736,-0.239608,0.964776,11.69,-3.08,0.35,21.55
809899,0.133712,-0.194224,0.965752,10.43,-3.43,0.7,21.55
809911,0.144448,-0.181048,0.97356,6.72,-3.36,1.26,21.54
809922,0.145912,-0.177632,0.970144,1.89,-1.61,1.4,21.54
809934,0.138104,-0.20008,0.964776,-0.77,0.0,1.33,21.54
809946,0.133712,-0.202032,0.97356,-2.94,-0.07,1.75,21.55
809957,0.130296,-0.220088,0.987712,-4.55,-0.63,1.61,21.55
809969,0.128832,-0.25864,0.996008,-2.66,-1.05,1.54,21.53
809980,0.12688,-0.260592,1.004792,0.42,-1.4,0.98,21.51
809992,0.129808,-0.2684,1.003328,4.69,-1.26,0.7,21.51
810004,0.128344,-0.239608,0.995032,7.49,-0.98,1.12,21.57
810015,0.127368,-0.218624,0.973072,8.96,-0.42,1.4,21.52
810027,0.123952,-0.176168,0.979416,4.9,-0.35,1.26,21.52
810038,0.12444,-0.193248,1.000888,-1.33,-0.84,0.77,21.55
810050,0.125416,-0.203008,1.006256,-5.32,-0.98,0.42,21.55
810062,0.127856,-0.203008,1.008696,-9.31,-1.05,-0.14,21.55
810074,0.122976,-0.235704,1.01748,-10.71,-1.82,-0.56,21.52
810086,0.125416,-0.274256,1.014552,-6.37,-2.38,-0.77,21.52
810097,0.123952,-0.279136,1.005768,-1.54,-2.38,-0.63,21.5
810109,0.127856,-0.280112,0.985272,8.68,-2.59,-0.7,21.54
810121,0.123952,-0.25132,0.965264,14.42,-2.59,-0.07,21.54
810132,0.122976,-0.196664,0.988688,12.32,-3.29,-0.14,21.51
810144,0.12688,-0.160552,1.00528,5.46,-3.15,0.42,21.51
810155,0.135664,-0.134688,0.997472,-1.82,-2.38,0.42,21.52
810167,0.130784,-0.192272,0.994056,-8.89,-1.68,0.07,21.55
810179,0.127856,-0.22692,0.99064,-10.36,-1.82,0.49,21.55
810190,0.12932,-0.262056,0.980392,-7.77,-1.89,1.05,21.54
810201,0.116632,-0.2806,0.989176,-1.33,-2.45,1.12,21.51
810214,0.120536,-0.25864,1.004304,5.39,-3.01,1.26,21.51
810225,0.12932,-0.22692,1.001376,8.33,-3.08,1.26,21.54
810236,0.127368,-0.229848,0.99552,8.61,-2.52,0.91,21.54
810247,0.122488,-0.2196,0.985272,7.42,-2.17,0.63,21.55
810259,0.123952,-0.205936,0.976976,4.2,-2.17,0.56,21.48
810270,0.12444,-0.21716,0.979416,1.12,-2.24,0.63,21.48
810282,0.120536,-0.237168,0.977952,0.35,-1.96,0.21,21.49
810293,0.113704,-0.247904,0.976,1.47,-1.54,0.0,21.49
810305,0.11468,-0.239608,0.982344,1.96,-1.54,-0.07,21.52
810316,0.115168,-0.247904,0.991616,3.43,-1.75,-0.14,21.51
810327,0.11956,-0.237168,1.00284,4.34,-1.89,-0.7,21.51
810339,0.127856,-0.238144,0.996984,4.27,-1.96,-1.19,21.53
810351,0.12444,-0.220088,0.9882,3.85,-1.54,-1.26,21.51
810362,0.122488,-0.220576,0.983808,2.03,-1.26,-1.68,21.51
810374,0.122,-0.22204,0.992104,0.77,-1.12,-1.33,21.53
810386,0.121024,-0.224968,0.996496,0.35,-0.84,-1.4,21.53
810398,0.120536,-0.211792,0.99308,-1.26,-0.7,-1.26,21.5
810410,0.122,-0.225944,1.002352,-2.17,-1.12,-1.68,21.51
810421,0.126392,-0.242048,1.00528,-0.91,-1.26,-1.82,21.51
810433,0.128832,-0.24156,1.001864,1.19,-1.68,-1.68,21.52
810445,0.122,-0.233264,0.997472,3.08,-1.82,-1.33,21.52
810457,0.123952,-0.22448,0.997472,3.43,-2.17,-1.4,21.52
810468,0.120536,-0.213256,0.998448,3.43,-2.03,-1.54,21.53
810480,0.125416,-0.206912,0.989664,3.36,-2.1,-1.26,21.53
810493,0.130296,-0.192272,0.975512,2.59,-1.96,-1.47,21.54
810504,0.128344,-0.188856,0.98088,0.07,-2.1,-1.68,21.54
810516,0.131272,-0.212768,0.989664,-0.7,-1.89,-1.61,21.54
810527,0.125416,-0.21228,0.99308,-0.98,-1.75,-1.33,21.56
810539,0.121512,-0.223016,0.99796,-0.14,-1.96,-1.12,21.52
810550,0.123952,-0.219112,1.009184,1.05,-2.59,-0.84,21.52
810563,0.124928,-0.233752,0.99308,3.15,-2.59,-0.63,21.53
810576,0.127856,-0.223992,0.982344,4.48,-2.59,-0.56,21.48
810588,0.128832,-0.20496,0.9882,3.64,-2.59,-0.56,21.48
810599,0.132736,-0.20496,0.989664,2.73,-2.38,-0.42,21.54
810610,0.132248,-0.20008,0.986736,1.12,-1.82,0.14,21.54
810622,0.125416,-0.22448,0.989664,-0.35,-1.68,-0.14,21.5
810633,0.130784,-0.230336,0.998448,0.07,-1.82,-0.21,21.52
810645,0.133224,-0.23424,0.991616,0.42,-1.96,-0.7,21.52
810657,0.128344,-0.252784,0.989664,2.03,-1.82,-0.98,21.5
810668,0.131272,-0.23668,0.996008,3.22,-2.17,-0.91,21.51
810679,0.132248,-0.222528,1.000888,2.59,-2.1,-1.12,21.51
810691,0.131272,-0.230336,0.996008,2.73,-1.89,-0.77,21.51
810702,0.130784,-0.205448,0.994056,1.75,-1.75,-0.91,21.51
810713,0.12932,-0.196176,0.993568,-0.91,-1.54,-0.91,21.54
810725,0.128832,-0.20984,0.996496,-2.87,-1.33,-1.26,21.51
810737,0.123952,-0.232288,0.996496,-2.31,-1.54,-1.4,21.51
810748,0.129808,-0.235216,0.991128,-0.07,-1.54,-1.26,21.52
810760,0.128344,-0.220088,0.995032,1.61,-1.82,-1.05,21.52
810772,0.131272,-0.216672,1.001376,1.89,-2.03,-0.7,21.48
810783,0.13176,-0.213256,1.006744,1.19,-1.96,-0.35,21.54
810795,0.129808,-0.210328,1.004304,0.42,-1.68,-0.21,21.54
810807,0.127856,-0.210328,0.999912,-0.21,-1.75,-0.42,21.57
810818,0.12444,-0.209352,0.994056,-0.42,-1.89,-0.35,21.5
810830,0.121512,-0.214232,0.987712,-0.42,-1.68,-0.28,21.5
810841,0.120536,-0.213744,0.983808,-0.7,-1.47,-0.07,21.54
810852,0.12444,-0.213744,1.001376,-0.98,-1.61,0.07,21.54
810864,0.122976,-0.220576,1.004792,-1.05,-1.75,0.14,21.53
810875,0.125416,-0.228872,0.999424,-0.07,-1.82,0.35,21.51
810886,0.122,-0.231312,0.992104,1.19,-2.1,0.28,21.51
810898,0.122488,-0.22936,0.989664,2.38,-2.31,-0.07,21.51
810910,0.125416,-0.211792,0.980392,1.89,-2.1,-0.07,21.47
810922,0.122,-0.218136,0.982832,0.98,-1.96,-0.28,21.47
810933,0.118584,-0.21228,0.991128,0.56,-2.31,-0.42,21.51
810945,0.120536,-0.21228,0.982344,0.14,-2.31,-0.56,21.51
810956,0.11712,-0.214232,0.982344,-0.63,-2.1,-0.91,21.52
810968,0.11712,-0.225944,0.991616,-0.56,-2.31,-1.26,21.48
810980,0.121024,-0.220576,0.99552,-0.28,-2.17,-1.12,21.48
810991,0.119072,-0.221552,0.994544,0.49,-2.03,-0.77,21.53
811002,0.118584,-0.218624,0.989176,1.12,-1.54,-0.35,21.53
811014,0.11224,-0.220576,0.987224,1.75,-1.4,-0.28,21.51
811025,0.115656,-0.2196,0.988688,1.82,-1.19,0.07,21.54
811037,0.11956,-0.218136,0.991128,0.28,-1.26,-0.21,21.54
811049,0.116632,-0.235704,0.994544,-0.42,-1.26,-0.49,21.55
811060,0.122976,-0.233752,0.982344,0.07,-1.19,-0.35,21.55
811071,0.117608,-0.228384,0.992104,0.07,-0.84,-0.49,21.55
811084,0.115656,-0.22936,1.00284,-0.14,-1.33,-0.7,21.53
811096,0.114192,-0.228872,1.00528,-0.84,-1.61,-0.91,21.51
811108,0.115168,-0.237656,1.00528,-0.42,-1.75,-0.98,21.51
811119,0.11468,-0.24644,0.997472,1.96,-2.03,-1.33,21.48
811131,0.118096,-0.2318,0.988688,3.64,-2.31,-1.54,21.48
811143,0.118096,-0.207888,0.982344,1.96,-2.66,-1.61,21.55
811154,0.117608,-0.211304,0.990152,-0.63,-3.01,-1.33,21.55
811165,0.121512,-0.208864,0.996984,-1.68,-2.59,-1.47,21.55
811177,0.119072,-0.220576,0.99552,-2.73,-2.31,-1.61,21.49
811188,0.121024,-0.24156,0.98088,-0.84,-2.1,-1.61,21.49
811200,0.125416,-0.227896,0.979416,0.98,-2.38,-1.47,21.51
811212,0.128832,-0.218624,0.979416,1.33,-2.59,-0.84,21.51
811224,0.127856,-0.209352,0.982832,0.91,-2.45,-0.49,21.51
811235,0.130296,-0.207888,0.989664,-0.07,-1.75,-0.49,21.52
811246,0.124928,-0.221064,0.985272,-0.56,-0.98,-0.49,21.49
811258,0.122488,-0.230824,0.97844,0.63,-0.7,-0.21,21.49
811270,0.123464,-0.225944,0.971608,1.68,-0.63,0.14,21.56
811281,0.11712,-0.228384,0.983808,1.33,-1.33,0.07,21.56
811293,0.123952,-0.227408,0.998936,0.98,-1.89,-0.14,21.53
811304,0.125416,-0.222528,1.005768,0.0,-1.82,-0.42,21.47
811315,0.122,-0.221064,1.009672,-0.98,-1.54,-0.56,21.47
811327,0.118584,-0.234728,1.00528,-0.49,-1.75,-0.84,21.55
811338,0.120048,-0.235704,0.997472,0.91,-2.31,-0.91,21.55
811350,0.119072,-0.232288,0.9882,2.17,-2.8,-0.56,21.5
811362,0.11956,-0.226432,0.9882,2.52,-3.22,-0.63,21.52
811373,0.11956,-0.213744,0.993568,1.47,-3.36,-0.84,21.52
811385,0.119072,-0.21472,0.996496,0.28,-3.29,-1.12,21.5
811396,0.11712,-0.227408,0.994544,-0.42,-3.22,-0.77,21.52
811408,0.11712,-0.225456,1.00528,-0.91,-3.71,-0.49,21.52
811419,0.119072,-0.22204,1.00772,-1.12,-4.06,-0.21,21.5
811431,0.11956,-0.223016,0.99796,-0.21,-4.27,0.21,21.5
811442,0.121512,-0.215696,0.991128,0.0,-4.13,0.0,21.51
811453,0.124928,-0.214232,0.985272,-0.84,-3.5,-0.07,21.5
811465,0.11712,-0.230336,0.979904,-0.49,-2.94,-0.14,21.5
811477,0.118096,-0.230824,0.981856,1.05,-2.38,0.14,21.52
811489,0.116144,-0.22936,0.977952,2.31,-2.38,0.42,21.5
811501,0.122,-0.224968,0.98332,2.1,-2.8,0.49,21.5
811513,0.12444,-0.225456,0.982344,1.89,-2.45,0.49,21.56
811524,0.116144,-0.22448,0.98576,0.77,-2.52,0.21,21.56
811536,0.11712,-0.237656,0.991616,0.0,-2.73,-0.42,21.5
811548,0.121512,-0.241072,0.993568,0.56,-2.8,-0.42,21.52
811559,0.128344,-0.240096,0.987712,1.68,-2.94,-0.49,21.52
811571,0.127368,-0.230824,0.979416,2.66,-2.59,-0.7,21.55
811583,0.125904,-0.228384,0.971608,2.03,-2.45,-0.98,21.55
811594,0.124928,-0.22448,0.976,1.89,-2.24,-0.98,21.55
811605,0.127856,-0.221552,0.974536,2.17,-1.82,-1.05,21.55
811617,0.125416,-0.216184,0.976,1.75,-1.61,-1.19,21.55
811629,0.127856,-0.2196,0.982832,1.12,-1.12,-1.19,21.49
811640,0.125416,-0.219112,0.997472,1.05,-0.77,-0.77,21.51
811652,0.126392,-0.22204,1.00284,0.35,-0.49,-0.7,21.51
811663,0.122,-0.232776,0.994544,1.12,-0.07,-0.42,21.52
811675,0.116144,-0.228384,0.994544,2.38,-0.42,-0.49,21.55
811686,0.116144,-0.21716,0.994056,2.52,-0.56,-0.63,21.55
811697,0.113704,-0.220576,0.998936,2.17,-0.84,-0.63,21.52
811709,0.11468,-0.22204,1.002352,1.54,-0.98,-0.7,21.52
811720,0.11468,-0.213744,1.007232,0.98,-0.84,-0.49,21.52
811732,0.115656,-0.211304,1.009672,-0.21,-1.05,-0.42,21.48
811743,0.11224,-0.218136,1.008696,-1.33,-1.61,-0.14,21.48
811755,0.110776,-0.237656,1.012112,-1.19,-2.24,-0.35,21.53
811766,0.113704,-0.23912,1.006256,-0.42,-2.8,-0.49,21.53
811778,0.11956,-0.24156,1.0004,0.63,-2.59,-0.98,21.53
811789,0.11712,-0.249368,0.994056,2.59,-2.52,-1.26,21.5
811800,0.111752,-0.2318,0.996496,3.57,-2.87,-1.19,21.5
811811,0.118584,-0.216184,0.994056,2.87,-3.08,-0.91,21.52
811823,0.11712,-0.219112,0.995032,1.89,-3.43,-0.63,21.52
811835,0.118096,-0.212768,0.996496,0.49,-3.43,-0.7,21.51
811846,0.122488,-0.210328,0.994056,-1.12,-3.22,-0.98,21.52
811858,0.122488,-0.224968,0.991128,-1.82,-2.87,-1.19,21.52
811869,0.125416,-0.230824,0.991616,-1.05,-2.73,-1.12,21.49
811881,0.124928,-0.234728,0.986736,0.7,-2.45,-0.77,21.51
811892,0.125416,-0.229848,0.986736,2.24,-2.45,-0.28,21.51
811903,0.124928,-0.226432,0.989664,3.01,-2.17,0.0,21.49
811914,0.118584,-0.220576,0.989176,3.29,-2.31,0.14,21.49
811926,0.122,-0.211792,0.985272,3.15,-1.89,0.21,21.54
811937,0.11956,-0.20008,0.995032,1.05,-2.17,-0.14,21.48
811949,0.12688,-0.208864,0.992592,-0.56,-2.03,0.07,21.48
811960,0.121024,-0.213744,0.987712,-2.03,-1.96,0.14,21.5
811971,0.122,-0.227408,0.992592,-1.61,-2.03,0.28,21.5
811983,0.123464,-0.22692,0.997472,-0.98,-1.89,0.35,21.54
811994,0.121512,-0.233752,0.99796,-0.49,-2.03,0.35,21.5
812006,0.11956,-0.246928,0.996496,1.61,-2.31,0.42,21.5
812017,0.11956,-0.232288,0.999912,3.43,-2.73,0.63,21.54
812028,0.121024,-0.216184,0.994544,3.71,-2.94,0.42,21.54
812040,0.117608,-0.210816,0.994056,3.01,-2.87,0.49,21.53
812051,0.122976,-0.208864,0.989664,1.12,-2.59,0.42,21.52
812063,0.115168,-0.201544,0.998936,-1.54,-2.73,0.28,21.52
812074,0.114192,-0.22448,0.995032,-3.15,-2.52,0.07,21.48
812086,0.108336,-0.238144,0.992592,-2.17,-2.38,0.07,21.48
812097,0.101504,-0.226432,0.98332,-0.84,-2.52,0.56,21.48
812108,0.098576,-0.233752,0.991616,1.12,-2.73,0.91,21.5
812120,0.099552,-0.219112,1.00528,1.05,-3.01,1.4,21.5
812131,0.10248,-0.230824,1.009672,1.75,-3.36,1.33,21.56
812142,0.106872,-0.217648,1.001376,2.17,-3.01,1.33,21.52
812153,0.098088,-0.225456,0.977952,2.24,-1.82,1.05,21.52
812165,0.086864,-0.223016,0.979416,2.8,-1.96,1.33,21.5
812177,0.0854,-0.199592,0.971608,2.1,-1.61,1.47,21.5
812188,0.071248,-0.189344,0.97356,0.56,-1.82,1.96,21.52
812199,0.072712,-0.161528,0.987712,-1.47,-2.8,2.87,21.51
812210,0.079544,-0.140056,1.005768,-4.41,-3.01,3.43,21.51
812221,0.0732,-0.128344,1.01016,-8.12,-3.01,3.85,21.49
812233,0.064904,-0.12444,1.00528,-13.02,-3.5,4.34,21.49
812245,0.064416,-0.146888,0.991616,-15.05,-2.45,4.83,21.51
812257,0.04392,-0.1586,1.011136,-15.54,-3.92,5.6,21.5
812268,0.042944,-0.147864,1.031632,-17.709999,-5.39,5.74,21.5
812280,0.019032,-0.179584,1.092144,-22.75,-9.03,5.18,21.51
812291,0.010248,-0.24888,1.123864,-24.85,-12.81,4.97,21.53
812302,0.010736,-0.277672,1.126792,-18.76,-16.17,7.28,21.53
812314,0.025376,-0.165432,1.132648,-20.16,-21.209999,10.57,21.52
812325,0.064904,-0.074176,1.077504,-27.65,-21.0,12.74,21.52
812337,0.052216,-0.176168,1.056032,-29.610001,-20.65,12.11,21.52
812348,0.05856,-0.28548,1.008208,-23.940001,-18.620001,11.34,21.47
812360,0.06344,-0.289384,0.987224,-19.110001,-19.74,11.34,21.47
812371,0.094184,-0.297192,0.91256,-12.74,-17.01,10.99,21.5
812383,0.093696,-0.198128,0.91012,-8.96,-16.73,14.56,21.5
812394,0.086376,-0.11468,0.952576,-1.4,-17.01,17.99,21.53
812405,0.08296,-0.047824,1.04432,-7.49,-17.639999,23.379999,21.5
812417,0.101016,-0.020984,1.101416,-22.049999,-18.549999,28.280001,21.5
812428,0.12688,-0.115656,1.040416,-25.48,-13.72,31.219999,21.57
812440,0.085888,-0.235704,1.006256,-12.95,-9.66,38.57,21.52
812451,0.1098,-0.152744,0.964776,-17.360001,-9.24,46.060001,21.52
812463,0.1342,-0.06344,0.932568,-34.02,-7.91,49.279999,21.54
812474,0.145912,-0.349408,0.929152,-35.700001,-10.85,46.759998,21.54
812486,0.24644,-0.4636,0.942328,-14.28,-15.89,49.07,21.51
812497,0.314272,-0.411872,0.964288,-14.91,-13.79,50.049999,21.52
812509,0.3538,-0.479216,0.984784,-20.58,-8.82,49.139999,21.52
812521,0.376248,-0.606096,1.033584,-20.16,-6.58,49.91,21.55
812532,0.420656,-0.647088,0.967704,-10.71,-2.24,50.540001,21.55
812544,0.48556,-0.65148,0.933544,-11.2,1.19,48.580002,21.52
812555,0.522648,-0.78324,0.867176,-19.67,5.95,42.91,21.57
812567,0.537288,-0.914512,0.826672,-21.629999,5.32,41.439999,21.57
812578,0.612928,-0.909144,0.854976,-25.969999,6.37,46.549999,21.52
812590,0.656848,-0.93696,0.879864,-32.549999,9.87,42.07,21.5
812601,0.685152,-1.042856,0.909632,-34.790001,12.53,38.779999,21.5
812613,0.701256,-1.091168,0.937936,-36.470001,11.97,32.41,21.53
812624,0.734928,-1.081408,0.955504,-41.509998,12.11,27.16,21.53
812636,0.741272,-1.108248,0.934032,-47.740002,15.4,21.07,21.53
812647,0.740296,-1.120936,0.904752,-51.380001,17.219999,14.07,21.47
812659,0.75396,-1.077504,0.83936,-52.290001,20.16,6.93,21.47
812670,0.781776,-1.030168,0.759816,-54.32,26.110001,-2.66,21.49
812681,0.801784,-1.146312,0.56608,-49.349998,32.970001,-14.0,21.49
812693,0.781288,-1.076528,0.508984,-47.32,34.509998,-19.389999,21.54
812704,0.764208,-0.92476,0.518256,-54.459999,34.790001,-28.629999,21.48
812715,0.798368,-1.052128,0.554856,-62.16,43.189999,-40.25,21.48
812727,0.763232,-1.077992,0.59048,-60.759998,47.950001,-52.5,21.51
812739,0.709064,-1.00528,0.595848,-63.700001,59.849998,-70.980003,21.5
812750,0.60512,-1.109224,0.564616,-60.34,73.639999,-92.889999,21.5
812762,0.503128,-1.254648,0.530456,-42.84,90.93,-119.769997,21.53
812773,0.300608,-1.34932,0.45872,-4.69,101.150002,-157.919998,21.53
812785,0.142008,-1.325408,0.380152,25.83,116.760002,-192.639999,21.57
812796,-0.110776,-1.500112,0.277184,66.080002,125.580002,-238.979996,21.52
812808,-0.537288,-1.45668,0.144936,98.349998,120.68,-290.98999,21.52
812819,-0.902312,-1.05408,0.318176,95.339996,133.070007,-324.380005,21.51
812831,-1.332728,-0.403576,0.660752,39.48,148.470001,-363.649994,21.51
812842,-1.890024,0.012688,0.869616,-68.809998,169.050003,-386.890015,21.52
812855,-2.57664,0.41236,1.258552,-215.179993,195.649994,-385.420013,21.56
812867,-3.012912,0.609512,1.546472,-300.790009,196.139999,-360.01001,21.56
812879,-2.821616,-0.052216,1.550864,-212.869995,142.169998,-319.970001,21.53
812890,-2.132072,0.047336,2.907504,5.39,22.469999,-274.190002,21.52
812902,-0.562664,1.085312,2.487824,250.320007,-62.09,-163.589996,21.52
812914,0.471896,0.401624,-0.42456,487.410004,-40.25,-30.17,21.5
812926,0.241072,-0.100528,-0.557784,665.210022,-80.849998,59.849998,21.5
812937,0.091744,1.870016,1.111664,608.440002,-126.910004,119.559998,21.5
812948,0.006832,2.479528,2.371192,167.160004,-82.599998,119.279999,21.51
812960,-0.230824,0.700768,0.7564,-242.479996,-6.58,108.639999,21.51
812971,-0.142984,-1.542568,-0.210816,-336.769989,52.220001,67.830002,21.49
812984,-0.79056,-2.174528,0.001952,-251.160004,61.740002,-6.72,21.48
812996,-0.283528,-1.500112,0.64904,-121.449997,20.09,-4.97,21.48
813008,0.004392,-0.609512,1.109224,-61.389999,32.970001,-13.16,21.52
813019,-0.244,-0.552416,1.10288,-17.780001,-4.83,-9.31,21.51
813031,0.111264,-0.497272,1.051152,20.09,-3.64,-7.7,21.51
813042,-0.100528,-0.573888,1.208776,44.169998,-7.49,7.56,21.55
813054,-0.083448,-0.57584,1.132648,64.540001,-29.889999,14.56,21.55
813065,0.093696,-0.394792,0.969168,45.5,-22.68,8.05,21.55
813077,0.089304,-0.637328,0.85156,36.540001,-21.209999,6.72,21.5
813088,0.042944,-0.547536,0.84912,36.470001,-42.419998,-3.08,21.5
813099,0.152744,-0.330376,0.837408,14.14,-30.309999,-5.39,21.52
813111,0.260104,-0.226432,0.919392,-22.959999,5.39,-0.56,21.49
813123,0.169824,-0.35136,0.958432,-35.419998,5.39,1.05,21.49
813135,0.159088,-0.410408,0.977952,-31.780001,8.05,0.98,21.51
813146,0.124928,-0.486048,0.972584,-18.969999,7.35,1.33,21.51
813158,0.091744,-0.4636,0.9516,-8.19,2.66,-2.87,21.47
813169,0.127856,-0.471408,0.914024,3.15,3.71,-5.81,21.52
813181,0.083936,-0.467016,0.919392,16.66,2.17,-11.13,21.52
813192,0.07076,-0.371856,0.933544,22.469999,-2.94,-11.97,21.54
813204,0.109312,-0.236192,0.980392,15.96,-3.15,-11.62,21.54
813215,0.147376,-0.181048,0.998936,-3.92,0.7,-7.56,21.53
813227,0.16836,-0.259616,0.976,-15.89,3.22,-3.57,21.51
813239,0.1586,-0.291336,0.955992,-18.690001,2.31,-0.56,21.51
813250,0.15128,-0.342088,0.954528,-13.86,1.89,0.07,21.53
813262,0.142984,-0.352824,0.96136,-6.44,1.89,0.0,21.54
813274,0.138592,-0.358192,0.976,2.87,0.77,-0.28,21.54
813285,0.151768,-0.335744,1.004792,5.88,1.12,-0.91,21.53
813296,0.1342,-0.281576,1.03944,0.84,-0.21,-0.21,21.53
813308,0.139568,-0.271816,1.043344,-6.65,-3.15,1.26,21.54
813319,0.137128,-0.316712,1.015528,-7.84,-3.29,1.19,21.52
813331,0.132736,-0.362096,0.955992,-2.38,-3.15,0.84,21.52
813342,0.144936,-0.410408,0.920368,5.11,-1.96,-1.61,21.53
813354,0.133224,-0.353312,0.941352,9.31,-2.73,-1.75,21.53
813366,0.149328,-0.298656,0.979904,6.44,-3.22,-0.49,21.54
813377,0.138104,-0.285968,0.999912,2.38,-3.92,0.77,21.55
813389,0.132736,-0.274744,0.998448,-1.68,-4.83,1.96,21.55
813400,0.123952,-0.37332,0.971608,2.24,-5.32,1.33,21.54
813412,0.123952,-0.377224,0.957944,11.97,-6.23,-0.28,21.5
813423,0.124928,-0.365512,0.933056,17.99,-5.95,-2.17,21.5
813435,0.132248,-0.299632,0.960384,14.07,-6.93,-1.19,21.54
813447,0.141032,-0.255224,0.968192,6.37,-7.49,1.75,21.54
813459,0.1464,-0.238632,0.952576,-0.42,-7.14,5.11,21.53
813470,0.131272,-0.286944,0.926224,-4.55,-6.23,6.86,21.53
813481,0.12444,-0.3538,0.911584,-2.24,-5.11,6.16,21.53
813492,0.114192,-0.381616,0.899872,4.76,-4.76,3.71,21.53
813504,0.128344,-0.355264,0.907192,7.14,-4.83,3.29,21.52
813515,0.132736,-0.338184,0.938912,6.86,-4.55,3.36,21.52
813527,0.131272,-0.30988,0.948184,3.92,-4.41,4.41,21.51
813538,0.133224,-0.351848,0.935008,4.2,-3.78,4.34,21.51
813549,0.132248,-0.376736,0.91256,6.09,-1.89,2.66,21.54
813561,0.116632,-0.3904,0.915976,8.82,-1.96,-0.14,21.5
813573,0.130296,-0.35868,0.92964,8.12,-0.84,-0.98,21.5
813584,0.135664,-0.302072,0.948184,2.73,-1.54,0.07,21.53
813599,0.158112,-0.325496,0.957944,-1.96,-1.4,2.45,21.52
813611,0.14884,-0.32208,0.971608,-2.45,-1.05,2.73,21.52
813622,0.150304,-0.345016,0.99308,-3.78,-0.91,2.73,21.52
813633,0.1464,-0.357216,0.998448,-2.73,-1.47,2.52,21.52
813645,0.1464,-0.376248,0.98576,-0.49,-1.54,2.03,21.5
813657,0.134688,-0.359168,0.963312,1.68,-2.59,1.96,21.52
813668,0.127856,-0.329888,0.967704,1.75,-3.29,2.73,21.52
813679,0.127856,-0.324032,0.979904,0.21,-3.78,3.85,21.52
813691,0.125904,-0.301584,0.991128,-2.66,-3.85,5.6,21.46
813703,0.118584,-0.292312,0.990152,-7.7,-4.13,7.63,21.46
813714,0.110288,-0.356728,0.985272,-10.36,-3.57,8.33,21.57
813726,0.088328,-0.401624,0.984296,-6.16,-4.41,7.84,21.57
813738,0.076128,-0.41236,0.976488,3.29,-6.02,6.93,21.52
813749,0.073688,-0.381616,0.975024,10.15,-7.07,7.42,21.54
813761,0.059536,-0.321104,0.994056,11.69,-8.47,10.15,21.54
813772,0.050264,-0.25376,1.018944,5.46,-10.08,14.7,21.5
813784,0.033184,-0.260104,1.004792,-1.68,-11.69,18.9,21.52
813795,0.014152,-0.361608,0.977952,-0.28,-12.25,21.700001,21.52
813807,-0.011224,-0.407968,0.94916,8.61,-14.07,23.17,21.52
813818,-0.032208,-0.408944,0.918904,18.620001,-15.82,24.92,21.52
813830,-0.035624,-0.396744,0.920368,25.620001,-18.200001,27.370001,21.55
813842,-0.027816,-0.383568,0.941352,31.709999,-19.25,31.15,21.52
813854,-0.04148,-0.310368,0.94672,30.17,-21.49,36.400002,21.52
813865,-0.034648,-0.259616,0.947208,19.879999,-23.309999,44.099998,21.59
813877,-0.057584,-0.25132,0.942816,8.4,-23.73,50.75,21.46
813889,-0.10492,-0.278648,0.939888,1.47,-23.59,58.450001,21.46
813900,-0.140544,-0.327448,0.935496,3.36,-26.25,63.419998,21.54
813911,-0.146888,-0.372832,0.925248,12.53,-30.24,68.879997,21.54
813923,-0.155672,-0.357704,0.946232,22.4,-32.34,71.959999,21.5
813934,-0.199104,-0.31964,0.965752,23.17,-36.330002,74.410004,21.52
813946,-0.228384,-0.405528,0.984296,23.59,-40.040001,77.209999,21.52
813958,-0.21716,-0.449936,0.966728,34.650002,-40.529999,80.43,21.54
813969,-0.245952,-0.3538,0.947208,50.330002,-41.369999,81.690002,21.54
813981,-0.256688,-0.274744,0.9272,55.790001,-46.130001,83.860001,21.5
813992,-0.233264,-0.270352,0.9028,57.68,-49.419998,86.449997,21.53
814004,-0.191296,-0.196664,0.90524,60.900002,-51.869999,88.760002,21.53
814016,-0.147864,-0.130296,0.9028,53.900002,-46.759998,87.709999,21.53
814030,-0.159576,-0.140544,0.8906,50.049999,-41.16,86.589996,21.49
814042,-0.163968,-0.07076,0.914024,38.5,-41.09,85.610001,21.49
814055,-0.135176,-0.083448,0.91744,27.02,-38.080002,82.809998,21.51
814066,-0.06832,-0.14884,0.895968,20.370001,-29.75,82.389999,21.46
814078,-0.04636,-0.156648,0.88572,15.89,-24.85,84.139999,21.46
814090,-0.043432,-0.152256,0.918416,15.12,-23.66,83.860001,21.51
814101,-0.052216,-0.142496,0.957944,12.32,-26.389999,80.010002,21.5
814113,-0.038064,-0.200568,1.004792,10.92,-27.299999,75.529999,21.5
814125,-0.003416,-0.23424,1.0126,12.18,-28.35,71.889999,21.52
814136,0.05856,-0.232776,0.992104,12.32,-38.43,66.57,21.52
814148,0.155184,-0.19764,1.00284,3.43,-35.77,60.200001,21.55
814160,0.177144,-0.230336,0.99552,2.87,-34.720001,58.310001,21.52
814171,0.2318,-0.255712,0.981856,7.21,-39.27,54.599998,21.52
814183,0.370392,-0.332816,0.965264,7.35,-34.299999,48.790001,21.54
814195,0.42944,-0.38552,0.984784,13.86,-34.860001,43.959999,21.47
814206,0.458232,-0.413824,0.995032,15.61,-41.16,35.91,21.47
814218,0.551928,-0.462136,0.995032,16.1,-38.57,33.040001,21.5
814230,0.6466,-0.455792,0.962824,12.39,-34.299999,30.379999,21.5
814242,0.668072,-0.48312,0.921344,13.58,-33.599998,24.92,21.49
814254,0.76128,-0.50508,0.874008,14.35,-29.4,18.620001,21.52
814266,0.79056,-0.57584,0.845704,12.88,-22.68,12.74,21.52
814278,0.756888,-0.593896,0.881328,13.09,-20.790001,10.01,21.53
814289,0.733952,-0.591944,0.913536,13.65,-20.299999,8.26,21.52
814301,0.75396,-0.633424,0.896944,13.93,-13.3,13.51,21.52
814313,0.68808,-0.60024,0.88572,14.49,-8.89,8.4,21.5
814325,0.637328,-0.561688,0.896944,14.84,-10.78,4.13,21.47
814336,0.640256,-0.515328,0.891576,10.36,-11.34,-0.07,21.47
814348,0.611464,-0.464576,0.901336,0.07,-11.06,-1.47,21.5
814360,0.601704,-0.438712,0.912072,-12.81,-9.94,-0.7,21.5
814372,0.581208,-0.452864,0.89792,-22.889999,-6.44,-0.7,21.52
814384,0.532896,-0.494344,0.897432,-24.08,-3.5,-2.52,21.5
814396,0.479704,-0.536312,0.90768,-18.83,-2.31,-5.46,21.5
814408,0.447984,-0.561688,0.90036,-6.02,-2.45,-7.42,21.48
814420,0.42212,-0.520696,0.894992,10.01,-2.59,-8.89,21.49
814432,0.403088,-0.472872,0.889136,20.23,-2.73,-10.5,21.49
814443,0.386984,-0.391376,0.882792,22.959999,-2.94,-10.92,21.49
814456,0.382104,-0.303048,0.874008,16.940001,-2.17,-10.43,21.5
814467,0.365512,-0.223992,0.886208,2.31,-1.61,-9.8,21.5
814479,0.350384,-0.22204,0.887672,-10.99,0.0,-9.38,21.5
814490,0.330376,-0.26108,0.889624,-17.57,1.19,-9.17,21.5
814502,0.325984,-0.277672,0.889624,-16.66,2.31,-9.59,21.53
814513,0.32208,-0.318664,0.904264,-9.31,3.85,-10.5,21.51
814525,0.317688,-0.330376,0.910608,1.68,5.04,-9.87,21.51
814537,0.31232,-0.296704,0.914512,9.87,6.44,-9.66,21.53
814548,0.31476,-0.281088,0.892064,16.59,8.47,-8.96,21.53
814560,0.28792,-0.23424,0.881328,15.61,10.85,-8.26,21.51
814571,0.262056,-0.205936,0.8906,9.8,11.41,-5.95,21.56
814583,0.267912,-0.208376,0.898896,2.45,12.74,-3.92,21.56
814594,0.125904,-0.224968,0.908656,-3.57,13.23,-1.33,21.5
814606,0.235216,-0.255712,0.936472,-8.4,11.41,1.68,21.5
814618,0.242536,-0.269376,0.95892,-10.29,11.13,2.45,21.5
814629,0.237168,-0.286456,0.967704,-6.58,11.97,1.54,21.52
814641,0.189344,-0.313296,0.995032,-4.69,12.04,2.31,21.52
814653,0.172752,-0.276696,1.035048,-2.17,9.03,3.64,21.53
814664,0.210816,-0.206912,1.048712,-4.34,7.63,3.71,21.5
814676,0.206912,-0.243512,0.975024,-5.53,8.33,2.73,21.5
814687,0.20008,-0.228872,0.91988,-5.95,7.77,1.89,21.5
814699,0.21228,-0.206424,0.911096,-9.17,7.63,-0.84,21.5
814710,0.213256,-0.280112,0.897432,-13.93,8.33,-3.64,21.5
814722,0.203984,-0.299632,0.920368,-11.48,10.22,-5.11,21.52
814734,0.160064,-0.30012,0.970144,-6.02,9.87,-5.74,21.52
814745,0.163968,-0.245464,0.975512,-4.34,11.27,-6.72,21.48
814757,0.142008,-0.238632,0.98332,-11.41,10.78,-7.91,21.5
814768,0.138104,-0.324032,0.97844,-13.86,10.22,-7.77,21.5
814780,0.133712,-0.293776,0.973072,-10.36,8.89,-6.51,21.56
814792,0.13664,-0.225456,1.001376,-12.32,7.28,-6.86,21.52
814803,0.176168,-0.245464,0.98088,-13.65,7.14,-7.28,21.52
814814,0.159576,-0.29524,0.974536,-11.34,8.68,-8.05,21.52
814826,0.1708,-0.30256,0.969656,-6.37,8.82,-7.84,21.52
814837,0.154696,-0.28304,0.979416,-3.78,10.29,-7.98,21.47
814849,0.114192,-0.271328,0.977464,-3.78,9.1,-7.49,21.53
814861,0.103944,-0.233264,0.993568,-4.69,6.79,-6.16,21.53
814873,0.122,-0.250344,0.992592,-2.87,5.95,-6.37,21.54
814885,0.10248,-0.3294,0.99552,8.12,7.63,-6.65,21.48
814897,0.068808,-0.296216,1.124352,9.8,1.89,-4.41,21.48
814908,0.132248,-0.303536,1.164368,20.51,-2.59,-3.22,21.51
814920,0.194224,-0.3416,1.141432,37.939999,-4.76,-3.5,21.51
814932,0.24888,-0.075152,1.096048,28.209999,-5.88,-2.38,21.55
814943,0.272304,-0.066856,1.00284,0.91,-3.64,-6.16,21.53
814955,0.25132,-0.335744,0.855464,-10.92,4.41,-9.8,21.53
814967,0.140056,-0.359168,0.825696,-1.75,6.51,-7.84,21.53
814979,0.135664,-0.341112,0.840336,14.35,3.85,-3.78,21.46
814991,0.168848,-0.311344,0.892552,28.77,2.17,-2.1,21.46
815002,0.177144,-0.225456,0.972096,31.780001,0.35,-1.19,21.48
815014,0.192272,-0.181536,1.044808,26.809999,-0.28,-1.61,21.48
815025,0.213256,-0.194712,1.064328,19.25,1.26,-1.12,21.5
815037,0.189344,-0.20252,1.057496,11.41,2.1,-1.75,21.48
815049,0.177144,-0.223992,1.040904,3.15,1.68,-1.61,21.48
815060,0.179584,-0.293288,0.994544,3.29,1.54,-1.89,21.51
815072,0.174704,-0.284016,0.940864,10.78,1.12,-0.28,21.48
815084,0.169336,-0.22692,0.938424,13.16,-0.42,0.21,21.48
815096,0.181048,-0.195688,0.992592,6.72,-1.75,0.63,21.5
815107,0.183488,-0.186416,1.05164,-0.98,-2.8,1.05,21.5
815120,0.194712,-0.227896,1.068232,-6.72,-3.01,1.05,21.46
815131,0.182512,-0.254248,1.050664,-6.58,-2.87,0.63,21.54
815143,0.188368,-0.31232,1.005768,0.56,-3.01,0.42,21.54
815154,0.185928,-0.291336,0.951112,10.64,-3.08,0.91,21.48
815166,0.191784,-0.257176,0.905728,13.16,-2.17,0.07,21.5
815178,0.183488,-0.252784,0.925248,9.87,-2.03,-0.49,21.5
815189,0.190808,-0.228384,0.975024,7.35,-2.66,0.21,21.48
815201,0.198128,-0.17812,1.008208,0.0,-2.45,0.77,21.48
815212,0.194224,-0.225456,1.023824,-5.88,-1.96,0.49,21.5
815224,0.186416,-0.275232,1.00284,-4.2,-1.47,0.28,21.5
815236,0.18056,-0.29036,0.98088,0.7,-2.03,0.21,21.5
815248,0.183488,-0.27816,0.978928,4.55,-2.73,0.63,21.53
815259,0.187392,-0.252296,0.976488,6.51,-3.01,0.42,21.53
815271,0.183976,-0.24156,0.972096,7.42,-2.73,-0.21,21.53
815283,0.184464,-0.244976,0.945256,6.02,-1.75,-0.77,21.47
815294,0.176656,-0.260592,0.947208,6.93,-1.61,-0.63,21.47
815306,0.176656,-0.228384,0.976976,6.37,-2.31,-0.28,21.54
815318,0.183976,-0.2196,0.989176,3.99,-2.59,0.07,21.53
815330,0.183488,-0.230824,0.987224,1.96,-1.89,-0.21,21.53
815341,0.182024,-0.257176,0.973072,3.08,-1.33,-0.49,21.51
815353,0.179584,-0.25864,0.965264,5.74,-1.47,-0.77,21.47
815365,0.18056,-0.252296,0.961848,8.33,-1.89,-0.7,21.47
815377,0.179584,-0.211792,0.970632,8.05,-2.24,-0.21,21.52
815389,0.192272,-0.191296,0.974536,4.13,-1.75,-0.14,21.5
815401,0.18544,-0.193248,0.976976,0.35,-0.91,0.28,21.5
815413,0.176656,-0.218624,0.981368,-0.98,-0.14,0.7,21.49
815426,0.172264,-0.239608,0.986248,0.07,0.07,1.61,21.49
815437,0.167872,-0.246928,0.987224,2.31,-0.28,1.82,21.49
815449,0.164456,-0.245952,0.987224,5.11,-1.12,1.82,21.5
815461,0.174704,-0.228384,0.98576,4.83,-1.4,1.68,21.5
815472,0.171776,-0.243024,0.989176,3.01,-1.12,0.91,21.51
815484,0.171288,-0.248392,0.991128,2.87,-0.98,0.84,21.49
815496,0.16592,-0.239608,0.992592,2.38,-1.05,0.91,21.49
815507,0.162992,-0.264008,0.98576,3.36,-0.63,0.35,21.5
815519,0.157624,-0.245464,0.991616,4.9,-1.26,0.7,21.47
815530,0.160064,-0.223016,1.009672,2.52,-1.61,0.56,21.47
815542,0.165432,-0.248392,1.007232,1.75,-1.54,0.07,21.5
815553,0.160064,-0.255224,0.994544,3.15,-1.54,-0.49,21.5
815565,0.160064,-0.236192,0.986248,3.85,-1.4,-0.91,21.52
815577,0.16104,-0.23424,0.976,2.45,-1.4,-1.47,21.5
815589,0.156648,-0.240096,0.984296,0.84,-1.89,-2.1,21.5
815601,0.164456,-0.234728,0.996496,-0.84,-2.38,-2.31,21.49
815612,0.164456,-0.230824,1.000888,-2.17,-2.38,-2.45,21.55
815624,0.166896,-0.251808,1.00284,-1.19,-2.38,-2.73,21.55
815636,0.165432,-0.247904,0.998936,0.49,-2.59,-2.24,21.5
815648,0.16836,-0.245952,0.985272,3.92,-2.59,-1.4,21.5
815660,0.173728,-0.199592,0.982344,4.9,-2.66,-0.7,21.53
815672,0.184952,-0.203008,0.973072,2.52,-2.03,-1.12,21.49
815685,0.179584,-0.207888,0.977952,0.7,-1.89,-1.12,21.49
815698,0.185928,-0.211792,0.989664,-1.82,-2.03,-0.77,21.54
815710,0.188368,-0.22204,0.996984,-3.85,-2.31,-0.77,21.46
815722,0.18788,-0.235216,0.995032,-3.71,-2.73,-0.07,21.46
815734,0.19032,-0.232776,0.995032,-2.03,-3.08,0.28,21.5
815746,0.189832,-0.242048,0.992104,0.91,-3.22,0.28,21.5
815758,0.18544,-0.238632,0.983808,3.08,-2.87,0.14,21.5
815769,0.18056,-0.238144,0.975024,5.18,-3.01,0.35,21.49
815781,0.175192,-0.211792,0.973072,4.83,-3.36,0.91,21.48
815793,0.17812,-0.208864,0.975512,2.94,-3.29,1.12,21.48
815805,0.171776,-0.198128,0.981856,-0.77,-2.94,1.54,21.54
815816,0.160064,-0.218624,0.99064,-3.08,-2.94,2.1,21.54
815828,0.154208,-0.225456,0.979416,-2.66,-2.73,2.31,21.5
815840,0.145424,-0.216672,0.976488,-2.87,-2.66,2.66,21.47
815852,0.124928,-0.21716,0.975512,-2.1,-3.15,3.08,21.47
815863,0.112728,-0.221552,0.958432,-0.07,-2.59,3.99,21.5
815875,0.08052,-0.162504,0.965264,1.33,-4.13,5.95,21.51
815886,0.079056,-0.059048,0.962824,-4.62,-5.18,9.45,21.51
815898,0.065392,-0.0244,0.972096,-15.75,-6.51,11.48,21.51
815909,0.052216,-0.00732,0.9882,-26.879999,-7.49,13.72,21.51
815921,0.044408,-0.022936,1.054568,-40.32,-9.03,15.19,21.46
815933,0.029768,0.002928,1.172176,-61.25,-14.28,17.15,21.55
815944,0.015616,-0.142496,1.226832,-78.610001,-17.08,18.76,21.55
815956,-0.016104,-0.386008,1.224392,-66.43,-19.040001,20.16,21.53
815968,-0.0122,-0.31964,1.243912,-34.93,-23.940001,22.75,21.52
815979,-0.046848,0.069784,1.272216,-30.940001,-33.880001,33.110001,21.52
815991,-0.003416,0.129808,1.209752,-43.189999,-37.869999,40.32,21.5
816004,0.033672,0.005856,1.14192,-46.549999,-33.32,41.299999,21.5
816015,0.029768,-0.228872,0.98332,-29.469999,-25.76,40.389999,21.47
816027,0.038064,-0.381616,0.874496,4.2,-22.049999,42.560001,21.52
816038,0.079056,-0.32696,0.791536,35.98,-21.84,48.369999,21.52
816049,0.154208,-0.17324,0.775432,45.43,-21.629999,56.560001,21.49
816061,0.230824,-0.164456,0.830088,31.92,-22.82,62.720001,21.45
816072,0.385032,-0.230824,0.9028,8.05,-20.65,69.440002,21.45
816084,0.535824,-0.49532,0.88328,-7.35,-10.43,71.889999,21.51
816095,0.558272,-0.46604,0.93208,-26.950001,-4.48,73.080002,21.51
816107,0.576328,-0.435784,0.92476,-55.650002,-2.66,74.970001,21.53
816118,0.630008,-0.689056,0.903288,-73.57,-2.03,74.690002,21.47
816130,0.685152,-0.852536,0.913048,-77.559998,-3.08,73.360001,21.47
816142,0.786656,-1.035048,0.908656,-69.019997,-2.38,72.589996,21.48
816153,0.849608,-1.253184,0.855952,-46.830002,1.33,68.110001,21.48
816164,0.925736,-1.342976,0.776408,-27.16,2.87,65.730003,21.49
816176,0.995032,-1.362984,0.703208,-8.61,4.55,62.790001,21.54
816187,1.052128,-1.328336,0.711016,2.1,6.3,58.52,21.54
816199,1.10288,-1.292712,0.770064,4.48,8.47,51.939999,21.53
816210,1.12972,-1.285392,0.786656,-1.82,13.02,44.450001,21.5
816222,1.125816,-1.243424,0.751032,-16.24,19.389999,36.049999,21.5
816234,1.112152,-1.20048,0.708088,-34.09,25.41,27.58,21.51
816245,1.089704,-1.158512,0.666608,-57.049999,34.09,18.27,21.51
816256,1.049688,-1.198528,0.632936,-73.989998,43.959999,5.32,21.53
816268,1.019432,-1.136064,0.573888,-81.269997,52.290001,-16.73,21.47
816279,1.014064,-1.27856,0.492392,-77.910004,70.07,-35.700001,21.47
816291,0.937936,-1.32004,0.40992,-66.010002,82.18,-58.939999,21.51
816303,0.809104,-1.391288,0.341112,-49.0,92.400002,-92.540001,21.55
816314,0.645624,-1.439112,0.310856,-26.32,107.730003,-127.959999,21.55
816326,0.415776,-1.543544,0.21716,0.84,118.510002,-168.0,21.52
816337,0.006832,-1.472296,0.0,13.23,120.82,-215.25,21.52
816348,-0.277672,-1.296616,-0.032208,19.879999,125.790001,-255.990005,21.5
816360,-0.60268,-1.16144,0.193248,28.49,149.729996,-302.75,21.53
816372,-1.216584,-1.060424,0.431392,18.549999,187.740005,-373.170013,21.53
816383,-1.806576,-0.803248,0.621712,-51.099998,208.179993,-426.720001,21.51
816395,-2.821616,0.005368,1.1224,-176.259995,225.399994,-446.880005,21.51
816406,-3.704896,0.86864,1.585512,-304.640015,225.610001,-425.880005,21.51
816418,-3.765896,0.695888,1.818288,-330.470001,211.399994,-329.910004,21.48
816429,-2.94752,0.37088,2.045696,-90.370003,110.809998,-272.440002,21.48
816441,-1.408856,0.5124,2.672776,206.850006,-49.77,-208.320007,21.51
816452,0.171776,1.468392,0.51728,441.48999,-83.790001,-99.120003,21.52
816464,0.670024,0.798856,-0.372832,517.299988,-59.849998,85.82,21.52
816475,0.823744,1.393728,0.420656,445.339996,-33.459999,191.520004,21.54
816487,-0.843264,1.250744,2.57664,217.699997,-151.199997,159.880005,21.54
816498,-0.276696,0.448472,1.475712,-63.419998,-45.080002,129.149994,21.46
816510,-0.062464,-1.645536,-0.294264,-270.690002,32.200001,103.879997,21.51
816521,-0.27816,-2.831376,-0.40016,-176.330002,31.709999,20.440001,21.51
816533,-0.271816,-1.892952,0.259616,-45.5,22.889999,-17.360001,21.52
816545,-0.196176,-0.819352,0.930616,-5.67,9.73,-28.139999,21.52
816557,0.061976,-0.411384,0.974048,-22.889999,18.34,-21.209999,21.48
816569,0.003904,-0.72224,0.930128,3.92,15.05,-12.46,21.51
816581,0.010736,-0.72712,1.077016,46.830002,21.559999,-5.74,21.51
816592,-0.250344,-0.61244,1.2078,70.769997,-7.77,1.54,21.5
816603,-0.163968,-0.613416,1.120936,67.690002,-36.540001,-1.89,21.48
816615,0.015616,-0.550464,0.95648,54.599998,-28.98,-3.92,21.48
816626,0.049776,-0.599264,0.76372,47.810001,-14.0,-8.05,21.53
816638,0.079056,-0.504592,0.692472,45.709999,-5.32,-5.04,21.53
816649,0.144448,-0.36844,0.7564,28.42,5.32,-7.77,21.51
816660,0.11468,-0.284992,0.875472,-5.81,12.18,-2.8,21.48
816672,0.072712,-0.33184,0.92476,-38.150002,12.81,-0.56,21.48
816683,0.07808,-0.41724,0.946232,-59.639999,17.43,-0.84,21.51
816694,0.035624,-0.610976,0.947208,-49.279999,20.09,-1.26,21.48
816706,0.024888,-0.537776,1.002352,-28.629999,15.82,-3.85,21.48
816717,0.020496,-0.518256,1.01748,-10.57,7.14,-5.25,21.5
816729,0.035624,-0.572424,0.97112,11.2,5.18,-7.77,21.5
816740,0.035624,-0.5124,0.955016,30.799999,2.38,-11.34,21.54
816752,0.04636,-0.44652,0.973072,36.959999,2.03,-11.83,21.48
816764,0.034648,-0.280112,1.004792,28.98,0.07,-9.94,21.48
816775,0.04392,-0.221552,1.023336,6.44,-0.84,-4.34,21.5
816787,0.0366,-0.244976,1.033584,-9.66,-0.77,2.66,21.5
816799,0.04636,-0.239608,1.013576,-23.799999,-0.35,10.71,21.49
816810,0.040016,-0.306952,0.994056,-32.41,0.07,19.389999,21.51
816821,-0.020984,-0.288896,1.016016,-27.790001,-5.18,25.129999,21.51
816833,-0.020496,-0.338184,1.021384,-22.120001,-9.38,28.49,21.53
816844,-0.062952,-0.44896,1.011136,-5.6,-14.14,29.049999,21.48
816856,-0.033184,-0.455792,0.969168,8.68,-20.719999,29.26,21.48
816867,0.007808,-0.504592,0.95892,21.280001,-23.66,26.950001,21.53
816879,0.010736,-0.455304,0.989664,26.25,-26.74,25.76,21.53
816890,0.00244,-0.38552,1.025776,25.83,-27.93,26.6,21.47
816902,-0.018544,-0.303048,1.070672,23.17,-29.75,28.84,21.49
816913,-0.060512,-0.277672,1.043344,19.530001,-29.33,32.549999,21.49
816925,-0.11956,-0.319152,0.969168,22.469999,-31.360001,38.009998,21.49
816936,-0.141032,-0.291336,0.893528,32.759998,-37.450001,45.009998,21.49
816948,-0.122,-0.257176,0.850584,42.84,-41.93,51.240002,21.51
816959,-0.102968,-0.206424,0.869128,46.830002,-43.049999,56.98,21.48
816971,-0.152256,-0.092232,0.934032,41.509998,-44.66,62.720001,21.48
816983,-0.181536,-0.103944,0.967216,32.759998,-46.27,67.480003,21.56
816995,-0.234728,-0.17812,0.981368,26.879999,-45.360001,71.190002,21.51
817006,-0.269864,-0.240096,0.969656,33.389999,-48.23,75.459999,21.51
817018,-0.225456,-0.29524,0.941352,45.43,-54.389999,77.349998,21.5
817029,-0.182512,-0.264984,0.960384,55.439999,-54.740002,78.050003,21.5
817042,-0.266448,-0.144936,1.025776,58.73,-53.759998,81.199997,21.46
817054,-0.304024,-0.088816,1.001864,50.610001,-51.310001,86.099998,21.49
817065,-0.35624,-0.040504,0.96136,46.200001,-56.139999,91.910004,21.49
817077,-0.308416,-0.049288,0.914024,38.009998,-61.389999,94.080002,21.5
817088,-0.246928,-0.121512,0.89792,34.650002,-59.57,92.260002,21.5
817099,-0.205448,-0.175192,0.906704,34.299999,-59.709999,90.230003,21.5
817110,-0.169336,-0.19276,0.967216,38.919998,-63.77,87.360001,21.53
817122,-0.089792,-0.115168,0.93696,35.98,-64.68,84.980003,21.53
817134,0.045872,-0.065392,0.83448,28.139999,-61.880001,80.43,21.48
817145,0.15372,-0.161528,0.806664,15.12,-58.869999,72.309998,21.41
817157,0.277184,-0.306952,0.813496,11.97,-53.060001,69.650002,21.41
817168,0.427976,-0.433832,0.867664,17.15,-48.860001,65.870003,21.49
817180,0.487512,-0.448472,0.914024,27.65,-47.880001,54.040001,21.49
817191,0.623664,-0.48312,0.901824,30.1,-41.299999,46.900002,21.52
817202,0.740296,-0.515328,0.835456,29.049999,-33.669998,35.07,21.49
817213,0.806664,-0.547536,0.774944,32.830002,-31.290001,26.74,21.49
817225,0.897432,-0.595848,0.755912,39.27,-29.540001,28.77,21.53
817237,0.955016,-0.547536,0.798368,41.23,-23.309999,23.030001,21.48
817248,0.97112,-0.501664,0.872544,36.82,-16.450001,18.129999,21.48
817259,0.94916,-0.472384,0.886208,30.379999,-12.04,13.44,21.53
817270,0.923296,-0.454816,0.88328,18.969999,-7.91,11.55,21.53
817282,0.892064,-0.48312,0.882792,8.19,-3.71,10.78,21.49
817293,0.8296,-0.498736,0.882792,1.68,0.77,11.34,21.47
817305,0.780312,-0.528992,0.899872,-2.38,3.08,12.25,21.47
817316,0.720776,-0.557296,0.931592,0.0,3.92,12.81,21.49
817329,0.623176,-0.545584,0.945256,5.32,2.17,11.69,21.45
817340,0.573888,-0.532896,0.956968,8.05,1.4,9.59,21.45
817352,0.514352,-0.49044,0.964288,6.79,0.63,7.14,21.49
817363,0.467504,-0.464576,0.97356,1.68,-0.07,6.02,21.49
817375,0.433344,-0.471408,0.957944,-1.89,0.35,4.13,21.5
817387,0.391864,-0.445056,0.912072,-0.42,1.61,2.17,21.45
817398,0.37576,-0.40992,0.874008,0.56,-0.28,0.0,21.45
817409,0.37332,-0.4026,0.869616,0.49,-0.56,-1.19,21.49
817420,0.35868,-0.384544,0.884744,0.91,-0.63,-1.68,21.49
817432,0.349408,-0.345504,0.885232,0.49,0.7,-3.15,21.5
817443,0.32696,-0.299144,0.906704,-2.38,1.4,-4.27,21.5
817454,0.313296,-0.29036,0.94428,-5.39,1.61,-5.11,21.5
817465,0.30256,-0.309392,0.967216,-6.23,1.96,-5.67,21.5
817476,0.281576,-0.320616,0.974048,-3.01,1.82,-6.65,21.5
817488,0.28548,-0.311832,0.976,1.89,1.4,-7.21,21.5
817499,0.27572,-0.29524,0.976,6.79,2.24,-6.86,21.42
817510,0.27084,-0.271328,0.964288,9.87,1.89,-6.44,21.42
817522,0.26108,-0.225944,0.977464,11.13,2.8,-4.83,21.47
817534,0.25864,-0.203496,0.99796,9.1,2.73,-3.36,21.47
817545,0.252784,-0.205448,1.014064,6.23,2.52,-1.68,21.5
817556,0.244,-0.216672,1.036024,3.29,1.61,-0.77,21.53
817568,0.257664,-0.213256,1.045784,2.73,0.7,-0.14,21.53
817579,0.250344,-0.218624,1.01504,1.26,1.05,0.07,21.52
817591,0.239608,-0.248392,0.986248,0.0,1.12,0.49,21.46
817602,0.235704,-0.257176,0.97112,1.68,1.68,0.91,21.46
817614,0.225944,-0.24888,0.9394,2.31,1.4,1.19,21.45
817625,0.220088,-0.26108,0.928176,2.31,1.82,1.4,21.45
817636,0.209352,-0.270352,0.933544,2.8,2.24,2.45,21.49
817647,0.20496,-0.232288,0.936472,1.96,0.91,3.22,21.51
817659,0.22448,-0.170312,0.935008,-3.22,0.0,3.78,21.51
817670,0.249368,-0.172264,0.940376,-9.45,-0.07,3.57,21.48
817681,0.242536,-0.189832,0.9638,-13.23,0.49,3.64,21.48
817692,0.233264,-0.228384,0.975512,-13.72,1.47,3.29,21.51
817704,0.21472,-0.264008,0.979416,-9.87,2.59,3.29,21.44
817715,0.205448,-0.279136,0.960384,-1.33,2.45,2.45,21.44
817727,0.19032,-0.269864,0.955504,-0.91,1.75,2.38,21.47
817739,0.187392,-0.287432,0.975024,-1.26,0.0,1.75,21.47
817750,0.194712,-0.272304,0.98576,-0.63,-0.21,1.89,21.48
817761,0.206912,-0.284504,0.960384,-0.35,0.14,1.68,21.43
817773,0.210816,-0.256688,0.953552,0.0,-0.35,1.75,21.43
817784,0.223992,-0.230824,0.95892,0.56,-0.35,1.19,21.51
817796,0.232776,-0.216672,0.968192,-0.07,0.21,-0.07,21.46
817807,0.220576,-0.234728,0.974536,-1.4,0.7,-0.42,21.46
817818,0.250832,-0.251808,0.95648,-2.45,1.05,-1.19,21.49
817829,0.237168,-0.286944,0.969656,-0.35,3.22,-2.73,21.49
817840,0.196664,-0.290848,0.982832,1.82,2.45,-3.15,21.48
817852,0.21228,-0.311344,0.97844,3.22,1.33,-2.8,21.45
817864,0.214232,-0.30012,0.980392,3.43,0.14,-2.66,21.45
817876,0.223016,-0.281088,0.982832,2.73,-0.7,-1.4,21.42
817887,0.230336,-0.2318,0.982832,1.12,0.35,-0.7,21.42
817899,0.22692,-0.226432,0.96868,1.19,0.98,-0.35,21.44
817910,0.218136,-0.238144,0.962336,2.1,0.84,-0.49,21.52
817922,0.2318,-0.234728,0.955504,1.05,1.05,0.14,21.52
817933,0.210328,-0.255712,0.949648,-2.38,0.98,0.28,21.45
817948,0.223992,-0.294752,0.941352,-2.24,0.21,1.47,21.49
817960,0.210328,-0.266936,0.936472,-1.54,0.91,1.75,21.49
817971,0.203496,-0.260104,0.945256,-2.31,-0.14,2.17,21.49
817982,0.226432,-0.2928,0.959896,0.84,0.42,2.24,21.49
817993,0.207888,-0.2928,0.96868,7.35,0.28,1.61,21.5
818005,0.213256,-0.270352,0.986736,6.09,-1.75,1.47,21.48
818016,0.231312,-0.243512,0.999424,2.52,-1.61,1.61,21.48
818028,0.240584,-0.278648,1.013088,0.0,-1.33,1.19,21.45
818040,0.239608,-0.291336,1.005768,0.35,-0.77,0.49,21.45
818052,0.22692,-0.29036,0.98332,2.8,-0.35,-0.14,21.45
818063,0.215208,-0.28548,0.967216,6.86,-1.89,0.63,21.52
818074,0.21472,-0.25132,0.950624,7.63,-2.87,0.35,21.52
818086,0.227896,-0.249856,0.927688,4.41,-1.96,0.77,21.48
818098,0.244976,-0.23424,0.926712,0.28,0.28,1.68,21.51
818110,0.234728,-0.238144,0.9394,-1.96,1.05,1.47,21.51
818121,0.229848,-0.267424,0.967704,-3.57,1.12,0.98,21.48
818133,0.228872,-0.26108,0.99552,-5.39,0.84,0.91,21.45
818145,0.218624,-0.276208,1.018456,-6.02,0.07,0.49,21.45
818156,0.22448,-0.303536,1.004304,0.35,-0.98,0.07,21.46
818168,0.211792,-0.279136,0.987224,6.51,-1.89,-0.7,21.46
818179,0.216672,-0.244976,0.960872,9.87,-1.68,-0.49,21.48
818191,0.218624,-0.238144,0.943792,4.83,-1.12,0.14,21.46
818203,0.224968,-0.23668,0.957944,0.28,-0.42,0.7,21.46
818214,0.227408,-0.271816,0.964776,-1.26,0.56,0.56,21.47
818226,0.213256,-0.264008,0.973072,-2.45,0.28,0.35,21.48
818237,0.212768,-0.278648,0.972096,-3.57,0.14,0.63,21.48
818249,0.208864,-0.276208,0.958432,-3.08,0.7,0.21,21.48
818261,0.207888,-0.292312,0.942816,1.47,1.47,-0.56,21.48
818273,0.204472,-0.293288,0.923296,9.52,1.96,-0.98,21.52
818284,0.206912,-0.269864,0.905728,10.78,3.08,-1.19,21.46
818296,0.201056,-0.246928,0.914512,7.21,3.78,-0.77,21.46
818307,0.198128,-0.245952,0.938912,1.61,3.85,-0.7,21.5
818319,0.198128,-0.25376,0.966728,-3.92,4.34,-0.77,21.41
818330,0.189832,-0.264008,0.993568,-6.72,3.92,-0.91,21.41
818342,0.196664,-0.292312,0.990152,-2.17,3.99,-1.4,21.45
818354,0.187392,-0.316712,0.977952,3.78,4.2,-3.01,21.45
818366,0.17568,-0.290848,0.969168,9.66,3.08,-3.64,21.47
818377,0.18544,-0.26108,0.968192,10.78,2.03,-3.22,21.46
818389,0.197152,-0.21472,0.980392,4.9,1.82,-2.52,21.46
818400,0.198616,-0.215696,0.998936,-1.4,1.96,-2.1,21.45
818412,0.193736,-0.249856,1.0004,-2.45,2.45,-2.31,21.42
818423,0.183,-0.259128,0.989176,-0.14,1.89,-2.38,21.42
818435,0.17812,-0.26352,0.958432,3.29,1.96,-1.82,21.46
818446,0.17568,-0.254736,0.945256,5.32,1.54,-1.75,21.46
818457,0.181048,-0.24888,0.971608,6.23,1.26,-1.47,21.49
818469,0.18788,-0.244976,1.008208,5.67,0.98,-1.68,21.47
818481,0.193736,-0.219112,1.02724,2.59,0.07,-1.19,21.47
818493,0.193736,-0.213256,1.037,-2.59,-0.7,-0.84,21.45
818505,0.191296,-0.243512,1.035048,-5.18,-1.54,-0.56,21.45
818516,0.186904,-0.277184,1.018944,-2.52,-2.24,-0.63,21.45
818528,0.186416,-0.276696,0.98576,2.87,-2.73,-0.77,21.47
818540,0.1952,-0.262544,0.953552,6.23,-2.38,-0.35,21.47
818552,0.192272,-0.244976,0.941352,6.65,-2.17,0.35,21.48
818563,0.190808,-0.229848,0.95404,3.85,-2.03,0.84,21.45
818575,0.199104,-0.225456,0.979904,-0.14,-2.1,0.7,21.45
818587,0.200568,-0.237656,1.008208,-3.15,-2.38,0.7,21.5
818598,0.199104,-0.276208,1.01016,-3.64,-2.73,0.21,21.48
818610,0.198128,-0.299632,1.012112,-1.61,-2.8,-0.35,21.48
818621,0.194712,-0.28548,0.87596,-0.28,-3.43,-0.28,21.47
818633,0.19764,-0.2928,0.97844,2.52,-3.29,-0.63,21.47
818645,0.1952,-0.278648,0.9638,5.67,-3.15,-0.98,21.45
818656,0.195688,-0.241072,0.943792,6.16,-3.01,-0.63,21.45
818668,0.198616,-0.221552,0.935496,3.43,-3.15,-0.14,21.45
818680,0.206424,-0.223016,0.953552,-1.12,-2.52,0.42,21.5
818692,0.201544,-0.243024,0.964288,-3.78,-1.96,0.77,21.47
818703,0.20252,-0.261568,0.973072,-3.85,-1.61,0.91,21.47
818715,0.199592,-0.267912,0.976488,-2.17,-1.33,0.49,21.48
818727,0.197152,-0.277672,0.96868,0.77,-1.54,0.14,21.48
818739,0.199592,-0.284016,0.967216,3.5,-2.03,-0.35,21.45
818751,0.202032,-0.267424,0.962824,5.04,-2.17,-0.35,21.46
818763,0.205448,-0.264984,0.945256,7.56,-0.84,-0.91,21.46
818774,0.198128,-0.223016,0.935984,6.16,0.42,-0.14,21.48
818786,0.186904,-0.224968,0.943304,2.1,0.7,0.91,21.44
818797,0.185928,-0.234728,0.96136,-1.12,0.84,1.75,21.44
818808,0.189832,-0.249856,0.969168,-1.75,0.84,2.03,21.45
818820,0.190808,-0.247904,0.98088,-1.89,0.84,1.89,21.45
818831,0.195688,-0.260104,0.993568,-1.75,0.63,1.54,21.49
818842,0.190808,-0.281088,0.992104,0.0,0.63,1.12,21.43
818854,0.182024,-0.27084,0.987712,2.38,0.28,0.91,21.43
818866,0.179096,-0.279624,0.978928,3.29,-0.28,0.98,21.48
818877,0.181048,-0.267424,0.976,4.62,-0.7,0.0,21.48
818889,0.185928,-0.25132,0.979416,4.69,-1.4,0.0,21.48
818900,0.18788,-0.239608,0.98332,2.38,-1.61,0.07,21.48
818912,0.189344,-0.242048,0.982832,-0.07,-1.75,0.07,21.48
818923,0.184464,-0.247904,0.986736,-1.61,-1.68,0.14,21.46
818935,0.182512,-0.262544,0.986248,-0.63,-2.1,-0.07,21.46
818948,0.180072,-0.266936,0.981368,0.56,-2.52,-0.07,21.46
818959,0.182024,-0.272304,0.98332,1.26,-2.87,-0.56,21.44
818971,0.188856,-0.27084,0.986248,2.31,-3.01,-1.05,21.47
818983,0.187392,-0.254736,0.980392,2.45,-3.15,-1.19,21.47
818995,0.191296,-0.249856,0.977952,1.54,-2.94,-1.05,21.46
819006,0.19032,-0.243024,0.979904,0.63,-2.31,-0.7,21.46
819018,0.191296,-0.247416,0.970144,-0.28,-1.54,-0.21,21.47
819030,0.19032,-0.262056,0.955016,1.05,-0.77,-0.07,21.46
819042,0.185928,-0.253272,0.945256,2.38,-0.56,0.07,21.46
819054,0.188368,-0.247416,0.952088,1.26,-0.35,0.42,21.48
819065,0.19032,-0.252296,0.974048,-0.07,-0.28,0.35,21.48
819077,0.188856,-0.243024,0.99308,-1.75,-0.28,0.14,21.48
819089,0.186904,-0.258152,1.005768,-3.57,-0.49,0.07,21.48
819101,0.182512,-0.27572,0.99796,-3.22,-0.77,-0.07,21.48
819112,0.178608,-0.281088,0.976,-0.07,-0.91,-0.14,21.45
819124,0.178608,-0.27816,0.972584,3.01,-1.68,-0.49,21.47
819136,0.183488,-0.256688,0.972584,5.25,-2.03,-0.63,21.47
819148,0.187392,-0.240584,0.9638,4.83,-2.1,-0.28,21.46
819160,0.188368,-0.223992,0.962824,2.31,-1.82,0.35,21.41
819171,0.184952,-0.22692,0.96624,-0.84,-1.68,0.77,21.41
819183,0.185928,-0.242536,0.969168,-2.31,-1.68,0.77,21.47
819195,0.186416,-0.260592,0.973072,-2.17,-1.61,0.42,21.47
819207,0.187392,-0.276696,0.969656,-0.14,-1.75,0.07,21.45
819219,0.184952,-0.272304,0.9638,2.31,-2.1,-0.21,21.43
819230,0.18788,-0.265472,0.958432,3.5,-2.24,-0.63,21.43
819242,0.187392,-0.257176,0.962824,4.06,-1.82,-0.63,21.43
819253,0.185928,-0.237168,0.96624,2.8,-1.47,-0.21,21.43
819265,0.184952,-0.227896,0.963312,0.84,-1.19,0.28,21.43
819277,0.183976,-0.22936,0.967216,-1.05,-1.12,1.05,21.5
819288,0.182512,-0.25132,0.972584,-1.33,-1.05,1.05,21.5
819300,0.181536,-0.248392,0.970144,-2.1,-1.26,1.19,21.44
819312,0.183488,-0.258152,0.975512,-3.08,-1.19,1.19,21.45
819324,0.186904,-0.276208,0.979416,-2.03,-1.05,0.91,21.45
819335,0.183488,-0.275232,0.984784,0.84,-1.19,0.63,21.48
819346,0.184952,-0.2806,0.99064,2.8,-1.47,0.49,21.46
819359,0.186416,-0.27816,0.994544,4.62,-1.61,0.0,21.46
819370,0.18788,-0.270352,0.99308,5.67,-1.82,-0.14,21.5
819382,0.184952,-0.251808,0.982344,5.67,-1.89,-0.14,21.5
819394,0.181536,-0.232776,0.972584,3.64,-1.75,0.28,21.39
819405,0.179096,-0.231312,0.975024,0.63,-1.61,0.77,21.46
819417,0.176168,-0.237656,0.983808,-1.61,-1.68,1.12,21.46
819428,0.173728,-0.252784,0.999424,-2.8,-2.03,1.54,21.47
819440,0.179584,-0.274256,1.001864,-1.75,-2.38,0.98,21.43
819452,0.174216,-0.286456,0.994056,1.4,-2.59,0.49,21.43
819463,0.177632,-0.283528,0.985272,4.48,-2.87,0.0,21.48
819475,0.172752,-0.271328,0.979416,6.16,-3.22,-0.21,21.48
819487,0.17324,-0.260592,0.97356,6.37,-3.15,-0.63,21.49
819499,0.171776,-0.228384,0.976,4.13,-3.15,-0.28,21.44
819510,0.174216,-0.223016,0.978928,0.35,-3.08,0.42,21.44
819523,0.173728,-0.240584,0.982832,-2.1,-3.22,0.77,21.44
819535,0.181048,-0.263032,0.978928,-2.17,-3.29,0.77,21.48
819547,0.183976,-0.271328,0.978928,-0.42,-3.43,0.56,21.48
819559,0.181536,-0.274256,0.979416,0.7,-3.29,0.35,21.46
819570,0.179096,-0.275232,0.972096,3.01,-2.87,-0.07,21.45
819582,0.177632,-0.261568,0.964288,4.2,-2.73,-0.28,21.45
819594,0.179584,-0.252296,0.963312,3.36,-2.59,-0.07,21.45
819606,0.181048,-0.257176,0.974048,3.22,-2.45,-0.28,21.45
819618,0.179096,-0.250344,0.96868,3.22,-2.45,-0.28,21.44
819629,0.17812,-0.236192,0.961848,2.45,-2.38,-0.35,21.43
819641,0.183,-0.241072,0.967216,1.05,-1.96,-0.21,21.43
819653,0.178608,-0.250344,0.975512,0.63,-1.54,-0.21,21.48
819664,0.177144,-0.247904,0.97844,-0.35,-1.54,-0.14,21.48
819676,0.177144,-0.252296,0.983808,-1.33,-1.96,0.0,21.48
819688,0.17568,-0.268888,0.98332,-0.21,-2.17,-0.42,21.48
819699,0.169824,-0.26108,0.973072,1.54,-2.31,-0.56,21.51
819711,0.171776,-0.259616,0.967216,2.8,-2.38,-0.35,21.51
819723,0.17324,-0.250832,0.969656,3.29,-2.03,-0.35,21.48
819735,0.174216,-0.238632,0.972584,2.66,-1.82,-0.21,21.48
819746,0.17568,-0.231312,0.977952,1.4,-1.75,0.14,21.45
819758,0.176168,-0.242536,0.97844,0.35,-1.47,0.07,21.45
819770,0.169824,-0.252784,0.97844,-0.28,-1.68,0.14,21.45
819781,0.172264,-0.276696,0.976488,0.77,-1.54,-0.14,21.46
819793,0.170312,-0.272792,0.977952,2.03,-1.89,-0.49,21.45
819805,0.175192,-0.265472,0.978928,3.43,-2.24,-0.84,21.45
819816,0.17812,-0.24888,0.976976,3.5,-2.24,-1.19,21.46
819828,0.17812,-0.243024,0.976488,2.73,-2.1,-1.26,21.46
819840,0.177144,-0.239608,0.976,1.26,-1.89,-1.05,21.52
819852,0.176168,-0.252296,0.968192,1.26,-1.82,-0.84,21.46
819864,0.174216,-0.245952,0.972096,0.91,-1.68,-0.7,21.46
819875,0.177144,-0.25376,0.98088,0.63,-1.96,-0.42,21.48
819887,0.18056,-0.257176,0.984296,1.75,-1.96,-0.56,21.42
819898,0.181536,-0.249856,0.98332,2.1,-2.1,-0.56,21.42
819910,0.177632,-0.252296,0.981368,1.82,-2.03,-0.63,21.48
819922,0.174216,-0.25376,0.97844,2.31,-1.4,-0.7,21.48
819934,0.171776,-0.244,0.976,2.52,-1.4,-0.42,21.45
819945,0.166896,-0.243024,0.976976,2.59,-1.54,-0.14,21.45
819957,0.167872,-0.23912,0.973072,2.87,-1.4,0.0,21.45
819969,0.167384,-0.251808,0.97356,3.22,-1.12,0.14,21.47
819981,0.159088,-0.237656,0.979904,2.8,-1.12,0.49,21.46
819992,0.157136,-0.233752,0.986736,2.03,-0.91,0.98,21.46
820004,0.146888,-0.236192,0.98332,1.96,-0.98,1.26,21.52
820016,0.135176,-0.227896,0.9638,3.22,-0.7,2.03,21.52
820027,0.112728,-0.231312,0.930616,6.3,-0.7,3.99,21.43
820038,0.105408,-0.18788,0.942816,9.8,-2.73,7.56,21.51
820052,0.143472,-0.069296,0.961848,0.63,-2.59,10.36,21.51
820063,0.127368,-0.046848,1.013576,-12.53,-3.78,11.9,21.44
820075,0.123464,-0.096136,1.018456,-19.32,-1.47,11.48,21.47
820087,0.056608,-0.210816,1.095072,-21.91,-2.94,9.45,21.47
820098,0.036112,-0.261568,1.192672,-25.41,-7.56,9.38,21.43
820110,0.046848,-0.340136,1.225368,-27.23,-12.32,10.57,21.46
820121,0.061488,-0.301584,1.181936,-27.51,-15.61,11.9,21.46
820133,0.071736,-0.233752,1.170712,-29.82,-21.98,14.42,21.49
820145,0.119072,-0.20252,1.097512,-33.389999,-22.959999,16.030001,21.49
820157,0.12688,-0.281576,1.034072,-38.150002,-19.67,17.639999,21.49
820168,0.074176,-0.277184,1.040416,-37.169998,-20.440001,20.93,21.44
820179,0.098088,-0.174704,1.009672,-18.27,-19.32,25.41,21.44
820191,0.10004,0.031232,0.986736,-3.5,-18.129999,26.110001,21.48
820203,0.061976,-0.059536,0.997472,0.7,-17.780001,25.48,21.48
820214,0.101504,-0.290848,0.965752,6.02,-14.49,25.34,21.46
820225,0.133712,-0.337208,0.935984,16.17,-13.58,28.559999,21.45
820237,0.192272,-0.22692,0.920368,14.63,-14.56,32.549999,21.45
820248,0.240096,-0.249368,0.882792,-3.36,-11.06,36.119999,21.49
820260,0.2562,-0.282064,0.886696,-14.28,-7.07,38.849998,21.43
820272,0.272792,-0.271816,0.918416,-17.5,-9.45,38.919998,21.43
820283,0.31476,-0.2806,0.899872,-12.67,-7.77,40.740002,21.46
820295,0.394792,-0.433344,0.892552,-8.19,-3.57,38.43,21.46
820306,0.46116,-0.462136,0.865712,-10.08,4.62,38.150002,21.45
820318,0.493856,-0.5734,0.823256,-12.18,10.85,38.709999,21.43
820329,0.521672,-0.608048,0.814472,-12.95,12.74,41.439999,21.43
820340,0.555344,-0.612928,0.816912,-18.059999,11.55,42.91,21.47
820352,0.610976,-0.678808,0.864248,-22.049999,9.73,43.82,21.47
820363,0.671,-0.743224,0.911584,-21.77,10.01,41.509998,21.43
820375,0.711504,-0.814472,0.925248,-18.129999,12.18,39.130001,21.45
820386,0.743224,-0.844728,0.937448,-14.42,12.74,37.450001,21.45
820397,0.765672,-0.855464,0.929152,-13.93,12.04,35.630001,21.46
820409,0.804712,-0.885232,0.915976,-14.21,10.36,33.040001,21.47
820420,0.834968,-0.920856,0.894992,-15.12,11.2,30.24,21.47
820432,0.875472,-0.976,0.827648,-12.04,12.25,25.969999,21.43
820443,0.898896,-0.953552,0.779336,-14.21,15.68,22.120001,21.43
820454,0.911584,-0.905728,0.794952,-19.32,18.200001,16.73,21.41
820465,0.943304,-0.898408,0.77104,-28.700001,25.059999,10.08,21.46
820477,0.93452,-0.915,0.715896,-40.040001,29.75,2.38,21.46
820488,0.894504,-1.0126,0.672952,-42.419998,36.68,-8.26,21.43
820500,0.861808,-1.032608,0.622688,-40.880001,41.650002,-28.77,21.43
820511,0.870104,-1.174128,0.56364,-35.349998,52.57,-44.869999,21.47
820523,0.830088,-1.243424,0.54412,-28.139999,56.490002,-65.379997,21.4
820534,0.750056,-1.110688,0.570472,-29.049999,64.889999,-93.940002,21.4
820546,0.610488,-1.040416,0.604144,-45.919998,82.949997,-125.440002,21.5
820557,0.400648,-1.145336,0.58316,-49.91,99.540001,-156.520004,21.5
820568,0.114192,-1.282464,0.429928,-42.630001,121.589996,-194.110001,21.43
820580,-0.148352,-1.415688,0.270352,-32.759998,129.289993,-227.570007,21.42
820592,-0.73688,-1.3298,0.242536,-20.16,120.610001,-277.059998,21.42
820603,-0.994056,-1.021384,0.409432,-21.35,156.589996,-318.220001,21.47
820615,-1.673352,-0.464088,0.749568,-100.029999,159.389999,-361.970001,21.46
820626,-2.033008,-0.08784,1.211216,-192.5,189.0,-355.390015,21.46
820638,-2.5742,0.116632,1.479616,-238.350006,205.240005,-329.209991,21.44
820650,-2.653744,-0.189344,1.16144,-195.020004,211.399994,-328.089996,21.44
820662,-2.405352,-0.714432,0.684664,2.45,203.910004,-318.779999,21.45
820673,-2.364848,0.11468,1.57624,208.039993,102.830002,-263.899994,21.44
820685,-1.745576,2.204296,2.960696,302.190002,-104.790001,-155.820007,21.44
820696,0.30012,2.79868,1.157536,249.339996,-122.639999,21.559999,21.48
820708,0.594384,0.738832,0.090768,164.429993,-57.82,129.360001,21.47
820719,-0.061976,-0.32208,0.638792,216.369995,-67.410004,123.339996,21.47
820730,-0.18544,-0.158112,1.362984,145.949997,-33.529999,122.220001,21.5
820741,-0.600728,-0.376736,1.173152,-7.28,-17.43,81.480003,21.5
820753,-0.202032,-1.204872,0.482632,-112.769997,7.07,49.349998,21.53
820764,-0.02196,-1.541592,0.372832,-124.32,29.68,6.51,21.46
820776,-0.083936,-1.243912,0.66612,-102.410004,33.459999,-20.299999,21.46
820787,-0.015616,-0.8174,1.013088,-71.889999,26.6,-27.860001,21.46
820799,0.001952,-0.484584,1.189256,-42.560001,4.76,-16.66,21.46
820811,0.057584,-0.607072,1.15168,4.83,-4.62,-2.87,21.46
820822,-0.071248,-0.55632,1.079944,54.110001,-20.93,8.82,21.46
820834,-0.086376,-0.596824,0.999912,81.760002,-30.799999,3.22,21.46
820846,0.010248,-0.38796,0.887672,77.629997,-17.99,7.07,21.5
820857,0.121512,-0.361608,0.81984,43.68,-26.18,4.55,21.46
820869,0.11956,-0.368928,0.809104,8.26,-15.33,-1.61,21.46
820880,0.11712,-0.329888,0.822768,-24.99,-1.19,-0.77,21.47
820892,0.111264,-0.317688,0.874984,-47.810001,10.08,-0.21,21.47
820904,0.084424,-0.35136,0.921344,-50.470001,8.05,4.69,21.45
820915,0.113216,-0.440176,0.91256,-38.849998,9.59,6.79,21.44
820926,0.05856,-0.472384,0.925248,-18.200001,3.08,6.93,21.44
820937,0.08052,-0.514352,0.957944,0.07,-0.49,4.83,21.46
820949,0.08784,-0.49776,0.948184,11.9,-3.22,1.54,21.46
