timestamp_ms,ax,ay,az,gx,gy,gz,tempC
7540596,0.088816,0.322568,1.093608,-2.870000,-32.060001,5.320000,21.77
7540608,0.098576,0.302560,1.087752,-1.050000,-32.900002,6.790000,21.77
7540619,0.107848,0.307928,1.050176,3.220000,-32.830002,8.820000,21.80
7540630,0.108824,0.397232,1.016504,4.830000,-32.970001,11.200000,21.80
7540641,0.121024,0.450424,1.008208,-1.400000,-33.040001,14.070000,21.83
7540652,0.134200,0.440176,1.021872,-12.040000,-33.110001,17.080000,21.81
7540664,0.143472,0.397232,1.037000,-20.230000,-34.160000,18.760000,21.81
7540674,0.165920,0.361120,1.059936,-29.959999,-35.209999,20.370001,21.83
7540685,0.190808,0.297192,1.061400,-35.419998,-36.540001,19.740000,21.83
7540696,0.205936,0.250344,1.046760,-33.669998,-37.730000,19.040001,21.78
7540708,0.222528,0.234728,0.987224,-26.320000,-38.709999,17.360001,21.83
7540719,0.242048,0.287432,0.930616,-14.140000,-38.009998,16.170000,21.83
7540730,0.260592,0.371856,0.876448,-11.480000,-37.169998,17.430000,21.82
7540741,0.267912,0.433344,0.858880,-17.920000,-36.189999,19.320000,21.82
7540752,0.313784,0.367952,0.843264,-22.540001,-33.250000,19.110001,21.81
7540763,0.345504,0.313296,0.840824,-24.150000,-31.360001,18.620001,21.82
7540774,0.360144,0.294752,0.848144,-26.740000,-30.240000,17.780001,21.82
7540785,0.398696,0.246928,0.851072,-28.910000,-28.070000,16.730000,21.83
7540796,0.441152,0.189832,0.854976,-28.420000,-25.480000,14.770000,21.83
7540807,0.452376,0.167872,0.873032,-25.129999,-24.709999,13.230000,21.81
7540818,0.471896,0.184464,0.892552,-20.230000,-23.240000,11.550000,21.81
7540829,0.497272,0.211792,0.896944,-19.459999,-22.610001,8.890000,21.81
7540840,0.526064,0.195688,0.888160,-18.969999,-21.350000,7.070000,21.78
7540851,0.553392,0.183976,0.884744,-17.990000,-20.230000,5.180000,21.78
7540862,0.587552,0.181048,0.867176,-17.290001,-18.690001,2.100000,21.78
7540873,0.610000,0.183976,0.839848,-19.670000,-17.010000,0.490000,21.78
7540884,0.624152,0.186416,0.832040,-26.530001,-15.540000,-1.610000,21.84
7540895,0.647088,0.165432,0.824232,-31.150000,-13.020000,-3.360000,21.77
7540906,0.664656,0.158600,0.818864,-31.990000,-11.130000,-4.830000,21.77
7540917,0.676368,0.181536,0.840824,-36.049999,-10.430000,-5.740000,21.81
7540928,0.692960,0.156160,0.877424,-42.279999,-9.450000,-7.910000,21.81
7540939,0.714920,0.100528,0.908168,-45.919998,-8.260000,-10.010000,21.81
7540950,0.718824,0.068320,0.934032,-48.509998,-7.420000,-13.090000,21.76
7540961,0.710528,0.032208,0.958432,-46.200001,-7.420000,-17.780001,21.76
7540972,0.705648,0.000000,0.964288,-38.990002,-6.860000,-21.559999,21.82
7540983,0.711504,-0.032208,0.961848,-31.780001,-5.600000,-26.670000,21.82
7540994,0.711504,-0.013176,0.934032,-22.889999,-4.480000,-31.639999,21.83
7541006,0.707600,0.027816,0.900360,-20.299999,-4.130000,-35.209999,21.83
7541017,0.714432,0.114192,0.869616,-30.100000,-2.380000,-36.959999,21.83
7541028,0.720288,0.127368,0.828624,-43.750000,1.750000,-41.020000,21.83
7541038,0.734928,-0.015616,0.727608,-47.740002,8.540000,-48.230000,21.83
7541050,0.688568,-0.060024,0.699792,-44.660000,16.660000,-53.410000,21.82
7541061,0.618784,-0.018544,0.722728,-38.430000,22.680000,-58.099998,21.79
7541072,0.557296,0.059536,0.758352,-37.869999,27.230000,-62.230000,21.79
7541083,0.523136,0.070272,0.784704,-38.570000,31.430000,-65.169998,21.78
7541094,0.481656,0.050752,0.837896,-39.689999,35.209999,-70.209999,21.78
7541105,0.428952,0.050752,0.995520,-42.770000,39.549999,-75.040001,21.76
7541116,0.375272,0.020008,0.895968,-46.549999,42.700001,-81.339996,21.76
7541127,0.324520,-0.020008,0.887184,-45.990002,45.639999,-89.040001,21.81
7541138,0.265960,-0.039040,0.836432,-42.209999,49.000000,-97.650002,21.78
7541149,0.219112,-0.048800,0.787144,-38.779999,55.299999,-104.510002,21.78
7541160,0.149816,-0.069296,0.729560,-31.850000,62.860001,-114.029999,21.81
7541171,0.074664,-0.032696,0.703696,-27.930000,69.370003,-123.410004,21.81
7541182,-0.032696,-0.026840,0.725168,-25.620001,75.669998,-130.130005,21.81
7541194,-0.143472,-0.028304,0.763720,-26.879999,80.430000,-136.080002,21.77
7541205,-0.277672,-0.006832,0.817400,-25.760000,84.349998,-140.070007,21.77
7541216,-0.394792,0.051728,0.869128,-28.209999,84.559998,-140.070007,21.79
7541227,-0.461160,0.096136,0.912560,-28.910000,83.790001,-135.309998,21.79
7541238,-0.480680,0.117608,0.924760,-29.469999,83.370003,-129.710007,21.82
7541249,-0.483120,0.129808,0.955992,-24.219999,79.940002,-118.089996,21.79
7541261,-0.486048,0.166408,1.061888,-16.730000,70.910004,-99.190002,21.79
7541272,-0.448960,0.286944,1.171200,-8.820000,55.299999,-77.559998,21.84
7541283,-0.410896,0.320128,1.281000,-4.270000,41.090000,-51.730000,21.84
7541294,-0.332816,0.300608,1.249280,1.680000,23.450001,-29.959999,21.84
7541305,-0.253272,0.201544,1.147288,4.340000,10.080000,-3.850000,21.81
7541316,-0.228872,0.129320,1.041392,6.930000,-0.840000,18.129999,21.81
7541327,-0.228872,0.080520,1.009672,16.799999,-7.350000,35.700001,21.82
7541338,-0.234240,0.048800,1.025776,31.219999,-15.120000,45.360001,21.82
7541349,-0.236680,0.048312,1.068720,39.830002,-24.430000,54.040001,21.81
7541360,-0.199104,0.056120,1.096048,45.779999,-29.049999,58.450001,21.79
7541371,-0.182024,0.042456,1.118008,47.810001,-33.459999,59.849998,21.79
7541382,-0.186904,0.036112,1.131672,51.660000,-38.290001,61.389999,21.80
7541393,-0.195200,0.109800,1.158512,48.160000,-45.009998,66.500000,21.80
7541404,-0.223504,0.185440,1.154120,35.560001,-49.139999,74.059998,21.78
7541415,-0.251808,0.202032,1.142408,23.730000,-53.759998,80.849998,21.81
7541426,-0.214232,0.225944,1.116544,14.700000,-57.959999,88.620003,21.81
7541437,-0.183000,0.233264,1.095560,1.330000,-57.750000,94.360001,21.74
7541448,-0.182512,0.217648,1.088728,-9.870000,-57.959999,97.230003,21.74
7541459,-0.191296,0.197640,1.081408,-15.120000,-57.540001,99.120003,21.80
7541470,-0.207400,0.152744,1.044808,-13.860000,-58.240002,100.449997,21.80
7541481,-0.169336,0.117120,0.979416,-9.310000,-59.150002,102.620003,21.79
7541493,-0.064904,0.059536,0.920856,-4.690000,-57.189999,100.940002,21.78
7541503,0.027328,0.049288,0.899872,-2.380000,-55.720001,99.400002,21.78
7541514,0.078080,0.031720,0.899384,0.420000,-52.919998,95.550003,21.80
7541525,0.117608,0.044408,0.902800,3.010000,-49.910000,93.029999,21.80
7541536,0.174704,0.047824,0.897432,1.890000,-47.250000,89.180000,21.80
7541547,0.278160,0.034648,0.909632,1.190000,-45.430000,85.680000,21.79
7541557,0.367952,0.055144,0.917928,0.000000,-40.950001,81.480003,21.79
7541568,0.418216,0.046360,0.916952,-2.240000,-37.169998,75.739998,21.82
7541579,0.491904,0.028792,0.901336,-6.020000,-31.570000,69.580002,21.82
7541590,0.533872,-0.004880,0.886696,-12.110000,-28.000000,61.950001,21.81
7541601,0.587064,-0.053192,0.882304,-15.960000,-24.709999,55.160000,21.81
7541612,0.630984,-0.061976,0.864736,-17.360001,-23.170000,48.160000,21.81
7541623,0.671000,-0.057584,0.858392,-17.150000,-21.070000,42.139999,21.80
7541634,0.722240,-0.078568,0.834480,-14.490000,-18.410000,33.529999,21.80
7541645,0.751520,-0.087840,0.859856,-11.900000,-15.120000,25.480000,21.86
7541656,0.773968,-0.066368,0.854976,-12.670000,-12.670000,19.459999,21.86
7541667,0.799344,-0.040504,0.856928,-15.540000,-8.820000,16.240000,21.86
7541678,0.814472,-0.022448,0.887184,-35.840000,-5.460000,11.970000,21.81
7541689,0.801296,0.014152,0.917928,-21.350000,-3.150000,8.330000,21.81
7541700,0.800808,0.007320,0.936472,-25.969999,-0.840000,5.950000,21.85
7541711,0.803248,-0.026352,0.936960,-28.980000,1.820000,2.450000,21.85
7541722,0.806664,-0.052216,0.934032,-29.680000,4.620000,-1.540000,21.80
7541733,0.793000,-0.071248,0.932080,-28.490000,7.000000,-5.950000,21.82
7541744,0.768112,-0.079056,0.934032,-26.389999,9.520000,-9.450000,21.82
7541755,0.738344,-0.083448,0.926224,-24.500000,11.900000,-13.300000,21.84
7541766,0.715408,-0.099552,0.914024,-23.450001,14.000000,-17.219999,21.84
7541777,0.703696,-0.125904,0.900848,-18.340000,17.150000,-21.980000,21.80
7541788,0.668560,-0.143960,0.892552,-9.660000,21.350000,-28.629999,21.80
7541799,0.620736,-0.174704,0.886696,2.590000,26.040001,-36.820000,21.77
7541810,0.557784,-0.166896,0.904752,19.530001,29.120001,-44.310001,21.80
7541821,0.481168,-0.103456,0.903776,27.440001,31.219999,-48.720001,21.80
7541832,0.426512,-0.007808,0.898896,19.879999,33.389999,-52.360001,21.82
7541843,0.383080,0.028792,0.915976,7.980000,53.200001,-55.509998,21.82
7541854,0.337208,0.035624,0.935496,-8.190000,37.799999,-58.310001,21.81
7541865,0.281576,0.024888,0.937936,-23.520000,40.880001,-61.599998,21.74
7541876,0.221552,-0.032208,0.924272,-28.000000,44.029999,-66.639999,21.74
7541887,0.161040,-0.054656,0.913536,-27.160000,45.779999,-71.050003,21.79
7541898,0.111752,-0.093696,0.930128,-19.320000,49.980000,-74.339996,21.79
7541909,0.037088,-0.099552,0.904752,-15.400000,50.959999,-79.660004,21.80
7541920,-0.010736,-0.133712,0.902800,-7.490000,51.520000,-84.559998,21.80
7541932,-0.043432,-0.119560,0.923296,-0.280000,52.990002,-88.550003,21.80
7541943,-0.094672,-0.106872,0.914512,2.800000,52.290001,-91.629997,21.79
7541954,-0.119560,-0.116144,0.896456,3.850000,52.570000,-95.620003,21.79
7541965,-0.161528,-0.104432,0.894992,2.380000,52.220001,-98.419998,21.80
7541976,-0.195200,-0.071736,0.908656,2.520000,51.730000,-100.169998,21.77
7541987,-0.239120,-0.035624,0.926712,5.740000,52.430000,-100.099998,21.77
7541999,-0.271816,-0.050752,0.952576,16.520000,53.340000,-99.050003,21.77
7542009,-0.298168,-0.069784,0.964776,28.770000,53.759998,-97.230003,21.77
7542021,-0.310368,-0.051728,0.979416,41.580002,52.360001,-91.699997,21.84
7542032,-0.330864,0.042456,1.053592,45.430000,46.900002,-80.290001,21.81
7542043,-0.315736,0.185440,1.115568,36.049999,37.660000,-66.779999,21.81
7542054,-0.286456,0.249856,1.201944,25.270000,28.209999,-49.349998,21.84
7542065,-0.249368,0.275720,1.236592,11.270000,21.209999,-31.570000,21.84
7542075,-0.214720,0.260104,1.219512,-1.960000,13.160000,-16.799999,21.81
7542086,-0.194712,0.180072,1.165344,-7.980000,5.110000,2.520000,21.81
7542098,-0.194224,0.125904,1.134112,-11.620000,-2.240000,20.230000,21.80
7542108,-0.184464,0.093696,1.135576,-11.970000,-10.640000,31.920000,21.81
7542119,-0.179584,0.033184,1.149240,-8.470000,-17.920000,40.810001,21.81
7542130,-0.174216,-0.022448,1.151192,-0.840000,-24.639999,45.150002,21.87
7542142,-0.151280,-0.052216,1.128744,13.020000,-28.559999,46.689999,21.87
7542153,-0.130296,-0.064904,1.117520,28.980000,-32.340000,47.529999,21.80
7542164,-0.128832,-0.036112,1.107272,42.490002,-35.490002,49.070000,21.80
7542175,-0.103944,0.000000,1.089704,50.750000,-38.500000,51.590000,21.80
7542186,-0.077592,0.050264,1.094096,52.009998,-40.320000,54.250000,21.79
7542197,-0.085400,0.099064,1.108248,46.340000,-41.790001,56.980000,21.79
7542208,-0.098088,0.147864,1.115568,37.590000,-43.820000,59.779999,21.81
7542219,-0.249368,0.189344,1.099952,29.680000,-45.290001,65.169998,21.79
7542230,-0.122488,0.189344,1.064816,21.559999,-45.639999,70.699997,21.79
7542242,-0.079544,0.168848,1.021384,12.110000,-45.150002,73.849998,21.83
7542253,-0.054168,0.133712,0.992104,5.040000,-42.490002,74.900002,21.83
7542264,-0.049776,0.103456,0.970632,0.350000,-40.740002,74.620003,21.83
7542275,-0.024400,0.059048,0.882792,2.520000,-38.849998,73.430000,21.77
7542286,0.078080,0.042456,0.817400,3.640000,-36.820000,74.970001,21.77
7542297,0.148352,0.074664,0.819840,-4.480000,-32.410000,75.809998,21.82
7542308,0.159576,0.139080,0.875472,-12.320000,-28.139999,73.010002,21.82
7542319,0.159576,0.114192,0.942816,-19.250000,-26.320000,70.070000,21.79
7542330,0.161040,0.089792,0.968680,-17.709999,-25.129999,66.919998,21.79
7542341,0.230824,0.057584,0.953552,-12.110000,-24.639999,62.860001,21.79
7542352,0.296704,0.017568,0.926712,-8.890000,-22.750000,58.169998,21.77
7542363,0.377224,0.005368,0.905728,-4.970000,-20.230000,51.939999,21.77
7542375,0.416264,0.027328,0.913536,-2.870000,-17.290001,45.009998,21.82
7542386,0.420168,0.071248,0.924760,-2.800000,-15.610000,38.639999,21.79
7542397,0.451400,0.074176,0.923784,-2.380000,-15.120000,34.790001,21.79
7542410,0.520208,0.055144,0.928176,-4.480000,-13.230000,31.430000,21.82
7542421,0.542168,0.034648,0.936960,-4.060000,-12.250000,26.389999,21.82
7542432,0.563152,0.029768,0.937936,-2.940000,-10.360000,20.580000,21.84
7542443,0.569496,0.046360,0.959896,-0.630000,-9.660000,16.240000,21.79
7542454,0.599264,0.051240,0.976488,1.330000,-8.680000,12.880000,21.79
7542465,0.627568,0.078568,0.980880,-0.840000,-7.980000,10.010000,21.81
7542476,0.642696,0.074176,0.998936,-3.150000,-6.790000,6.580000,21.81
7542487,0.656848,0.070272,1.012112,-6.930000,-5.810000,3.990000,21.81
7542498,0.662704,0.092232,1.016992,-15.120000,-4.970000,2.170000,21.82
7542509,0.657336,0.123952,1.000888,-28.350000,-4.200000,1.260000,21.82
7542520,0.658312,0.098576,0.999912,-37.169998,-3.010000,-0.280000,21.80
7542531,0.653432,0.041968,1.001376,-43.189999,-1.400000,-3.220000,21.80
7542542,0.650016,-0.029280,1.000888,-40.810001,0.980000,-7.000000,21.85
7542553,0.625616,-0.065880,0.983808,-33.040001,3.710000,-11.970000,21.85
7542564,0.605120,-0.096624,0.969168,-25.690001,6.650000,-17.360001,21.77
7542575,0.579744,-0.106872,0.947208,-16.520000,9.240000,-23.379999,21.85
7542586,0.554856,-0.121512,0.931592,-8.540000,12.880000,-28.420000,21.85
7542597,0.520696,-0.130784,0.924272,-3.080000,16.730000,-35.070000,21.78
7542608,0.479216,-0.114192,0.929640,3.080000,19.320000,-41.580002,21.78
7542619,0.442616,-0.077592,0.927688,4.970000,21.700001,-46.060001,21.80
7542630,0.401624,-0.037576,0.915488,4.340000,24.920000,-51.869999,21.82
7542641,0.378200,-0.033184,0.909144,-0.910000,27.580000,-57.189999,21.82
7542652,0.348432,-0.060512,0.896456,-6.160000,31.639999,-62.860001,21.81
7542663,0.298656,-0.063440,0.904752,-14.210000,35.209999,-68.459999,21.81
7542674,0.271328,-0.066856,0.888160,-21.070000,38.919998,-75.669998,21.83
7542685,0.230824,-0.062464,0.874008,-30.309999,42.840000,-82.669998,21.75
7542696,0.152256,-0.061000,0.860832,-37.799999,47.950001,-88.970001,21.75
7542707,0.097112,-0.106872,0.884256,-42.419998,53.410000,-96.949997,21.83
7542718,-0.010736,-0.133712,0.920368,-42.910000,56.700001,-105.489998,21.83
7542729,-0.102480,-0.135176,0.948672,-38.709999,58.099998,-112.070000,21.80
7542741,-0.171288,-0.130784,0.940376,-29.959999,58.240002,-116.129997,21.81
7542752,-0.252784,-0.136152,0.937448,-18.969999,59.290001,-118.650002,21.81
7542763,-0.336232,-0.124928,0.933056,-3.780000,58.450001,-118.930000,21.88
7542775,-0.370392,-0.059048,0.934520,7.910000,56.139999,-114.239998,21.88
7542786,-0.372832,0.030744,0.951112,17.709999,52.990002,-103.180000,21.82
7542797,-0.357216,0.110776,1.025776,19.879999,47.320000,-90.370003,21.77
7542807,-0.330864,0.222040,1.126792,14.980000,36.889999,-69.790001,21.77
7542818,-0.309880,0.316224,1.216096,2.170000,25.620001,-44.450001,21.82
7542829,-0.278648,0.295240,1.193648,-11.130000,14.490000,-22.469999,21.82
7542841,-0.221552,0.215696,1.129720,-22.680000,5.390000,3.780000,21.83
7542852,-0.197640,0.118096,1.052616,-32.549999,-0.420000,24.360001,21.83
7542863,-0.200080,0.006344,1.025776,-33.110001,-5.180000,40.389999,21.79
7542874,-0.213256,-0.107360,1.050664,-20.160000,-9.030000,49.279999,21.77
7542885,-0.214232,-0.198128,1.063840,4.130000,-14.350000,51.869999,21.77
7542896,-0.195200,-0.270840,1.060424,38.639999,-18.129999,49.560001,21.80
7542907,-0.183000,-0.294264,1.044320,68.040001,-21.070000,45.500000,21.80
7542918,-0.173728,-0.249368,1.043832,95.129997,-23.170000,43.259998,21.79
7542929,-0.169336,-0.101016,1.038464,100.169998,-26.110001,44.799999,21.81
7542941,-0.141520,-0.027328,1.054080,90.860001,-28.350000,47.810001,21.81
7542952,-0.139568,0.035624,1.070184,81.900002,-29.889999,51.240002,21.84
7542963,-0.133224,0.093208,1.071160,67.410004,-31.080000,56.700001,21.84
7542974,-0.122000,0.133224,1.055544,48.230000,-31.290001,61.110001,21.84
7542985,-0.100040,0.152744,1.053104,24.990000,-30.240000,67.199997,21.84
7542996,-0.091744,0.119072,1.049688,10.010000,-27.860001,69.650002,21.84
7543007,-0.113216,0.102480,1.046272,-3.150000,-28.139999,72.379997,21.84
7543018,-0.117608,0.084424,1.038952,-10.010000,-28.629999,73.220001,21.84
7543029,-0.124440,0.025864,1.016992,-7.350000,-31.150000,74.410004,21.79
7543041,-0.066368,0.014152,0.993568,0.350000,-30.870001,73.639999,21.82
7543051,-0.022936,0.046848,0.973560,7.070000,-31.920000,72.800003,21.82
7543062,0.028792,0.087352,0.975024,4.130000,-31.570000,72.800003,21.83
7543073,0.057096,0.086376,1.001376,1.680000,-30.450001,70.000000,21.83
7543084,0.069296,0.070272,1.017968,0.070000,-28.280001,68.110001,21.73
7543095,0.081984,0.066856,1.034560,1.540000,-29.190001,68.040001,21.81
7543106,0.148352,0.082472,1.037000,1.610000,-30.170000,66.220001,21.81
7543117,0.174704,0.103944,1.018944,3.360000,-30.309999,63.000000,21.75
7543128,0.226432,0.133712,0.982832,6.300000,-29.330000,59.990002,21.75
7543139,0.274256,0.127856,0.953552,3.850000,-26.530001,56.000000,21.82
7543150,0.298168,0.105896,0.927200,-1.330000,-24.010000,53.270000,21.82
7543161,0.331840,0.094672,0.938424,-4.690000,-22.680000,50.959999,21.79
7543172,0.386496,0.090280,0.950624,-4.620000,-21.840000,48.160000,21.78
7543183,0.447496,0.126392,0.946720,-9.240000,-20.230000,45.570000,21.78
7543194,0.480680,0.135176,0.957944,-12.950000,-17.850000,42.490002,21.81
7543205,0.514352,0.099064,0.941352,-20.510000,-19.670000,37.520000,21.81
7543216,0.541192,0.076128,1.003328,-13.510000,-14.000000,35.840000,21.79
7543227,0.565104,0.074664,1.014064,-13.230000,-13.860000,32.130001,21.78
7543238,0.596336,0.057584,1.004304,-9.380000,-13.020000,28.840000,21.78
7543249,0.639280,0.053192,0.991128,-9.030000,-12.110000,25.620001,21.80
7543260,0.643672,0.066856,1.003328,-10.430000,-11.130000,22.680000,21.80
7543271,0.659776,0.099552,0.999424,-15.960000,-10.570000,19.670000,21.82
7543282,0.679296,0.075152,1.004304,-24.500000,-9.520000,17.150000,21.80
7543293,0.682712,0.041968,1.010648,-30.799999,-8.750000,15.050000,21.80
7543304,0.683688,0.021472,1.013576,-35.209999,-7.980000,11.340000,21.81
7543315,0.679784,-0.017080,1.005768,-40.110001,-6.930000,7.490000,21.81
7543326,0.671976,-0.043432,0.986736,-44.520000,-5.880000,2.870000,21.80
7543338,0.659288,-0.088816,0.975512,-48.160000,-4.060000,-1.190000,21.81
7543349,0.639280,-0.136152,0.961848,-49.630001,-1.470000,-7.700000,21.81
7543360,0.615856,-0.192272,0.941352,-48.230000,1.680000,-15.610000,21.85
7543371,0.591944,-0.236192,0.910608,-41.650002,4.900000,-24.430000,21.85
7543382,0.561200,-0.295728,0.886208,-25.969999,9.870000,-32.619999,21.80
7543393,0.517280,-0.322568,0.880352,-3.570000,15.610000,-43.959999,21.80
7543404,0.466040,-0.307440,0.883768,12.740000,20.440001,-54.180000,21.79
7543415,0.411872,-0.278648,0.880840,30.940001,24.709999,-63.980000,21.78
7543426,0.357216,-0.244000,0.880840,44.939999,29.610001,-71.330002,21.78
7543437,0.290360,-0.167384,0.895968,45.430000,33.320000,-78.400002,21.83
7543448,0.231800,-0.045872,0.894016,33.740002,35.770000,-83.019997,21.83
7543459,0.172264,-0.008784,0.915488,17.570000,38.290001,-87.989998,21.83
7543471,0.096624,0.004880,0.931104,6.510000,41.299999,-93.309998,21.80
7543481,0.041968,-0.006832,0.946720,-0.770000,44.029999,-96.599998,21.80
7543492,-0.001464,-0.018544,0.949160,-3.570000,45.919998,-101.080002,21.84
7543504,-0.050752,0.004880,0.967704,-2.380000,49.000000,-103.949997,21.84
7543514,-0.106384,-0.050264,0.965264,-1.540000,49.209999,-108.709999,21.80
7543526,-0.167384,-0.039040,0.969168,1.890000,48.860001,-112.349998,21.79
7543537,-0.232776,0.028792,1.010160,-1.610000,48.439999,-111.230003,21.79
7543547,-0.275232,0.072712,0.990640,-13.370000,46.340000,-108.779999,21.80
7543558,-0.285480,0.057584,0.997472,-19.530001,45.570000,-104.300003,21.80
7543570,-0.278648,0.057096,1.020408,-24.290001,44.520000,-97.720001,21.85
7543581,-0.279136,0.061488,1.016992,-25.480000,42.349998,-88.410004,21.82
7543592,-0.294752,0.086864,1.068232,-25.690001,38.430000,-74.690002,21.82
7543604,-0.289384,0.115168,1.141920,-25.340000,31.150000,-60.830002,21.81
7543615,-0.254248,0.170800,1.224392,-25.760000,21.980000,-40.880001,21.81
7543626,-0.219600,0.140544,1.214632,-26.180000,11.200000,-20.580000,21.80
7543637,-0.185440,0.092232,1.139968,-25.059999,4.270000,-0.910000,21.76
7543648,-0.154696,0.016104,1.069696,-20.160000,-3.010000,14.630000,21.76
7543659,-0.148352,-0.078080,0.991128,-10.220000,-9.170000,29.190001,21.83
7543670,-0.140544,-0.173240,0.983808,1.680000,-12.670000,37.799999,21.83
7543682,-0.133224,-0.238632,1.009672,22.190001,-15.260000,39.130001,21.85
7543692,-0.141032,-0.281576,1.024800,49.980000,-18.410000,38.150002,21.82
7543703,-0.127368,-0.293776,1.033584,79.660004,-20.299999,34.720001,21.82
7543714,-0.115168,-0.249368,1.022360,97.370003,-22.330000,32.200001,21.83
7543725,-0.123952,-0.154208,0.988200,103.320000,-23.660000,33.110001,21.83
7543736,-0.113704,-0.054168,0.979904,97.019997,-25.969999,35.700001,21.78
7543747,-0.113216,0.034648,0.995520,85.820000,-28.350000,39.480000,21.78
7543758,-0.093696,0.148840,1.012112,63.070000,-30.170000,45.709999,21.79
7543769,-0.084424,0.236192,1.018456,29.049999,-30.450001,51.520000,21.81
7543780,-0.101504,0.220088,1.022848,5.530000,-30.170000,58.380001,21.81
7543791,-0.111264,0.135664,1.007232,-12.740000,-30.030001,63.560001,21.81
7543802,-0.079056,0.053680,0.989176,-19.459999,-30.940001,66.779999,21.81
7543813,-0.081496,0.005368,0.990640,-14.280000,-30.030001,66.360001,21.77
7543825,-0.095160,0.020496,0.985760,-4.760000,-31.430000,65.660004,21.83
7543836,-0.063928,0.047824,0.933544,-0.420000,-33.459999,66.709999,21.83
7543847,0.024888,0.042456,0.904264,-1.330000,-31.780001,64.820000,21.83
7543858,0.051240,0.040016,0.935496,-2.100000,-28.910000,62.650002,21.83
7543869,0.034648,0.080520,0.988688,-0.560000,-28.840000,60.830002,21.79
7543880,0.048312,0.096136,1.008696,3.500000,-29.120001,60.480000,21.81
7543891,0.097112,0.094184,1.007720,5.040000,-29.469999,59.009998,21.81
7543902,0.131272,0.081496,1.005768,5.040000,-29.680000,56.560001,21.78
7543913,0.167872,0.101016,0.986736,3.990000,-29.400000,53.480000,21.78
7543924,0.210328,0.119072,0.989664,1.120000,-27.719999,49.910000,21.84
7543935,0.194712,0.149816,0.992104,-5.250000,-27.370001,49.700001,21.79
7543946,0.175680,0.172752,0.987712,-13.160000,-27.160000,49.209999,21.79
7543957,0.179584,0.150792,0.991128,-18.129999,-28.000000,49.349998,21.81
7543967,0.212768,0.176168,0.988688,-22.120001,-28.629999,50.049999,21.81
7543979,0.276696,0.136152,0.982832,-22.680000,-27.510000,49.349998,21.81
7543990,0.328424,0.061976,0.991128,-17.570000,-26.320000,46.549999,21.81
7544000,0.378200,0.034160,0.990152,-9.870000,-25.200001,43.400002,21.84
7544011,0.411872,0.075640,1.018456,-11.620000,-28.000000,40.180000,21.79
7544022,0.457744,0.041968,0.993568,-1.400000,-21.700001,38.360001,21.79
7544033,0.474824,0.036600,1.009184,0.280000,-20.860001,36.470001,21.82
7544044,0.511912,0.028304,1.008696,0.140000,-18.969999,34.650002,21.82
7544055,0.556808,0.011224,1.022360,0.070000,-18.620001,31.990000,21.77
7544066,0.584624,0.019032,1.024800,0.840000,-18.620001,27.790001,21.77
7544077,0.618296,0.051240,1.011136,-3.920000,-18.969999,24.990000,21.77
7544088,0.653920,0.027328,0.992104,-8.820000,-17.430000,20.370001,21.80
7544099,0.676856,-0.001464,0.973072,-13.860000,-15.330000,16.660000,21.80
7544110,0.681736,-0.007808,0.968192,-17.360001,-13.230000,14.350000,21.80
7544121,0.700280,-0.029280,0.969168,-20.510000,-9.800000,11.480000,21.80
7544132,0.695888,-0.060512,0.966728,-20.650000,-7.000000,7.210000,21.77
7544143,0.699304,-0.063928,0.956968,-19.320000,-4.200000,3.920000,21.80
7544154,0.700280,-0.094184,0.952088,-17.290001,-0.770000,-1.260000,21.80
7544165,0.683688,-0.098088,0.934520,-15.400000,2.450000,-6.230000,21.84
7544176,0.677832,-0.126880,0.918416,-12.670000,6.720000,-11.830000,21.84
7544188,0.660264,-0.153720,0.908656,-7.210000,10.220000,-18.340000,21.78
7544199,0.631472,-0.149816,0.902312,-2.380000,14.000000,-24.080000,21.85
7544210,0.596336,-0.125904,0.887184,-2.450000,17.780001,-28.980000,21.85
7544221,0.562176,-0.123464,0.864248,-3.850000,21.629999,-35.349998,21.75
7544232,0.539240,-0.115168,0.851560,-5.250000,25.059999,-41.860001,21.75
7544243,0.489952,-0.104432,0.860832,-7.420000,29.190001,-48.230000,21.84
7544254,0.437248,-0.100040,0.871568,-10.430000,32.759998,-53.340000,21.75
7544265,0.393328,-0.125904,0.873520,-10.220000,36.540001,-60.130001,21.75
7544276,0.359168,-0.127368,0.875960,-7.770000,39.830002,-67.620003,21.79
7544288,0.307440,-0.122976,0.868152,-5.040000,44.240002,-75.529999,21.79
7544299,0.241072,-0.122000,0.834968,3.920000,52.570000,-81.970001,21.80
7544310,0.137128,-0.028792,0.868640,-16.450001,51.029999,-86.870003,21.77
7544321,0.099064,-0.046848,0.892064,-25.690001,54.810001,-91.209999,21.77
7544332,0.051240,-0.057584,0.878400,-33.040001,58.169998,-97.650002,21.84
7544343,0.000000,-0.093696,0.848144,-36.330002,63.349998,-103.669998,21.84
7544354,-0.084912,-0.027328,0.880352,-40.320000,69.089996,-109.269997,21.84
7544365,-0.211304,0.041480,0.931104,-50.820000,72.589996,-113.190002,21.83
7544376,-0.288408,-0.007320,1.025776,-61.529999,74.970001,-113.820000,21.83
7544388,-0.387472,-0.057096,1.083848,-64.050003,74.690002,-112.139999,21.83
7544399,-0.449936,-0.129320,1.185352,-62.580002,65.940002,-109.900002,21.83
7544410,-0.456768,-0.187880,1.207800,-44.380001,58.380001,-103.879997,21.73
7544421,-0.427000,-0.180072,1.147288,-24.500000,48.720001,-94.220001,21.79
7544432,-0.370880,-0.065392,1.119472,-9.100000,40.740002,-78.120003,21.79
7544444,-0.321592,0.030744,1.140944,-2.170000,30.030001,-62.090000,21.83
7544454,-0.288408,0.122976,1.165832,-3.990000,17.010000,-37.799999,21.83
7544465,-0.253760,0.105896,1.159976,-5.880000,4.830000,-13.720000,21.77
7544476,-0.232288,0.042456,1.100928,-6.230000,-3.080000,4.480000,21.80
7544487,-0.242048,-0.036112,1.028704,-3.640000,-10.290000,22.889999,21.80
7544498,-0.250344,-0.105896,0.989664,0.210000,-16.379999,36.610001,21.77
7544509,-0.242048,-0.154696,1.009672,8.260000,-20.860001,45.150002,21.77
7544521,-0.221552,-0.201544,1.035048,20.650000,-25.340000,47.880001,21.85
7544532,-0.213744,-0.248880,1.045784,36.540001,-29.400000,48.299999,21.80
7544543,-0.202520,-0.220088,1.040416,45.779999,-34.580002,48.299999,21.80
7544554,-0.202032,-0.140544,1.018456,48.580002,-37.939999,49.910000,21.76
7544565,-0.185440,-0.111264,0.986736,42.840000,-39.619999,52.360001,21.76
7544576,-0.131272,-0.100040,0.976488,35.700001,-39.549999,53.619999,21.79
7544587,-0.101016,-0.099552,0.993568,28.770000,-38.360001,54.389999,21.79
7544598,-0.108336,-0.086376,1.018456,24.500000,-37.939999,55.020000,21.79
7544609,-0.136640,-0.082472,1.052616,22.959999,-38.849998,56.279999,21.81
7544620,-0.195688,-0.071736,1.067744,28.629999,-41.650002,57.959999,21.81
7544631,-0.156648,-0.085888,1.047736,36.259998,-44.730000,61.180000,21.82
7544643,-0.096624,-0.052704,1.009672,38.080002,-45.150002,64.190002,21.82
7544654,-0.075640,-0.017080,1.003328,31.570000,-44.939999,66.430000,21.83
7544665,-0.030256,0.024888,1.010160,20.650000,-42.279999,66.290001,21.82
7544676,-0.022448,0.007808,1.002352,11.760000,-41.299999,66.220001,21.82
7544686,0.016104,-0.019520,1.001376,6.090000,-41.299999,65.449997,21.80
7544697,0.062952,-0.027328,0.999424,6.300000,-42.139999,63.070000,21.80
7544708,0.128344,-0.033184,1.003816,8.890000,-41.650002,59.990002,21.80
7544719,0.176656,-0.019032,1.020408,11.410000,-41.650002,56.419998,21.76
7544730,0.210328,-0.006344,1.036512,13.930000,-40.880001,52.779999,21.76
7544741,0.247904,0.030256,1.036024,12.810000,-41.230000,49.840000,21.78
7544752,0.271328,0.054168,1.016016,8.400000,-40.040001,47.110001,21.78
7544763,0.297192,0.061000,1.002840,4.760000,-39.549999,45.639999,21.83
7544774,0.346968,0.061488,0.984784,4.270000,-38.779999,43.750000,21.83
7544785,0.394304,0.019520,0.982344,5.880000,-35.910000,40.599998,21.75
7544796,0.419680,0.031720,0.991616,8.890000,-34.299999,37.240002,21.78
7544807,0.460184,0.046848,0.982344,10.710000,-32.619999,35.209999,21.78
7544818,0.531432,0.040504,0.955504,9.730000,-30.520000,32.900002,21.79
7544829,0.561688,0.018544,0.978440,8.470000,-28.910000,29.889999,21.79
7544840,0.612928,0.017080,0.973072,6.580000,-26.180000,26.809999,21.80
7544851,0.645136,0.005856,0.972096,3.850000,-25.059999,23.450001,21.80
7544861,0.671000,0.025376,0.958920,1.050000,-23.170000,20.160000,21.80
7544872,0.709552,0.035136,0.965264,-5.740000,-20.510000,18.129999,21.78
7544883,0.720288,0.008296,0.970144,-9.730000,-17.360001,13.790000,21.78
7544895,0.724192,-0.010736,0.966240,-12.110000,-15.190000,9.870000,21.80
7544905,0.746152,-0.036112,0.939888,-14.070000,-11.270000,6.720000,21.75
7544916,0.767136,-0.063440,0.919880,-15.260000,-5.880000,2.240000,21.75
7544927,0.776408,-0.079544,0.914024,-14.770000,17.080000,-2.940000,21.77
7544938,0.754936,-0.092720,0.904264,-10.920000,5.600000,-7.420000,21.77
7544949,0.716872,-0.111752,0.905728,-6.370000,10.570000,-12.180000,21.78
7544960,0.680272,-0.142984,0.910608,-0.420000,15.330000,-18.270000,21.78
7544971,0.658800,-0.151280,0.916464,6.720000,19.600000,-25.129999,21.84
7544982,0.610976,-0.138592,0.926712,10.290000,23.730000,-30.450001,21.73
7544993,0.554856,-0.075640,0.908656,7.350000,27.650000,-37.029999,21.73
7545005,0.509472,-0.056608,0.912560,0.490000,31.080000,-43.330002,21.82
7545015,0.491904,-0.074176,0.903288,-8.330000,34.299999,-50.189999,21.82
7545026,0.452864,-0.089792,0.890600,-18.620001,38.570000,-56.419998,21.78
7545037,0.415776,-0.128832,0.884744,-26.740000,43.540001,-64.610001,21.77
7545049,0.376736,-0.158600,0.874496,-34.020000,48.860001,-73.639999,21.77
7545059,0.307440,-0.175680,0.850096,-38.290001,56.070000,-82.110001,21.80
7545071,0.196664,-0.203496,0.850096,-41.860001,64.120003,-92.400002,21.80
7545082,0.089304,-0.169336,0.937448,-46.619999,70.000000,-101.500000,21.79
7545093,-0.034160,-0.184952,0.916952,-56.910000,73.430000,-111.300003,21.82
7545104,-0.170312,-0.189832,0.936472,-51.590000,75.389999,-117.739998,21.82
7545115,-0.293776,-0.091256,0.961848,-48.230000,74.550003,-119.279999,21.81
7545126,-0.379664,-0.093208,0.976976,-42.840000,72.239998,-118.580002,21.81
7545138,-0.417728,-0.140056,0.990152,-31.500000,69.510002,-116.690002,21.80
7545149,-0.442616,-0.130784,1.007720,-15.750000,64.540001,-109.760002,21.79
7545160,-0.420656,-0.111752,1.044808,0.700000,57.889999,-99.190002,21.79
7545171,-0.384544,0.002928,1.081408,8.960000,49.630001,-84.279999,21.80
7545182,-0.347456,0.124440,1.147288,4.340000,34.299999,-63.000000,21.80
7545193,-0.318664,0.156160,1.200480,-1.470000,23.170000,-39.200001,21.80
7545204,-0.282064,0.179584,1.181448,-7.350000,9.870000,-0.980000,21.77
7545215,-0.245952,0.101992,1.133624,-11.200000,-1.120000,6.090000,21.77
7545226,-0.217160,-0.026840,1.054568,-9.590000,-10.220000,25.969999,21.78
7545237,-0.212280,-0.108824,1.004304,-0.770000,-16.170000,39.270000,21.78
7545249,-0.221552,-0.162992,1.003816,14.070000,-22.820000,45.779999,21.82
7545260,-0.229360,-0.221552,1.016016,32.270000,-28.910000,49.770000,21.77
7545271,-0.226432,-0.220576,1.037000,46.549999,-35.770000,51.169998,21.77
7545282,-0.234240,-0.147376,1.030168,57.330002,-40.599998,52.080002,21.77
7545293,-0.231312,-0.092720,1.016016,56.630001,-46.900002,54.810001,21.77
7545304,-0.216672,-0.021960,1.002840,46.970001,-51.310001,60.549999,21.84
7545315,-0.191784,0.004880,1.005768,35.840000,-55.020000,66.989998,21.84
7545326,-0.189832,0.003904,1.002352,21.209999,-56.910000,71.959999,21.78
7545337,-0.154208,-0.024888,0.995032,14.140000,-56.840000,73.290001,21.78
7545348,-0.146888,-0.048312,0.982344,14.700000,-55.509998,73.989998,21.78
7545359,-0.122000,-0.076128,0.972096,19.040001,-52.919998,73.779999,21.79
7545370,-0.079544,-0.118584,0.953552,27.510000,-51.799999,73.570000,21.79
7545382,-0.047824,-0.108336,0.969656,32.619999,-49.560001,71.190002,21.78
7545393,-0.047824,-0.038552,0.998448,28.559999,-49.139999,71.400002,21.78
7545404,-0.000976,0.020984,1.000888,14.700000,-50.400002,72.309998,21.78
7545417,0.079056,-0.070272,0.971608,4.970000,-48.790001,68.320000,21.79
7545428,0.124440,-0.092720,0.967216,2.100000,-48.020000,65.730003,21.78
7545439,0.175680,-0.088816,0.962824,5.320000,-46.060001,60.410000,21.78
7545450,0.218624,-0.079544,0.965752,5.600000,-42.490002,54.740002,21.75
7545461,0.212768,-0.101504,0.969168,7.910000,-40.669998,49.209999,21.75
7545472,0.246440,-0.078568,0.972584,10.850000,-40.040001,46.410000,21.79
7545483,0.341600,-0.045384,0.977464,9.730000,-38.779999,42.490002,21.79
7545495,0.380640,-0.019520,1.018944,7.280000,-36.470001,39.060001,21.79
7545506,0.393328,-0.019520,1.015040,4.760000,-36.049999,33.740002,21.77
7545517,0.424072,-0.032696,0.980392,6.300000,-33.740002,30.240000,21.77
7545527,0.502152,-0.032696,0.958432,8.750000,-31.360001,27.860001,21.80
7545538,0.568520,-0.024400,0.948184,10.430000,-28.139999,23.940001,21.80
7545549,0.615368,0.007320,0.965752,8.050000,-24.290001,21.209999,21.81
7545560,0.633912,0.023424,0.973560,4.480000,-22.049999,17.080000,21.78
7545571,0.667584,-0.000976,0.967704,2.870000,-19.879999,14.490000,21.78
7545582,0.703208,0.007320,0.959408,1.820000,-16.799999,12.110000,21.80
7545593,0.731024,0.022936,0.959896,0.280000,-13.370000,9.870000,21.80
7545604,0.748592,0.030256,0.962824,-1.890000,-10.850000,7.490000,21.80
7545614,0.760304,0.031232,0.969168,-5.180000,-6.580000,5.950000,21.76
7545626,0.752008,0.028304,0.988200,-9.100000,-2.800000,3.220000,21.76
7545642,0.740784,-0.002440,0.999424,-12.390000,1.540000,0.280000,21.86
7545658,0.714432,-0.059536,1.003816,-11.130000,5.460000,-3.850000,21.82
7545671,0.707600,-0.063440,0.999912,-10.990000,7.700000,-8.260000,21.79
7545682,0.689056,-0.092720,0.980880,-10.500000,10.780000,-11.970000,21.79
7545694,0.671000,-0.131760,0.961360,-6.720000,13.930000,-18.410000,21.79
7545705,0.635864,-0.146400,0.945744,-4.130000,17.500000,-24.570000,21.79
7545718,0.612928,-0.139080,0.915488,-4.830000,21.209999,-31.290001,21.80
7545730,0.579744,-0.143960,0.884256,-7.420000,26.389999,-38.150002,21.79
7545743,0.522160,-0.145424,0.844240,-10.570000,31.709999,-47.459999,21.79
7545754,0.475312,-0.141032,0.817888,-12.110000,37.939999,-53.130001,21.83
7545765,0.419680,-0.147376,0.808616,-14.630000,45.009998,-59.990002,21.80
7545776,0.370880,-0.188368,0.798856,-17.219999,50.750000,-67.620003,21.80
7545787,0.282552,-0.187880,0.827648,-20.090000,56.000000,-74.690002,21.81
7545799,0.203984,-0.194224,0.885232,-21.490000,61.389999,-81.339996,21.81
7545810,0.128832,-0.190808,0.871568,-22.049999,64.820000,-90.720001,21.84
7545821,0.042456,-0.189832,0.883768,-21.209999,68.879997,-99.750000,21.79
7545832,-0.026840,-0.177144,0.858880,-17.990000,72.730003,-107.800003,21.79
7545843,-0.129320,-0.109312,0.869128,-16.100000,75.320000,-111.300003,21.82
7545854,-0.212280,-0.105408,0.871568,-14.070000,77.769997,-114.940002,21.82
7545866,-0.290360,-0.115168,0.892064,-8.120000,78.470001,-116.620003,21.82
7545877,-0.334768,-0.069784,0.938912,-3.360000,76.580002,-114.730003,21.79
7545888,-0.383568,-0.053680,1.018456,3.780000,73.080002,-110.599998,21.79
7545899,-0.395280,-0.012688,1.091656,11.690000,66.500000,-103.739998,21.80
7545910,-0.374784,0.026352,1.128744,16.309999,56.910000,-92.610001,21.80
7545921,-0.361608,0.102968,1.178032,14.280000,44.380001,-75.599998,21.81
7545932,-0.332816,0.193736,1.241960,7.350000,32.270000,-54.740002,21.80
7545943,-0.296704,0.268400,1.269288,-2.030000,16.100000,-36.119999,21.80
7545954,-0.242536,0.220576,1.196088,-3.290000,3.290000,-11.760000,21.77
7545965,-0.202032,0.154696,1.099464,-3.850000,-6.230000,10.640000,21.77
7545976,-0.180560,0.075640,1.041392,-3.570000,-11.620000,27.299999,21.87
7545987,-0.193736,-0.011712,1.051640,5.320000,-17.709999,37.310001,21.82
7545999,-0.211304,-0.094672,1.087752,22.889999,-25.340000,44.590000,21.82
7546010,-0.215208,-0.095160,1.084824,35.419998,-33.880001,49.000000,21.79
7546021,-0.203008,-0.059048,1.059448,42.000000,-38.990002,51.240002,21.79
7546032,-0.203984,-0.006832,1.042368,40.810001,-43.820000,53.759998,21.80
7546043,-0.179584,0.013176,1.009672,37.520000,-47.040001,58.169998,21.80
7546053,-0.139568,0.015616,1.009672,34.720001,-48.790001,61.950001,21.82
7546064,-0.126392,0.022448,1.017968,31.850000,-50.330002,64.400002,21.79
7546075,-0.117608,0.011224,0.988200,30.660000,-49.910000,66.849998,21.79
7546086,-0.127368,0.066856,0.988688,22.190001,-50.189999,71.959999,21.80
7546097,-0.153720,0.079544,0.994544,14.280000,-50.540001,75.949997,21.80
7546108,-0.105408,0.063440,0.998448,9.590000,-49.980000,78.889999,21.77
7546119,-0.093696,0.027328,1.012600,6.930000,-49.840000,80.360001,21.77
7546131,-0.057096,0.015616,1.027240,5.950000,-50.540001,79.870003,21.77
7546141,-0.035624,0.017568,1.027728,4.480000,-51.590000,78.120003,21.78
7546152,-0.023912,0.004880,1.012112,3.920000,-53.060001,76.160004,21.78
7546163,0.012200,-0.005368,0.985272,5.320000,-53.549999,75.040001,21.81
7546174,0.093208,0.015616,0.984296,4.620000,-52.430000,74.830002,21.75
7546185,0.108824,0.017080,1.017968,2.450000,-51.029999,73.709999,21.75
7546196,0.115168,-0.014640,1.041392,2.870000,-50.610001,70.839996,21.82
7546207,0.142008,-0.016104,1.013576,2.450000,-51.869999,68.180000,21.82
7546218,0.182024,-0.029768,0.963800,4.480000,-52.360001,63.700001,21.75
7546229,0.269376,-0.074176,0.909144,10.430000,-48.580002,60.410000,21.75
7546240,0.323544,-0.056120,0.867176,15.050000,-44.939999,57.540001,21.84
7546250,0.360632,-0.030256,0.870104,15.190000,-40.389999,53.759998,21.78
7546261,0.378688,-0.010736,0.906704,11.830000,-36.750000,48.930000,21.78
7546272,0.389424,-0.009272,0.905240,8.890000,-34.930000,45.919998,21.83
7546283,0.488488,0.002440,0.940864,6.930000,-34.439999,43.259998,21.83
7546294,0.553880,-0.027816,0.942328,6.510000,-31.780001,38.709999,21.79
7546305,0.609024,-0.031720,0.927688,6.370000,-29.469999,35.070000,21.77
7546316,0.681248,-0.022936,0.933056,5.110000,-26.879999,29.750000,21.77
7546327,0.715408,-0.034648,0.914512,5.110000,-23.379999,23.870001,21.81
7546338,0.750056,-0.033184,0.898896,6.580000,-18.620001,19.389999,21.81
7546349,0.779336,-0.026840,0.905728,5.320000,-14.000000,16.309999,21.80
7546360,0.798368,-0.043432,0.926712,3.990000,-9.170000,12.740000,21.80
7546371,0.801784,-0.043920,0.942816,0.700000,-5.880000,9.730000,21.85
7546382,0.796904,-0.022448,0.946720,-7.140000,-1.890000,7.210000,21.87
7546393,0.784216,-0.031232,0.950624,-13.510000,2.170000,3.920000,21.87
7546404,0.777872,-0.055144,0.947208,-18.620001,5.250000,0.210000,21.80
7546415,0.779336,-0.083936,0.946720,-21.559999,9.730000,-2.800000,21.80
7546426,0.750544,-0.127856,0.949160,-21.770000,14.630000,-7.490000,21.80
7546437,0.723216,-0.171776,0.941352,-19.530001,19.250000,-13.230000,21.78
7546448,0.699792,-0.194712,0.941352,-17.570000,22.540001,-19.180000,21.78
7546459,0.662216,-0.204472,0.918904,-16.240000,26.600000,-24.570000,21.81
7546470,0.634888,-0.204960,0.895480,-15.400000,31.290001,-30.940001,21.81
7546481,0.599752,-0.201544,0.873520,-15.120000,35.560001,-38.500000,21.77
7546492,0.552416,-0.202032,0.851560,-17.080000,42.070000,-44.869999,21.79
7546503,0.517280,-0.208864,0.847168,-21.209999,48.790001,-52.500000,21.79
7546514,0.478240,-0.234240,0.846680,-22.049999,56.630001,-61.599998,21.79
7546525,0.400160,-0.207400,0.870104,-23.240000,60.970001,-71.400002,21.79
7546536,0.317688,-0.208376,0.887184,-27.580000,66.290001,-78.889999,21.80
7546547,0.248880,-0.298656,0.879864,-26.600000,72.379997,-89.599998,21.80
7546558,0.172264,-0.324032,0.841800,-25.410000,77.839996,-102.129997,21.78
7546569,0.102480,-0.327936,0.805688,-20.790001,83.300003,-115.989998,21.75
7546580,-0.033672,-0.269864,0.813984,-15.260000,88.690002,-124.949997,21.75
7546592,-0.171776,-0.216672,0.865712,-5.600000,93.660004,-132.509995,21.82
7546603,-0.313784,-0.133224,0.977952,-7.910000,91.489998,-136.639999,21.82
7546614,-0.407968,-0.079056,1.086776,-7.490000,88.480003,-136.149994,21.80
7546625,-0.467992,-0.070760,1.126304,-7.280000,79.870003,-131.600006,21.80
7546636,-0.485072,-0.052216,1.147776,-2.660000,70.629997,-127.470001,21.80
7546647,-0.452376,0.067832,1.124352,-1.120000,62.720001,-118.580002,21.81
7546660,-0.420656,0.145424,1.113128,-4.130000,53.900002,-106.120003,21.82
7546671,-0.402600,0.166408,1.149240,-5.600000,42.980000,-87.290001,21.82
7546682,-0.362584,0.196176,1.220488,-4.620000,28.280001,-65.309998,21.81
7546693,-0.313784,0.200568,1.232200,0.140000,12.460000,-40.669998,21.81
7546704,-0.272304,0.193248,1.146800,7.070000,1.330000,-14.630000,21.80
7546715,-0.217648,0.162504,1.069696,9.170000,-9.240000,5.040000,21.79
7546726,-0.214720,0.095648,1.019432,8.680000,-17.080000,24.290001,21.79
7546737,-0.230336,0.067344,1.002840,12.180000,-22.750000,38.990002,21.75
7546748,-0.230336,0.026352,1.011136,15.890000,-29.540001,47.040001,21.75
7546759,-0.218624,-0.029768,1.018944,20.930000,-34.720001,52.220001,21.82
7546770,-0.216184,-0.058072,1.036024,26.459999,-40.040001,53.619999,21.82
7546781,-0.224968,-0.020984,1.026264,31.709999,-45.290001,55.930000,21.82
7546792,-0.208376,0.000976,0.993080,29.680000,-49.910000,58.799999,21.81
7546803,-0.195688,0.016592,0.952576,25.410000,-53.130001,64.610001,21.81
7546814,-0.164456,0.026352,0.950136,16.590000,-54.669998,70.629997,21.79
7546825,-0.162504,0.016104,0.979904,10.360000,-55.580002,74.339996,21.79
7546836,-0.153232,-0.001952,0.997472,10.710000,-56.070000,75.949997,21.81
7546847,-0.141520,0.008784,1.007232,14.210000,-56.349998,77.000000,21.80
7546858,-0.114192,-0.001464,0.980880,21.209999,-56.279999,76.580002,21.80
7546869,-0.048312,-0.038552,0.954040,29.190001,-53.970001,75.809998,21.79
7546881,0.019520,-0.031720,0.951600,30.870001,-51.310001,74.410004,21.79
7546892,0.032208,0.022936,0.969656,24.360001,-48.509998,71.680000,21.79
7546903,0.024888,0.063928,0.986736,15.050000,-48.369999,70.209999,21.75
7546914,0.099552,0.039040,1.004304,9.030000,-48.720001,68.879997,21.75
7546924,0.174216,-0.000488,0.996496,7.630000,-49.070000,65.239998,21.81
7546935,0.203008,-0.000976,1.004792,6.300000,-47.880001,60.340000,21.81
7546946,0.202520,0.035624,1.015040,1.820000,-50.049999,56.139999,21.81
7546957,0.173728,0.002440,1.012112,11.760000,-46.549999,51.799999,21.81
7546968,0.189344,0.000488,0.990152,15.260000,-47.880001,48.230000,21.75
7546979,0.286456,-0.022448,0.926712,18.620001,-46.060001,45.570000,21.81
7546991,0.361608,-0.055144,0.872544,17.360001,-41.020000,42.419998,21.81
7547002,0.405040,-0.025864,0.866200,13.020000,-37.380001,39.130001,21.77
7547012,0.397720,0.060024,0.885720,4.410000,-35.910000,36.470001,21.77
7547023,0.411384,0.080032,0.913048,-5.950000,-35.279999,34.369999,21.81
7547035,0.470432,0.023912,0.934032,-3.780000,-31.990000,31.500000,21.77
7547045,0.545096,-0.020008,0.939400,-1.260000,-29.750000,28.139999,21.77
7547056,0.625128,-0.046360,0.944768,0.070000,-26.110001,24.150000,21.78
7547067,0.657824,-0.056608,0.946720,1.540000,-22.260000,18.129999,21.78
7547078,0.674416,-0.019032,0.947208,-0.840000,-18.969999,13.440000,21.80
7547089,0.696864,-0.017080,0.942816,-5.810000,-16.520000,9.660000,21.79
7547100,0.728584,-0.029768,0.953064,-9.030000,-12.530000,7.490000,21.79
7547112,0.732000,-0.031232,0.959408,-10.220000,-8.610000,4.270000,21.79
7547123,0.744688,-0.017568,0.957456,-11.900000,-4.480000,1.470000,21.79
7547133,0.754936,-0.015616,0.952576,-15.120000,-0.210000,-1.050000,21.79
7547144,0.747128,-0.023912,0.957944,-18.340000,5.880000,-2.870000,21.80
7547156,0.713944,-0.058072,0.984784,-16.379999,11.060000,-5.600000,21.80
7547167,0.698328,-0.072224,1.010160,-11.760000,13.930000,-9.240000,21.80
7547178,0.660752,-0.080032,1.030656,-6.230000,17.010000,-12.390000,21.80
7547189,0.637816,-0.106384,1.028704,0.210000,19.740000,-16.660000,21.79
7547200,0.618296,-0.108824,1.007720,2.170000,22.540001,-21.420000,21.79
7547211,0.600240,-0.103944,0.976976,1.190000,24.990000,-26.670000,21.82
7547222,0.587552,-0.088816,0.938424,-3.780000,29.049999,-30.660000,21.77
7547233,0.550952,-0.091256,0.922808,-12.460000,34.090000,-35.840000,21.77
7547244,0.535336,-0.133712,0.907192,-16.100000,38.919998,-42.630001,21.82
7547255,0.496784,-0.162504,0.903776,-16.799999,44.450001,-50.470001,21.82
7547267,0.454816,-0.198616,0.900360,-12.810000,48.509998,-60.130001,21.79
7547278,0.401624,-0.228872,0.877912,-3.710000,54.459999,-69.370003,21.81
7547289,0.317688,-0.191296,0.855464,2.590000,59.919998,-79.449997,21.81
7547300,0.246928,-0.101992,0.853024,2.030000,64.959999,-87.220001,21.82
7547311,0.159576,-0.042456,0.858880,-10.640000,70.349998,-92.680000,21.82
7547321,0.046848,-0.044408,0.902800,-22.959999,75.739998,-98.769997,21.81
7547333,-0.065880,-0.080520,0.963312,-30.100000,77.279999,-104.860001,21.79
7547344,-0.164456,-0.125416,0.999424,-32.410000,76.440002,-110.879997,21.79
7547355,-0.230336,-0.120536,0.963800,-28.490000,75.389999,-113.889999,21.82
7547366,-0.266936,-0.105408,0.936960,-25.270000,75.389999,-114.519997,21.82
7547378,-0.326960,-0.076128,0.958920,-16.660000,75.040001,-115.150002,21.79
7547389,-0.378200,-0.033184,0.951600,-8.190000,73.080002,-111.720001,21.81
7547400,-0.381128,-0.001952,0.993080,3.290000,68.320000,-103.110001,21.81
7547411,-0.383080,0.040016,1.104832,8.750000,60.900002,-88.970001,21.82
7547422,-0.389424,0.121024,1.221952,9.660000,45.779999,-74.760002,21.82
7547433,-0.372832,0.231800,1.313696,7.420000,26.389999,-52.360001,21.79
7547444,-0.316712,0.261568,1.270264,5.670000,12.110000,-27.090000,21.78
7547456,-0.247904,0.213256,1.122400,1.890000,-1.120000,-2.660000,21.78
7547467,-0.196176,0.130784,1.013576,-1.890000,-9.310000,15.260000,21.83
7547478,-0.184464,0.040992,0.985272,0.910000,-15.050000,32.970001,21.83
7547489,-0.206424,-0.003416,1.016992,8.260000,-20.160000,45.430000,21.80
7547499,-0.226920,-0.043432,1.044808,18.969999,-27.719999,51.240002,21.76
7547510,-0.236680,-0.062952,1.043832,23.940001,-36.119999,56.000000,21.76
7547522,-0.225456,-0.033672,1.046760,24.990000,-42.490002,58.590000,21.79
7547533,-0.224968,-0.026352,1.032608,21.770000,-47.180000,61.389999,21.79
7547544,-0.214720,-0.050752,1.005768,20.510000,-52.360001,63.910000,21.79
7547554,-0.189832,-0.053680,1.001376,20.580000,-56.279999,66.639999,21.79
7547566,-0.155672,-0.001952,0.979416,20.299999,-58.169998,69.019997,21.81
7547577,-0.122976,-0.004880,0.965264,17.570000,-57.049999,70.769997,21.78
7547588,-0.103456,-0.013664,0.973072,16.309999,-54.810001,71.820000,21.78
7547599,-0.127368,0.012200,0.998936,13.300000,-54.529999,71.680000,21.85
7547610,-0.163480,0.006344,1.032608,10.780000,-56.349998,72.449997,21.85
7547621,-0.177144,0.009272,1.035536,10.640000,-58.380001,73.779999,21.81
7547632,-0.097600,0.024888,0.975024,6.510000,-60.270000,77.419998,21.78
7547643,0.027816,-0.026840,0.955504,1.470000,-59.150002,77.489998,21.78
7547654,0.069296,-0.040992,0.954528,2.240000,-56.139999,72.449997,21.77
7547665,0.083448,-0.039040,0.975024,4.970000,-54.950001,68.389999,21.77
7547676,0.092720,-0.059048,0.987224,13.020000,-53.830002,64.260002,21.80
7547687,0.091256,-0.053680,0.962336,19.459999,-53.130001,61.950001,21.79
7547698,0.130784,-0.002440,0.953552,21.629999,-52.360001,62.650002,21.79
7547709,0.182024,0.036600,0.959896,15.960000,-49.910000,62.650002,21.83
7547720,0.223504,0.046360,0.972096,9.450000,-47.880001,62.439999,21.83
7547731,0.284504,0.014152,0.977464,2.800000,-46.340000,59.919998,21.77
7547742,0.359168,-0.016104,0.948672,-1.260000,-42.910000,56.910000,21.79
7547753,0.413824,-0.027816,0.949648,-0.560000,-39.830002,52.290001,21.79
7547765,0.442128,-0.034160,0.944280,3.570000,-37.169998,46.549999,21.85
7547777,0.488000,-0.025376,0.926224,3.640000,-35.349998,41.230000,21.85
7547788,0.539728,-0.047336,0.932080,5.950000,-30.170000,37.730000,21.78
7547799,0.591944,-0.038064,0.941840,4.060000,-27.790001,33.110001,21.81
7547810,0.611464,0.009272,0.975512,-0.280000,-26.740000,28.980000,21.81
7547821,0.635864,0.015128,0.988200,-2.660000,-25.760000,25.760000,21.78
7547832,0.702720,-0.003416,0.975512,-2.030000,-23.870001,22.959999,21.78
7547843,0.743712,-0.012200,0.965264,-1.820000,-21.070000,20.160000,21.81
7547854,0.768112,-0.017568,0.957944,-2.030000,-17.010000,17.430000,21.77
7547865,0.770064,-0.021472,0.971608,-4.130000,-13.440000,14.630000,21.77
7547876,0.763720,-0.001464,0.971120,-7.350000,-10.220000,12.040000,21.79
7547887,0.756400,-0.040504,0.972096,-10.290000,-7.630000,9.240000,21.79
7547898,0.757864,-0.070272,0.951600,-9.380000,-4.690000,6.860000,21.81
7547909,0.777384,-0.071248,0.936472,-9.590000,-0.210000,4.690000,21.81
7547920,0.763720,-0.098576,0.943304,-9.100000,5.250000,1.330000,21.79
7547931,0.739320,-0.097600,0.952576,-8.470000,8.400000,-2.240000,21.79
7547942,0.710528,-0.101992,0.955016,-8.680000,12.600000,-4.690000,21.79
7547953,0.692472,-0.155184,0.942816,-6.440000,17.219999,-9.870000,21.81
7547964,0.671976,-0.175192,0.927688,-3.220000,20.860001,-15.470000,21.81
7547976,0.633912,-0.198128,0.917928,-0.630000,25.480000,-21.840000,21.84
7547987,0.600728,-0.194712,0.898896,-1.050000,30.100000,-26.879999,21.80
7547998,0.557784,-0.179584,0.874984,-2.660000,35.070000,-34.090000,21.80
7548009,0.525576,-0.168848,0.852536,-5.670000,39.340000,-41.230000,21.77
7548020,0.483120,-0.172752,0.833504,-5.670000,45.430000,-48.369999,21.77
7548031,0.429928,-0.152744,0.827648,-5.460000,51.660000,-55.930000,21.81
7548042,0.361608,-0.151280,0.822768,-5.600000,58.590000,-63.279999,21.76
7548053,0.296216,-0.129320,0.813008,-6.650000,63.560001,-70.349998,21.76
7548064,0.273280,-0.124440,0.797880,-4.690000,70.349998,-77.139999,21.80
7548075,0.273768,-0.124440,0.810080,-6.300000,77.629997,-87.779999,21.80
7548086,0.171776,-0.145424,0.845704,-7.140000,85.400002,-101.500000,21.86
7548097,0.074664,-0.084912,0.873520,-9.520000,89.529999,-114.589996,21.79
7548108,-0.090768,-0.039528,0.869616,-16.240000,92.330002,-122.919998,21.79
7548119,-0.234728,-0.041968,0.874984,-33.599998,94.010002,-131.250000,21.77
7548131,-0.332816,-0.101992,0.889136,-39.270000,95.059998,-136.850006,21.77
7548142,-0.406016,-0.079544,0.955992,-39.689999,95.410004,-138.880005,21.82
7548153,-0.512400,-0.059048,1.014064,-34.580002,88.900002,-138.389999,21.78
7548164,-0.522648,-0.047824,1.080920,-18.549999,82.250000,-132.089996,21.78
7548175,-0.487024,0.020984,1.167784,-6.370000,70.489998,-118.440002,21.80
7548186,-0.484096,0.125904,1.325896,2.030000,55.299999,-96.949997,21.80
7548197,-0.447496,0.293776,1.432768,2.940000,30.240000,-73.989998,21.80
7548208,-0.331840,0.328424,1.353224,3.010000,8.960000,-39.619999,21.80
7548219,-0.230824,0.261080,1.147776,-1.400000,-2.450000,-5.460000,21.80
7548230,-0.188368,0.228872,1.016504,-13.650000,-11.480000,19.879999,21.82
7548241,-0.205448,0.082960,1.010160,-18.760000,-17.150000,45.360001,21.82
7548252,-0.231312,-0.030256,1.050664,-11.550000,-25.480000,61.950001,21.82
7548263,-0.234728,-0.138592,1.077504,3.710000,-32.480000,69.930000,21.82
7548274,-0.225456,-0.198128,1.070184,20.860001,-38.919998,70.349998,21.80
7548285,-0.216184,-0.195200,1.050176,31.570000,-45.290001,69.089996,21.82
7548296,-0.204472,-0.184464,1.039440,35.349998,-49.419998,65.660004,21.82
7548307,-0.202032,-0.202520,1.004304,42.419998,-53.619999,63.419998,21.77
7548318,-0.157624,-0.156648,0.972584,43.680000,-56.000000,62.790001,21.77
7548329,-0.135176,-0.086376,0.938424,35.700001,-57.820000,65.589996,21.86
7548340,-0.121024,-0.058560,0.942328,22.120001,-57.820000,68.180000,21.80
7548351,-0.135664,-0.070760,0.969168,17.219999,-57.889999,69.370003,21.80
7548362,-0.109312,-0.094672,0.974048,20.020000,-57.470001,69.300003,21.82
7548373,-0.081496,-0.111752,0.956480,23.450001,-55.860001,67.410004,21.82
7548384,-0.084912,-0.093696,0.926712,27.719999,-53.830002,66.010002,21.83
7548395,-0.013664,-0.052216,0.918416,24.709999,-51.169998,66.500000,21.80
7548406,0.017080,-0.066368,0.936960,17.709999,-48.439999,65.169998,21.80
7548420,0.000976,-0.004880,0.981368,7.910000,-48.790001,64.820000,21.78
7548431,-0.028304,0.037576,1.004792,-5.180000,-50.189999,65.099998,21.78
7548442,0.028792,-0.023424,1.008696,-9.520000,-53.340000,64.470001,21.83
7548452,0.117120,-0.072712,0.980392,-3.850000,-55.650002,59.709999,21.77
7548463,0.168848,-0.092232,0.968192,7.980000,-54.180000,53.200001,21.77
7548474,0.188368,-0.046360,0.963312,16.520000,-52.360001,49.560001,21.82
7548486,0.195688,0.009760,0.957456,18.830000,-49.700001,46.759998,21.82
7548496,0.198616,0.002440,0.917928,18.200001,-46.270000,45.220001,21.82
7548507,0.263520,-0.000976,0.911584,14.630000,-44.660000,44.939999,21.80
7548518,0.321592,0.000488,0.901824,12.390000,-42.000000,42.700001,21.80
7548529,0.351848,0.037088,0.922808,13.020000,-39.900002,40.040001,21.79
7548540,0.422120,0.060024,0.953552,13.860000,-38.849998,36.889999,21.79
7548551,0.445056,0.050264,0.959408,14.910000,-35.560001,32.900002,21.81
7548562,0.482144,0.039040,0.954528,8.400000,-34.930000,29.400000,21.81
7548573,0.524600,0.009760,0.961360,12.250000,-31.639999,25.830000,21.79
7548584,0.566080,0.027816,0.976000,10.430000,-30.309999,24.080000,21.81
7548595,0.623664,0.040504,0.981368,7.980000,-29.750000,20.719999,21.81
7548606,0.674416,0.040504,0.967216,4.830000,-28.629999,17.850000,21.82
7548617,0.716384,0.050264,0.962336,0.210000,-26.250000,14.840000,21.82
7548628,0.737368,0.041968,0.957456,-1.540000,-23.170000,12.320000,21.81
7548638,0.753960,0.052216,0.941840,-4.690000,-20.299999,11.200000,21.79
7548650,0.788120,0.027328,0.925248,-7.490000,-15.400000,9.870000,21.79
7548661,0.809104,0.012200,0.916952,-10.570000,-9.450000,8.540000,21.83
7548671,0.809104,-0.023424,0.918904,-13.020000,-3.710000,6.720000,21.83
7548683,0.794952,-0.045872,0.915000,-13.160000,0.630000,4.550000,21.80
7548694,0.776896,-0.037576,0.921344,-12.320000,5.530000,2.870000,21.78
7548704,0.749080,-0.060512,0.938424,-11.970000,11.060000,0.210000,21.78
7548715,0.728096,-0.094672,0.960872,-10.150000,14.700000,-3.220000,21.79
7548727,0.698328,-0.111752,0.976000,-9.450000,18.340000,-5.740000,21.79
7548738,0.659776,-0.161040,0.965264,-5.810000,22.120001,-11.200000,21.83
7548749,0.633912,-0.174704,0.944768,-2.170000,25.129999,-17.639999,21.83
7548760,0.608048,-0.184464,0.918904,0.490000,27.510000,-24.080000,21.83
7548771,0.579744,-0.167872,0.894992,1.960000,31.010000,-29.610001,21.80
7548781,0.564128,-0.142496,0.878888,1.120000,35.209999,-36.820000,21.80
7548792,0.523136,-0.140056,0.857904,-0.700000,39.619999,-44.520000,21.79
7548804,0.457256,-0.126392,0.860344,-5.180000,44.660000,-50.889999,21.79
7548815,0.410408,-0.146400,0.846192,-6.650000,50.470001,-56.630001,21.82
7548826,0.383080,-0.126880,0.854000,-12.460000,54.320000,-63.770000,21.77
7548837,0.431392,-0.162504,0.837408,-13.090000,58.730000,-76.089996,21.77
7548848,0.448472,-0.159576,0.799344,-12.110000,68.250000,-89.739998,21.78
7548859,0.310856,-0.084912,0.800808,-14.490000,80.150002,-105.559998,21.78
7548870,0.156648,-0.090280,0.733952,-17.150000,92.750000,-118.300003,21.84
7548881,0.002928,-0.028304,0.772016,-29.190001,97.860001,-125.440002,21.77
7548892,-0.154208,-0.075640,0.851072,-41.090000,101.639999,-131.460007,21.77
7548903,-0.298168,-0.191784,0.935496,-33.880001,104.860001,-138.320007,21.81
7548914,-0.384056,-0.116632,1.000888,-27.299999,100.519997,-144.339996,21.81
7548925,-0.476288,-0.040992,1.025776,-14.630000,98.559998,-144.550003,21.80
7548936,-0.535824,0.039528,1.044808,-0.840000,96.529999,-139.860001,21.81
7548947,-0.553880,0.120048,1.119960,3.780000,87.779999,-125.720001,21.81
7548958,-0.545096,0.194712,1.343464,3.360000,69.089996,-103.949997,21.83
7548969,-0.507032,0.334768,1.550864,-1.260000,45.639999,-74.410004,21.83
7548981,-0.404552,0.401136,1.474248,-1.680000,15.890000,-44.869999,21.77
7548992,-0.237168,0.327936,1.261480,-5.880000,-2.940000,-9.730000,21.77
7549003,-0.188856,0.289872,1.053592,-14.840000,-12.810000,20.860001,21.77
7549014,-0.186904,0.146400,0.973072,-22.540001,-16.170000,47.389999,21.78
7549025,-0.214232,0.003416,1.011136,-17.360001,-21.910000,62.299999,21.78
7549036,-0.223016,-0.118584,1.076040,-6.860000,-30.309999,72.449997,21.84
7549047,-0.230336,-0.222528,1.114104,4.970000,-39.689999,73.220001,21.84
7549058,-0.220088,-0.212768,1.102392,18.549999,-46.689999,71.120003,21.80
7549069,-0.209840,-0.203496,1.047736,26.879999,-52.779999,68.110001,21.79
7549081,-0.170312,-0.206912,0.996008,33.529999,-55.790001,64.400002,21.79
7549092,-0.143472,-0.187392,0.949160,33.459999,-56.630001,61.669998,21.79
7549103,-0.137616,-0.185440,0.940864,29.049999,-57.400002,60.900002,21.79
7549114,-0.140544,-0.173240,0.915488,27.160000,-57.610001,61.320000,21.77
7549125,-0.123952,-0.167872,0.912560,26.110001,-57.540001,62.369999,21.76
7549136,-0.122000,-0.135176,0.910120,23.590000,-55.860001,63.070000,21.76
7549147,-0.120048,-0.122000,0.906704,21.559999,-54.529999,63.419998,21.82
7549158,-0.074176,-0.092720,0.911096,19.040001,-51.939999,63.700001,21.82
7549169,-0.045384,-0.081496,0.925736,13.580000,-49.209999,62.790001,21.83
7549181,-0.040992,-0.109800,0.943304,11.410000,-46.900002,60.900002,21.79
7549192,-0.012200,-0.105896,0.952576,12.110000,-46.619999,58.099998,21.79
7549203,0.051728,-0.045872,0.947696,10.010000,-45.080002,55.439999,21.83
7549214,0.081008,-0.042944,0.949160,6.020000,-43.959999,54.320000,21.83
7549225,0.163968,-0.092232,0.955504,4.480000,-41.090000,49.910000,21.78
7549236,0.171288,-0.110288,0.959408,4.900000,-39.759998,44.240002,21.78
7549247,0.209352,-0.095648,0.955016,10.710000,-39.759998,39.619999,21.78
7549257,0.246928,-0.025376,0.947696,13.510000,-38.150002,33.950001,21.79
7549269,0.249856,-0.001952,0.959896,14.980000,-36.470001,30.379999,21.79
7549280,0.266936,0.014152,0.994544,17.430000,-35.630001,27.160000,21.81
7549290,0.260104,0.050752,1.020408,18.059999,-35.070000,26.600000,21.81
7549301,0.281088,0.139080,1.033584,11.200000,-35.000000,28.420000,21.78
7549312,0.295728,0.146400,1.032608,3.570000,-35.209999,28.770000,21.81
7549323,0.319152,0.123464,1.008696,0.840000,-34.720001,29.330000,21.81
7549334,0.383080,0.103944,0.970144,1.050000,-33.669998,29.469999,21.78
7549345,0.429928,0.095648,0.950136,-1.470000,-30.309999,27.860001,21.78
7549355,0.446032,0.076128,0.958432,-2.870000,-28.070000,26.670000,21.81
7549366,0.452864,0.065880,0.982832,-2.380000,-27.650000,25.270000,21.81
7549377,0.467504,0.070760,1.016504,-6.580000,-29.469999,24.080000,21.81
7549389,0.539728,0.043920,1.012600,7.630000,-26.950001,21.280001,21.80
7549400,0.595848,0.064416,1.003328,10.990000,-26.250000,18.270000,21.80
7549411,0.632448,0.077592,0.981368,10.920000,-25.059999,15.330000,21.82
7549422,0.673440,0.084912,0.964776,9.800000,-22.469999,13.090000,21.82
7549433,0.688080,0.084912,0.951112,7.140000,-18.760000,11.760000,21.82
7549443,0.684664,0.100040,0.941352,1.750000,-15.680000,11.830000,21.80
7549454,0.688080,0.084424,0.932568,-3.570000,-13.020000,12.810000,21.80
7549465,0.716384,0.073200,0.923784,-8.050000,-8.540000,11.970000,21.79
7549476,0.722240,0.024888,0.921344,-8.820000,-4.480000,9.730000,21.79
7549487,0.726144,0.011712,0.934032,-7.770000,0.140000,7.980000,21.77
7549498,0.724680,-0.018056,0.945256,-6.160000,5.530000,5.250000,21.76
7549509,0.707600,-0.043920,0.947696,-2.730000,10.430000,2.310000,21.76
7549520,0.721752,-0.046848,0.945256,0.560000,14.070000,-0.770000,21.80
7549531,0.735904,-0.062464,0.940864,3.010000,19.110001,-4.970000,21.80
7549542,0.710040,-0.080032,0.942816,3.150000,24.570000,-11.970000,21.80
7549553,0.665632,-0.090280,0.949160,2.520000,28.209999,-19.389999,21.75
7549564,0.609024,-0.096624,0.940376,-0.630000,31.850000,-24.500000,21.75
7549575,0.589504,-0.109312,0.923784,-3.150000,35.700001,-31.219999,21.80
7549586,0.569496,-0.111752,0.905240,-5.740000,40.320000,-41.020000,21.80
7549597,0.517768,-0.083448,0.883280,-9.380000,44.099998,-51.240002,21.80
7549608,0.447496,-0.084912,0.857416,-14.910000,49.700001,-58.380001,21.80
7549619,0.361120,-0.088816,0.850096,-20.440001,56.209999,-66.010002,21.80
7549630,0.293776,-0.128344,0.825208,-23.100000,65.239998,-73.360001,21.80
7549641,0.203984,-0.129320,0.879864,-28.420000,68.110001,-80.500000,21.80
7549653,0.122976,-0.143472,0.922808,-28.139999,72.800003,-87.500000,21.80
7549664,0.004880,-0.179584,0.969168,-25.969999,75.250000,-96.389999,21.80
7549675,-0.083936,-0.238632,0.953064,-17.500000,76.790001,-104.370003,21.80
7549686,-0.141520,-0.172752,0.922320,-13.580000,75.389999,-109.339996,21.80
7549697,-0.222528,-0.105408,0.903776,-11.200000,76.510002,-111.580002,21.80
7549708,-0.272792,-0.031720,0.905240,-13.090000,77.910004,-113.190002,21.79
7549719,-0.338184,-0.032208,0.954528,-15.470000,76.230003,-110.809998,21.79
7549731,-0.393328,-0.018056,1.020408,-13.090000,70.910004,-105.070000,21.80
7549742,-0.398208,0.026352,1.077016,-11.830000,65.099998,-94.360001,21.82
7549753,-0.398696,0.047336,1.160464,-11.690000,54.740002,-82.599998,21.82
7549764,-0.383568,0.105896,1.282464,-8.540000,40.320000,-65.099998,21.78
7549775,-0.326472,0.120048,1.275632,-1.750000,22.959999,-44.590000,21.78
7549786,-0.288408,0.121512,1.191208,5.530000,9.940000,-23.520000,21.82
7549797,-0.227896,0.109312,1.063840,8.540000,-2.030000,-5.530000,21.80
7549808,-0.200568,0.068808,1.003816,7.280000,-10.850000,14.280000,21.80
7549820,-0.195688,0.036600,0.981368,6.930000,-17.850000,31.150000,21.79
7549831,-0.215696,-0.025376,0.997960,10.360000,-24.920000,42.910000,21.79
7549842,-0.214232,-0.034160,1.011136,14.630000,-31.010000,49.349998,21.76
7549853,-0.205448,-0.062952,1.020896,17.920000,-37.660000,53.619999,21.79
7549864,-0.199104,-0.075640,1.010648,22.610001,-42.349998,54.180000,21.79
7549875,-0.204472,-0.057096,0.995032,25.129999,-47.250000,56.070000,21.83
7549886,-0.174216,-0.014640,0.945256,21.000000,-51.310001,59.779999,21.83
7549897,-0.132248,-0.037576,0.922320,15.750000,-52.779999,63.000000,21.83
7549908,-0.121024,-0.029280,0.922808,10.990000,-52.990002,65.519997,21.81
7549920,-0.120536,-0.046360,0.918904,9.660000,-52.290001,67.480003,21.81
7549931,-0.099064,-0.050264,0.920368,11.620000,-52.009998,67.760002,21.81
7549941,-0.091256,-0.055632,0.912560,16.660000,-49.980000,66.010002,21.81
7549952,0.000000,-0.025864,0.896456,19.110001,-47.599998,66.290001,21.80
7549963,0.026840,-0.025376,0.927688,15.680000,-44.799999,65.099998,21.79
7549974,0.030744,-0.025376,0.981856,10.010000,-43.470001,63.139999,21.79
7549985,-0.001952,0.000000,1.029680,0.770000,-43.889999,61.950001,21.77
7549996,-0.000488,-0.028792,1.043832,-2.380000,-46.060001,60.970001,21.77
7550008,0.057584,-0.066856,1.009184,1.890000,-48.650002,57.680000,21.79
7550018,0.184464,-0.030744,0.971608,8.610000,-48.790001,54.599998,21.81
7550029,0.255712,-0.040992,0.946232,12.180000,-43.959999,47.740002,21.81
7550040,0.284992,-0.043920,0.953064,16.240000,-41.020000,41.720001,21.79
7550051,0.261080,-0.032208,0.967704,21.000000,-37.660000,37.520000,21.79
7550063,0.233752,0.012200,0.949648,19.670000,-35.980000,36.750000,21.77
7550074,0.226432,0.061488,0.943792,10.290000,-36.680000,37.799999,21.77
7550084,0.265472,0.058560,0.965752,10.500000,-34.650002,38.009998,21.79
7550095,0.339648,0.103944,0.971608,5.880000,-35.070000,36.959999,21.77
7550106,0.398208,0.084424,0.982344,2.940000,-32.970001,33.529999,21.77
7550117,0.409432,0.040504,1.006744,9.660000,-30.940001,28.629999,21.78
7550129,0.430416,0.025376,0.996984,16.590000,-29.959999,27.020000,21.78
7550139,0.455792,0.059536,0.976488,16.309999,-27.510000,26.670000,21.79
7550150,0.513864,0.080032,0.954040,13.370000,-25.480000,25.549999,21.82
7550161,0.588528,0.084912,0.961360,7.770000,-23.170000,24.080000,21.82
7550172,0.627080,0.043920,0.986248,4.830000,-20.370001,21.280001,21.79
7550183,0.652944,0.042456,1.016016,4.760000,-19.180000,17.920000,21.79
7550194,0.676856,0.053680,1.006256,4.130000,-18.059999,14.910000,21.82
7550206,0.704184,0.047336,0.994544,2.870000,-14.700000,12.320000,21.79
7550216,0.710040,0.036600,0.991128,0.980000,-10.920000,9.800000,21.79
7550227,0.710528,0.022448,0.980392,-1.400000,-7.210000,7.140000,21.79
7550238,0.718824,0.021472,0.961360,-5.180000,-4.060000,4.900000,21.79
7550249,0.731024,0.024888,0.960384,-8.890000,0.000000,3.850000,21.83
7550260,0.720288,0.032696,0.979416,-12.810000,3.500000,2.240000,21.83
7550272,0.703208,-0.033672,1.009184,-16.450001,7.840000,-1.050000,21.79
7550283,0.665632,-0.072224,1.015040,-13.230000,10.220000,-5.040000,21.79
7550294,0.651480,-0.074176,1.005768,-9.660000,13.020000,-8.050000,21.79
7550305,0.648552,-0.089792,0.992104,-8.050000,16.590000,-12.740000,21.83
7550316,0.623664,-0.130784,0.983808,-6.860000,19.459999,-18.969999,21.83
7550327,0.581696,-0.145424,0.959408,-3.850000,22.820000,-26.530001,21.79
7550338,0.550464,-0.142984,0.931592,0.350000,26.459999,-31.850000,21.76
7550349,0.506056,-0.132248,0.916952,1.190000,30.520000,-37.939999,21.76
7550360,0.463112,-0.088816,0.882304,-2.730000,34.090000,-43.330002,21.77
7550372,0.413336,-0.095648,0.872544,-9.310000,38.709999,-48.860001,21.77
7550383,0.385520,-0.089304,0.859368,-13.580000,43.189999,-55.509998,21.75
7550394,0.350872,-0.090768,0.840336,-19.459999,49.279999,-61.110001,21.76
7550405,0.300608,-0.104920,0.858392,-24.010000,56.139999,-69.370003,21.76
7550416,0.240584,-0.196664,0.859368,-21.840000,62.230000,-79.169998,21.80
7550428,0.167384,-0.195200,0.847168,-15.750000,66.709999,-89.250000,21.80
7550439,0.081008,-0.168848,0.837896,-13.160000,71.470001,-95.900002,21.82
7550450,0.022448,-0.145912,0.826672,-11.830000,77.279999,-103.739998,21.74
7550461,-0.049288,-0.129320,0.869128,-14.980000,80.989998,-111.089996,21.74
7550472,-0.126392,-0.095648,0.925248,-12.880000,85.400002,-118.370003,21.79
7550483,-0.233752,-0.045384,0.917440,-18.480000,85.750000,-122.220001,21.79
7550494,-0.316224,-0.056120,0.962336,-19.250000,87.010002,-122.779999,21.83
7550506,-0.392352,-0.071248,1.021384,-8.120000,85.050003,-121.169998,21.75
7550517,-0.440176,-0.053192,1.108248,6.790000,78.610001,-117.459999,21.75
7550528,-0.456768,0.022936,1.184376,27.020000,68.599998,-106.260002,21.78
7550539,-0.448472,0.165920,1.277096,36.330002,51.240002,-93.239998,21.78
7550550,-0.409920,0.368928,1.331264,30.870001,30.520000,-69.440002,21.76
7550561,-0.326960,0.399184,1.292224,22.469999,15.960000,-41.160000,21.78
7550572,-0.249368,0.352824,1.164368,11.060000,0.910000,-13.300000,21.78
7550583,-0.208376,0.288408,1.066768,1.890000,-9.800000,7.770000,21.80
7550594,-0.194712,0.246928,1.016016,-2.100000,-17.430000,31.639999,21.80
7550605,-0.203984,0.168360,1.022360,-1.890000,-24.430000,47.740002,21.80
7550616,-0.196176,0.109312,1.051152,0.210000,-29.820000,57.259998,21.78
7550628,-0.193248,0.014152,1.066280,5.460000,-36.259998,59.990002,21.78
7550639,-0.183976,-0.043432,1.053104,13.510000,-42.700001,60.340000,21.77
7550650,-0.162504,-0.007808,1.013088,17.430000,-47.250000,61.320000,21.77
7550661,-0.151280,0.008296,0.972584,17.080000,-50.119999,63.279999,21.84
7550672,-0.127856,0.027816,0.934520,14.560000,-51.590000,66.150002,21.77
7550683,-0.103944,0.024888,0.917928,11.340000,-51.240002,67.830002,21.77
7550694,-0.066368,0.000976,0.937936,9.940000,-50.049999,68.389999,21.80
7550706,-0.062464,-0.022448,0.961360,11.060000,-48.580002,67.550003,21.80
7550717,-0.065392,0.019032,0.960872,11.480000,-47.950001,68.529999,21.78
7550728,-0.040016,0.047336,0.968192,8.260000,-46.549999,69.160004,21.77
7550739,-0.048312,0.034648,0.978928,5.110000,-45.779999,69.860001,21.77
7550750,-0.053192,0.039528,1.002840,0.910000,-45.919998,71.750000,21.82
7550761,-0.022448,-0.018544,1.011136,1.610000,-45.919998,72.169998,21.82
7550772,0.075152,-0.009272,1.023824,4.130000,-47.529999,71.050003,21.79
7550783,0.119560,0.003416,1.019920,6.020000,-47.110001,66.150002,21.78
7550794,0.143472,-0.014640,0.999912,11.830000,-46.340000,59.990002,21.78
7550805,0.188368,-0.005856,0.969656,16.309999,-45.570000,56.070000,21.74
7550816,0.237656,-0.000976,0.977464,14.910000,-43.680000,53.410000,21.74
7550827,0.263520,0.045872,0.992104,11.480000,-42.000000,51.240002,21.77
7550839,0.273280,0.076616,1.037976,5.040000,-41.090000,50.610001,21.77
7550849,0.249368,0.064416,1.075064,2.520000,-41.650002,49.349998,21.75
7550860,0.287432,0.049288,1.058960,4.690000,-43.750000,47.740002,21.77
7550871,0.340136,0.040504,0.999424,5.460000,-42.840000,46.270000,21.77
7550882,0.391864,-0.122000,0.966728,4.760000,-40.599998,44.169998,21.75
7550893,0.422608,-0.001952,0.962336,7.210000,-37.099998,41.860001,21.75
7550904,0.428952,0.042456,0.981856,5.740000,-34.509998,39.340000,21.80
7550915,0.436272,0.059048,0.999912,0.700000,-33.250000,37.169998,21.71
7550926,0.455792,0.049288,1.009672,-5.810000,-33.950001,35.139999,21.71
7550937,0.513864,0.003904,1.012600,-5.250000,-31.080000,33.459999,21.78
7550948,0.556808,-0.020008,1.020408,-5.320000,-29.820000,29.469999,21.78
7550959,0.590480,-0.023912,1.011624,-3.150000,-27.790001,25.760000,21.77
7550970,0.612440,-0.027816,1.000400,-1.820000,-25.270000,21.280001,21.77
7550981,0.626104,-0.030744,0.981856,-0.910000,-21.840000,17.639999,21.77
7550992,0.642696,-0.023424,0.958920,-1.820000,-18.969999,14.280000,21.73
7551003,0.669536,-0.055144,0.936472,-4.410000,-14.560000,11.270000,21.73
7551014,0.673928,-0.072224,0.920368,-5.180000,-10.150000,6.860000,21.78
7551025,0.660264,-0.054168,0.935984,-7.140000,-5.950000,3.010000,21.78
7551036,0.650016,-0.065880,0.936472,-10.640000,-2.310000,-1.050000,21.75
7551049,0.629520,-0.098576,0.925736,-13.510000,3.430000,-5.110000,21.78
7551060,0.615368,-0.145424,0.916952,-13.580000,8.750000,-10.920000,21.78
7551071,0.583648,-0.177632,0.897920,-9.870000,12.810000,-17.709999,21.77
7551082,0.550464,-0.189344,0.874984,-5.460000,17.430000,-23.450001,21.81
7551093,0.527040,-0.199104,0.861320,-1.680000,22.750000,-30.730000,21.81
7551104,0.519232,-0.166896,0.843752,-3.570000,27.719999,-36.820000,21.82
7551115,0.496784,-0.153720,0.817400,-10.150000,33.040001,-44.450001,21.82
7551126,0.454816,-0.171288,0.807640,-14.700000,40.040001,-50.680000,21.83
7551137,0.392840,-0.164944,0.806664,-16.590000,46.200001,-58.660000,21.83
7551149,0.357704,-0.176656,0.803248,-18.969999,52.990002,-66.220001,21.84
7551160,0.325008,-0.203008,0.787632,-19.250000,59.009998,-74.480003,21.81
7551171,0.270352,-0.222528,0.787144,-16.450001,66.919998,-82.809998,21.81
7551182,0.197640,-0.219600,0.793976,-8.330000,74.129997,-93.660004,21.84
7551193,0.069784,-0.143960,0.818376,-4.130000,80.639999,-102.550003,21.84
7551205,-0.005368,-0.089304,0.824720,1.330000,87.639999,-107.309998,21.80
7551216,-0.091256,-0.055632,0.877912,-13.790000,87.430000,-110.459999,21.84
7551227,-0.167872,-0.071736,0.934032,-17.150000,89.739998,-112.139999,21.84
7551238,-0.252784,-0.055632,0.981856,-19.320000,89.389999,-113.470001,21.79
7551250,-0.315248,-0.048800,1.002352,-14.630000,85.750000,-114.029999,21.81
7551261,-0.339648,0.020984,1.012112,-12.390000,81.760002,-110.599998,21.81
7551272,-0.341112,0.025864,1.016504,-5.810000,76.510002,-104.930000,21.79
7551284,-0.362096,0.070760,1.083360,4.900000,69.300003,-94.709999,21.79
7551295,-0.373808,0.165432,1.177056,12.320000,55.020000,-82.250000,21.77
7551306,-0.328912,0.225456,1.244888,15.610000,37.730000,-61.529999,21.77
7551317,-0.299632,0.251320,1.261480,19.530001,19.110001,-37.590000,21.80
7551328,-0.249856,0.297192,1.197064,20.440001,6.440000,-0.070000,21.79
7551338,-0.222528,0.288896,1.121424,16.590000,-5.390000,4.900000,21.79
7551350,-0.202520,0.218624,1.065304,14.770000,-14.910000,25.480000,21.82
7551361,-0.193736,0.181536,1.083360,11.970000,-20.299999,40.529999,21.82
7551372,-0.202032,0.123952,1.107272,9.100000,-29.540001,51.169998,21.82
7551383,-0.188856,0.082472,1.117032,7.560000,-38.009998,55.790001,21.82
7551394,-0.200080,0.072224,1.092632,6.300000,-45.500000,60.410000,21.82
7551406,-0.157624,0.017080,1.037976,7.140000,-49.490002,63.000000,21.79
7551417,-0.141032,-0.018544,0.995520,10.850000,-51.310001,63.980000,21.79
7551428,-0.123952,-0.015616,0.984784,15.050000,-52.849998,65.660004,21.80
7551440,-0.098576,0.020984,1.013088,13.160000,-54.040001,69.019997,21.77
7551451,-0.117120,0.022936,1.036024,9.730000,-54.880001,71.330002,21.77
7551462,-0.113704,0.009760,1.030168,7.210000,-55.580002,72.379997,21.80
7551473,-0.069784,0.000488,0.995520,5.250000,-55.299999,72.169998,21.80
7551484,-0.022936,-0.001464,0.967216,3.570000,-53.900002,69.440002,21.80
7551496,0.023912,-0.028304,0.955016,2.450000,-50.610001,65.169998,21.82
7551507,0.044896,-0.066368,0.973072,6.300000,-48.509998,61.810001,21.82
7551518,0.054656,-0.050752,0.980880,8.470000,-48.020000,59.220001,21.83
7551529,0.091744,-0.032208,0.974048,10.920000,-46.130001,57.330002,21.83
7551540,0.174216,-0.035136,0.978928,11.130000,-44.099998,55.230000,21.82
7551551,0.230336,0.004392,0.978440,10.990000,-42.560001,52.290001,21.75
7551562,0.250344,0.035624,1.008696,7.210000,-40.250000,49.630001,21.75
7551573,0.236192,0.010736,1.048224,5.880000,-39.340000,45.570000,21.82
7551584,0.209840,-0.010736,1.042368,7.770000,-38.709999,42.840000,21.82
7551595,0.209840,-0.027816,1.005280,9.450000,-37.939999,41.369999,21.80
7551606,0.279624,-0.012688,0.977952,12.250000,-37.450001,40.529999,21.79
7551617,0.352824,0.006344,0.923784,10.080000,-34.369999,38.080002,21.79
7551627,0.397720,0.032208,0.910120,6.020000,-30.940001,35.279999,21.76
7551638,0.438224,0.055632,0.927200,0.770000,-28.629999,32.130001,21.76
7551649,0.438224,0.067832,0.953552,-5.460000,-26.040001,30.379999,21.80
7551660,0.448960,0.059048,0.965752,-7.840000,-24.010000,29.049999,21.80
7551671,0.472384,0.059536,0.967216,-11.270000,-21.629999,28.770000,21.79
7551682,0.502640,0.039040,0.976488,-14.210000,-19.950001,25.129999,21.78
7551693,0.534848,0.006832,0.985272,-13.790000,-18.200001,21.840000,21.78
7551704,0.563640,0.018056,0.985760,-12.250000,-16.660000,17.709999,21.77
7551715,0.585112,0.013664,0.971608,-13.720000,-14.910000,14.700000,21.77
7551726,0.600728,0.010736,0.944768,-17.570000,-11.760000,11.970000,21.85
7551737,0.620248,-0.003904,0.935496,-22.820000,-8.190000,10.010000,21.81
7551748,0.640744,-0.034160,0.941352,-24.290001,-4.270000,7.070000,21.81
7551760,0.629520,-0.060512,0.966728,-23.940001,-1.120000,2.800000,21.80
7551770,0.610000,-0.081496,0.981368,-19.389999,0.840000,0.350000,21.80
7551781,0.601704,-0.071736,0.989664,-17.290001,3.850000,-2.660000,21.77
7551792,0.603656,-0.062464,0.990640,-15.330000,6.230000,-4.830000,21.76
7551803,0.625128,-0.042456,0.996984,-18.059999,9.800000,-4.690000,21.76
7551814,0.628544,-0.067344,1.026752,-24.219999,13.930000,-5.670000,21.79
7551825,0.568520,-0.116632,1.041392,-25.620001,16.870001,-10.150000,21.79
7551837,0.509472,-0.160064,1.046760,-23.870001,17.990000,-15.540000,21.80
7551848,0.454328,-0.227408,1.033584,-12.670000,18.760000,-21.000000,21.77
7551859,0.439200,-0.223992,1.012112,-2.800000,19.600000,-26.250000,21.77
7551870,0.415288,-0.139080,0.989176,-3.990000,20.860001,-30.170000,21.79
7551881,0.393816,-0.083936,0.966240,-10.290000,23.799999,-34.439999,21.79
7551892,0.377712,-0.074176,0.959896,-20.160000,26.250000,-37.380001,21.79
7551903,0.337696,-0.099552,0.952088,-24.780001,29.120001,-40.389999,21.79
7551915,0.339160,-0.122488,0.940864,-25.549999,32.900002,-43.680000,21.79
7551926,0.319152,-0.180560,0.905240,-21.840000,38.009998,-49.349998,21.75
7551937,0.295728,-0.199104,0.891576,-14.000000,42.279999,-55.790001,21.75
7551948,0.261080,-0.244976,0.887184,-2.240000,48.160000,-62.650002,21.78
7551959,0.216672,-0.248392,0.895968,9.800000,53.060001,-72.730003,21.78
7551970,0.187880,-0.178120,0.894504,18.549999,57.680000,-81.199997,21.71
7551981,0.140056,-0.154696,0.889136,17.430000,60.480000,-89.389999,21.80
7551992,0.082960,-0.124440,0.900848,13.580000,63.560001,-98.769997,21.80
7552003,-0.004880,-0.042944,0.878400,4.270000,67.620003,-107.169998,21.77
7552014,-0.054656,-0.028304,0.833016,-9.310000,72.519997,-114.099998,21.77
7552025,-0.126392,-0.032696,0.813496,-16.940001,78.330002,-118.580002,21.84
7552036,-0.238144,-0.016592,0.843752,-20.440001,83.160004,-122.010002,21.77
7552047,-0.299632,-0.037088,0.937448,-16.799999,85.260002,-121.449997,21.77
7552058,-0.348920,-0.002928,1.042368,-5.740000,81.760002,-118.019997,21.81
7552070,-0.403088,0.110288,1.207800,5.460000,55.090000,-109.830002,21.81
7552081,-0.446520,0.248880,1.378600,10.360000,51.939999,-97.089996,21.78
7552092,-0.388936,0.440664,1.381040,9.100000,27.160000,-70.209999,21.82
7552103,-0.281088,0.474824,1.258064,1.610000,8.050000,-37.799999,21.82
7552114,-0.203008,0.457256,1.072136,-11.410000,-3.220000,-10.710000,21.77
7552125,-0.137128,0.307928,0.949648,-20.440001,-9.800000,20.440001,21.77
7552136,-0.112240,0.118096,0.902800,-14.910000,-13.370000,43.610001,21.80
7552147,-0.124440,0.033184,0.967216,0.070000,-17.430000,59.709999,21.77
7552158,-0.153720,-0.047336,1.045296,17.290001,-25.480000,67.760002,21.77
7552169,-0.149816,-0.118096,1.064816,28.910000,-32.689999,69.300003,21.77
7552180,-0.156160,-0.112728,1.049200,34.930000,-39.900002,67.059998,21.77
7552191,-0.153720,-0.074664,1.043832,32.060001,-45.500000,65.589996,21.75
7552202,-0.160552,-0.081984,0.992104,25.129999,-51.660000,64.680000,21.77
7552213,-0.096624,-0.086864,0.921344,17.639999,-53.480000,64.959999,21.77
7552225,-0.029768,-0.108336,0.879864,8.330000,-50.540001,64.959999,21.79
7552236,-0.024888,-0.142496,0.883768,3.500000,-45.430000,62.930000,21.79
7552247,-0.040504,-0.137128,0.927688,0.070000,-43.400002,62.790001,21.80
7552258,-0.083448,-0.138104,0.957456,0.350000,-42.349998,63.070000,21.82
7552269,-0.113704,-0.162016,0.955016,4.900000,-43.259998,64.330002,21.82
7552280,-0.015128,-0.137616,0.929640,11.130000,-42.209999,63.980000,21.79
7552293,0.046848,-0.113704,0.941840,11.200000,-37.590000,61.669998,21.79
7552304,0.075640,-0.150304,0.977952,11.830000,-33.669998,56.209999,21.81
7552315,0.061976,-0.162504,1.017480,18.200001,-32.900002,49.910000,21.76
7552326,0.050264,-0.107360,1.021384,22.400000,-32.480000,46.759998,21.76
7552337,0.067344,-0.066368,1.014064,22.400000,-32.480000,46.130001,21.79
7552347,0.120536,-0.053680,1.014552,20.090000,-32.549999,44.799999,21.79
7552358,0.165432,-0.006344,1.033096,16.309999,-32.480000,42.139999,21.79
7552369,0.167872,0.040504,1.047248,10.360000,-32.130001,40.110001,21.79
7552380,0.179584,0.025864,1.054568,7.350000,-31.570000,38.709999,21.77
7552391,0.201056,0.002440,1.032608,8.190000,-30.450001,37.869999,21.78
7552402,0.235216,-0.010736,0.996984,6.930000,-28.139999,38.430000,21.78
7552412,0.253272,-0.006344,0.995032,5.530000,-26.600000,37.240002,21.79
7552423,0.242048,0.029768,1.026752,0.770000,-26.180000,36.889999,21.79
7552434,0.221552,0.041968,1.077992,-1.330000,-28.209999,35.630001,21.80
7552445,0.227896,0.055144,1.088240,-0.350000,-30.660000,35.000000,21.78
7552456,0.291824,0.036600,1.091656,0.420000,-32.200001,34.790001,21.78
7552467,0.325984,0.023424,1.092632,-4.970000,-34.580002,31.709999,21.81
7552478,0.344040,0.029768,1.068232,6.370000,-31.500000,29.400000,21.81
7552489,0.343064,0.024400,1.068720,7.280000,-31.780001,27.230000,21.77
7552499,0.354288,0.026840,1.072136,7.980000,-33.389999,25.480000,21.77
7552510,0.406504,0.045384,1.038952,10.570000,-33.180000,25.760000,21.81
7552521,0.460184,0.075152,1.020896,7.840000,-32.619999,24.990000,21.78
7552532,0.491416,0.090768,0.998936,5.320000,-30.520000,22.820000,21.78
7552543,0.503128,0.077104,1.004304,0.910000,-28.910000,21.209999,21.80
7552554,0.506544,0.032696,1.011624,0.420000,-27.020000,20.650000,21.80
7552564,0.521184,0.022936,0.999424,1.610000,-25.480000,19.250000,21.76
7552575,0.562176,0.011712,0.957456,1.470000,-22.190001,19.040001,21.80
7552586,0.588528,-0.003904,0.942816,0.420000,-18.129999,17.709999,21.80
7552597,0.590968,-0.018544,0.923784,-1.260000,-14.700000,15.960000,21.77
7552608,0.589504,-0.044408,0.927200,-2.450000,-10.500000,14.070000,21.77
7552619,0.573888,-0.064904,0.924760,-1.050000,-7.000000,10.850000,21.79
7552630,0.579744,-0.081984,0.939400,-0.350000,-3.290000,8.050000,21.79
7552641,0.570472,-0.110288,0.955504,1.330000,-0.490000,4.060000,21.80
7552652,0.556320,-0.107848,0.956480,0.770000,2.450000,0.770000,21.79
7552663,0.536312,-0.118584,0.951600,-0.770000,5.110000,-3.920000,21.79
7552674,0.514840,-0.118584,0.936472,-1.190000,7.070000,-8.820000,21.83
7552685,0.496784,-0.122000,0.917440,-1.470000,9.590000,-12.880000,21.83
7552696,0.484584,-0.130784,0.905240,-2.310000,13.300000,-16.309999,21.77
7552708,0.462136,-0.125904,0.892552,-4.480000,17.080000,-20.510000,21.76
7552719,0.436272,-0.156160,0.896944,-5.530000,20.790001,-25.969999,21.76
7552730,0.414312,-0.160064,0.889136,-5.460000,23.520000,-31.500000,21.80
7552741,0.391864,-0.169336,0.883768,-3.150000,27.160000,-36.680000,21.80
7552752,0.361608,-0.178608,0.868640,1.540000,31.219999,-43.049999,21.78
7552763,0.343064,-0.181048,0.862296,8.330000,34.790001,-49.630001,21.78
7552774,0.332328,-0.164456,0.849608,12.250000,39.900002,-54.110001,21.78
7552785,0.300120,-0.113216,0.852048,10.010000,45.150002,-59.500000,21.80
7552796,0.237656,-0.075640,0.850584,4.620000,49.840000,-64.120003,21.80
7552807,0.199104,-0.053192,0.838384,-5.600000,53.830002,-68.879997,21.76
7552818,0.177144,-0.063928,0.846192,-12.320000,59.990002,-71.889999,21.78
7552829,0.139568,-0.074176,0.827160,-21.629999,64.400002,-77.489998,21.78
7552840,0.078568,-0.134688,0.856440,-22.820000,69.720001,-84.209999,21.82
7552851,0.022448,-0.151768,0.910608,-17.709999,89.529999,-91.349998,21.82
7552862,-0.048800,-0.136152,0.933056,-14.840000,73.220001,-96.739998,21.78
7552874,-0.120536,-0.125416,0.923296,-11.130000,73.010002,-101.430000,21.75
7552886,-0.132736,-0.087840,0.939400,-9.660000,72.589996,-103.529999,21.75
7552897,-0.173728,-0.077592,0.945744,-7.420000,72.800003,-105.910004,21.77
7552909,-0.180560,-0.068320,0.956480,-5.950000,72.940002,-106.889999,21.77
7552920,-0.214232,-0.059536,1.005280,-3.710000,72.449997,-106.680000,21.82
7552931,-0.265960,-0.034160,1.078968,3.850000,69.230003,-103.739998,21.73
7552942,-0.280112,0.010248,1.163880,12.670000,61.320000,-97.720001,21.73
7552953,-0.287920,0.084424,1.235128,21.000000,50.189999,-88.620003,21.79
7552964,-0.295728,0.206424,1.330288,25.480000,33.950001,-75.599998,21.79
7552975,-0.268400,0.287920,1.310768,28.139999,21.000000,-57.959999,21.77
7552986,-0.203008,0.345016,1.243912,25.690001,7.490000,-40.110001,21.75
7552997,-0.161528,0.339648,1.131672,20.510000,-2.170000,-17.850000,21.75
7553008,-0.142008,0.271328,1.061888,16.730000,-7.490000,2.380000,21.82
7553019,-0.123952,0.238144,1.038464,17.150000,-12.460000,16.660000,21.82
7553029,-0.129808,0.222040,1.042856,19.180000,-15.890000,31.010000,21.77
7553041,-0.136640,0.190320,1.055544,19.530001,-20.650000,41.369999,21.77
7553052,-0.119560,0.144448,1.063840,17.500000,-23.870001,47.669998,21.76
7553062,-0.120536,0.098576,1.065304,16.730000,-28.420000,50.680000,21.76
7553073,-0.116632,0.069784,1.082384,16.870001,-33.669998,52.990002,21.76
7553084,-0.135176,0.067344,1.067256,22.260000,-38.080002,55.230000,21.80
7553096,-0.108824,0.092232,1.026752,28.000000,-43.259998,60.340000,21.80
7553107,-0.101016,0.104920,0.990640,26.250000,-45.360001,64.820000,21.80
7553118,-0.079544,0.092232,0.982344,23.309999,-45.639999,69.370003,21.75
7553129,-0.090768,0.096624,1.017968,19.250000,-46.549999,72.519997,21.75
7553139,-0.119072,0.113704,1.034072,16.590000,-48.509998,75.459999,21.76
7553150,-0.106872,0.110288,1.032120,13.650000,-50.610001,79.660004,21.76
7553161,-0.101016,0.056608,1.028704,11.060000,-51.590000,80.779999,21.80
7553172,-0.086376,0.039528,1.004304,13.860000,-53.060001,79.870003,21.80
7553183,0.016104,0.078080,0.979416,14.420000,-53.410000,79.099998,21.80
7553194,0.047824,0.066856,0.980880,10.920000,-51.450001,75.879997,21.79
7553205,0.072712,0.058072,0.990152,9.450000,-50.470001,73.360001,21.79
7553216,0.063440,0.062464,1.022848,7.980000,-50.610001,71.680000,21.77
7553226,0.048800,0.041480,1.023336,9.800000,-51.240002,69.650002,21.77
7553237,0.122488,0.046848,1.007720,11.830000,-53.340000,68.180000,21.77
7553248,0.133224,0.064416,0.996984,11.760000,-52.290001,65.239998,21.78
7553259,0.158600,0.064416,0.997960,15.050000,-51.869999,61.599998,21.78
7553270,0.175192,0.073688,0.996984,18.410000,-51.240002,58.869999,21.77
7553281,0.181536,0.081984,0.958920,20.020000,-50.119999,57.119999,21.77
7553292,0.270840,0.092720,0.941840,15.750000,-47.880001,58.520000,21.83
7553302,0.326472,0.073688,0.935984,10.150000,-42.770000,57.470001,21.83
7553313,0.366976,0.094184,0.966728,4.690000,-40.599998,55.509998,21.77
7553324,0.386496,0.084912,0.992592,-3.010000,-38.009998,52.779999,21.76
7553335,0.406992,0.041968,0.995520,-7.420000,-36.330002,48.930000,21.76
7553346,0.461160,-0.026352,1.001376,-7.000000,-33.950001,45.430000,21.77
7553357,0.503128,-0.063928,1.001864,-5.460000,-31.500000,40.389999,21.77
7553368,0.526064,-0.087352,1.008208,-0.700000,-28.490000,34.790001,21.79
7553380,0.545584,-0.122488,0.990640,7.000000,-25.969999,26.809999,21.75
7553391,0.581696,-0.159088,0.956480,12.530000,-22.959999,19.389999,21.75
7553402,0.594872,-0.106872,0.934032,15.260000,-21.000000,14.140000,21.75
7553418,0.629032,0.016104,0.939888,0.770000,-16.240000,10.430000,21.76
7553429,0.622200,0.015128,0.966728,-12.250000,-12.320000,7.840000,21.76
7553440,0.621712,0.003416,0.982832,-23.309999,-9.450000,4.830000,21.76
7553451,0.628056,-0.036600,0.996984,-29.610001,-6.230000,1.190000,21.76
7553462,0.630008,-0.079056,0.993080,-32.410000,-3.780000,-3.150000,21.79
7553474,0.630984,-0.128832,0.994544,-29.120001,-0.350000,-8.330000,21.77
7553485,0.606584,-0.167872,0.986248,-20.230000,3.150000,-15.120000,21.77
7553496,0.588528,-0.166408,0.971120,-9.240000,6.230000,-21.840000,21.79
7553507,0.570472,-0.161528,0.948184,-2.100000,9.940000,-28.420000,21.79
7553518,0.558760,-0.153720,0.922808,3.570000,12.810000,-34.160000,21.76
7553529,0.554856,-0.115168,0.908168,4.970000,17.010000,-39.410000,21.81
7553540,0.521184,-0.084912,0.897432,3.850000,21.559999,-46.130001,21.81
7553551,0.490928,-0.037088,0.871080,-0.210000,25.410000,-52.150002,21.79
7553562,0.464576,-0.027816,0.858880,-9.240000,30.799999,-55.650002,21.79
7553574,0.428952,-0.054656,0.833504,-17.639999,37.380001,-61.529999,21.78
7553585,0.412848,-0.069296,0.805688,-25.059999,44.380001,-67.550003,21.75
7553596,0.374784,-0.110776,0.779336,-29.680000,52.849998,-75.529999,21.75
7553607,0.367464,-0.144936,0.760304,-30.450001,59.360001,-85.680000,21.73
7553618,0.306952,-0.153720,0.751520,-29.889999,69.160004,-94.849998,21.73
7553629,0.210816,-0.141032,0.766648,-26.320000,79.589996,-106.889999,21.77
7553640,0.091256,-0.095648,0.785680,-20.719999,88.199997,-115.430000,21.80
7553651,-0.023424,-0.031232,0.796416,-26.389999,92.120003,-124.599998,21.80
7553663,-0.146400,-0.051728,0.855464,-33.389999,96.739998,-130.479996,21.77
7553674,-0.275232,-0.072224,0.924760,-31.360001,97.440002,-134.259995,21.77
7553685,-0.344528,-0.025864,0.968680,-23.309999,95.830002,-137.550003,21.77
7553696,-0.405528,0.016104,1.017968,-11.200000,91.769997,-136.429993,21.79
7553709,-0.437736,0.131272,1.118496,7.350000,80.360001,-126.699997,21.79
7553720,-0.428952,0.356240,1.312720,7.490000,61.389999,-107.169998,21.77
7553731,-0.410896,0.495320,1.498648,0.630000,40.389999,-79.309998,21.77
7553742,-0.342576,0.504104,1.380552,-0.350000,13.230000,-52.220001,21.78
7553753,-0.215696,0.470432,1.084824,-7.980000,-4.620000,-16.379999,21.73
7553766,-0.115656,0.327936,0.889136,-17.570000,-11.830000,20.719999,21.73
7553779,-0.117608,0.214720,0.899384,-15.190000,-13.720000,45.500000,21.78
7553792,-0.179096,0.168848,0.987224,-8.400000,-20.510000,63.700001,21.78
7553803,-0.196176,0.046360,1.064816,-1.960000,-27.719999,68.389999,21.78
7553815,-0.197152,-0.032696,1.073600,6.860000,-34.650002,67.620003,21.81
7553826,-0.170800,-0.059048,1.048224,12.320000,-39.130001,64.680000,21.77
7553838,-0.148352,-0.075640,1.003816,18.620001,-44.240002,60.970001,21.77
7553850,-0.122976,-0.013176,0.932568,20.650000,-46.830002,59.220001,21.78
7553861,-0.076616,-0.014152,0.871568,14.840000,-46.060001,59.639999,21.78
7553872,-0.051728,-0.029280,0.875472,8.960000,-43.540001,60.689999,21.73
7553883,-0.050264,-0.006832,0.907192,4.200000,-41.230000,62.720001,21.78
7553895,-0.044408,-0.005368,0.956968,1.050000,-38.779999,64.260002,21.78
7553906,-0.062464,-0.043432,1.002352,-0.630000,-37.799999,65.519997,21.78
7553917,-0.077592,-0.059536,1.022360,3.500000,-38.919998,66.150002,21.78
7553928,-0.084912,-0.063440,1.015040,7.280000,-40.110001,66.779999,21.82
7553939,0.040992,-0.042944,0.991128,8.750000,-39.900002,68.250000,21.79
7553950,0.085888,-0.025376,1.016016,0.980000,-38.220001,64.889999,21.79
7553961,0.087840,-0.006832,1.050664,-6.370000,-35.279999,61.250000,21.80
7553972,0.075152,-0.023424,1.069208,-8.680000,-38.009998,58.169998,21.80
7553983,0.048800,-0.060024,1.088728,-6.580000,-40.740002,54.250000,21.79
7553994,0.043920,-0.070760,1.067256,3.990000,-42.840000,52.849998,21.75
7554005,0.173728,-0.074176,1.045784,16.030001,-44.730000,52.779999,21.75
7554017,0.241560,-0.018544,1.038952,21.980000,-43.400002,49.560001,21.78
7554028,0.246440,0.033184,1.025288,22.190001,-41.020000,45.990002,21.78
7554038,0.240584,0.061000,1.012600,19.670000,-39.410000,44.520000,21.79
7554049,0.215208,0.061000,0.996496,13.230000,-37.939999,45.080002,21.81
7554060,0.206912,0.053680,0.979904,10.640000,-36.470001,46.970001,21.81
7554071,0.252784,0.046360,0.982344,7.070000,-35.000000,49.349998,21.76
7554082,0.285968,0.033672,1.001376,2.800000,-33.110001,48.930000,21.76
7554093,0.323544,0.022936,1.014064,3.080000,-32.759998,45.990002,21.83
7554104,0.342088,0.041968,1.019920,3.500000,-32.549999,43.330002,21.83
7554115,0.360144,0.034160,1.034072,3.780000,-32.340000,41.439999,21.78
7554126,0.386496,0.014640,1.041880,5.320000,-32.270000,39.340000,21.78
7554136,0.407968,-0.002928,1.028704,6.930000,-31.010000,37.380001,21.78
7554147,0.441640,-0.029768,1.014064,6.510000,-29.820000,36.049999,21.86
7554158,0.484584,-0.018056,1.003328,7.140000,-29.190001,32.900002,21.86
7554169,0.515328,0.009760,0.988200,7.840000,-28.280001,29.540001,21.80
7554180,0.552416,0.022448,1.006256,6.300000,-26.670000,27.370001,21.78
7554191,0.588528,0.003904,0.978928,5.040000,-23.660000,24.990000,21.78
7554202,0.590480,0.009760,0.983808,2.940000,-21.070000,23.379999,21.75
7554213,0.590968,0.000000,1.009184,-0.700000,-19.180000,21.840000,21.75
7554224,0.595360,-0.011224,1.015040,-4.270000,-17.639999,19.040001,21.78
7554235,0.599264,-0.035624,1.003328,-5.670000,-16.520000,16.240000,21.78
7554247,0.616832,-0.062464,0.974048,-5.460000,-14.560000,12.880000,21.79
7554258,0.629032,-0.087840,0.940864,-5.600000,-11.900000,8.820000,21.81
7554269,0.624640,-0.111264,0.911584,-5.670000,-7.770000,5.810000,21.81
7554280,0.614880,-0.104920,0.900360,-6.580000,-3.780000,2.240000,21.75
7554291,0.598288,-0.121024,0.908656,-7.210000,-0.490000,-2.240000,21.75
7554302,0.585112,-0.149816,0.915488,-3.500000,2.450000,-7.070000,21.77
7554313,0.577304,-0.161528,0.900360,1.470000,5.950000,-12.250000,21.74
7554325,0.570960,-0.168848,0.876936,4.480000,10.360000,-17.290001,21.74
7554336,0.550464,-0.137616,0.851560,2.800000,15.820000,-21.000000,21.76
7554347,0.535336,-0.100040,0.820816,-2.030000,21.700001,-25.059999,21.76
7554358,0.522648,-0.102968,0.792024,-9.800000,27.020000,-29.120001,21.81
7554369,0.514352,-0.108336,0.753960,-17.500000,34.580002,-32.689999,21.74
7554380,0.486048,-0.115168,0.720776,-26.879999,43.680000,-37.380001,21.74
7554391,0.479216,-0.173728,0.713456,-34.860001,53.270000,-43.259998,21.80
7554403,0.441640,-0.235216,0.728096,-39.060001,60.900002,-51.520000,21.80
7554414,0.401136,-0.258640,0.755424,-39.900002,70.559998,-61.880001,21.80
7554425,0.372344,-0.307928,0.712480,-30.940001,82.669998,-72.099998,21.77
7554436,0.288896,-0.284992,0.737368,-36.540001,89.529999,-84.349998,21.77
7554447,0.213256,-0.296216,0.750056,-27.790001,100.029999,-98.629997,21.78
7554458,0.101992,-0.248392,0.785192,-38.290001,105.209999,-112.139999,21.78
7554469,-0.043432,-0.280112,0.849120,-30.520000,115.570000,-122.150002,21.75
7554480,-0.214720,-0.274256,0.912072,-33.669998,114.730003,-132.369995,21.81
7554492,-0.354776,-0.267424,0.996984,-27.719999,113.120003,-138.600006,21.81
7554503,-0.434320,-0.231800,1.049688,-15.400000,107.800003,-141.050003,21.80
7554514,-0.475312,-0.132248,1.091656,-4.410000,101.080002,-138.460007,21.80
7554526,-0.495320,-0.056120,1.130696,5.530000,93.099998,-131.949997,21.79
7554537,-0.498248,0.066368,1.188768,11.830000,81.970001,-122.989998,21.80
7554548,-0.466528,0.150792,1.256112,10.360000,66.709999,-104.300003,21.80
7554559,-0.415776,0.204960,1.364936,10.080000,46.689999,-81.970001,21.80
7554571,-0.375760,0.324520,1.382016,6.090000,28.490000,-55.020000,21.80
7554582,-0.276696,0.291336,1.281976,3.360000,9.940000,-31.010000,21.83
7554593,-0.227896,0.204960,1.169248,6.440000,-3.780000,-4.900000,21.80
7554604,-0.199592,0.151768,1.071160,8.050000,-14.000000,17.709999,21.80
7554615,-0.204472,0.090280,1.071160,12.530000,-20.299999,35.070000,21.79
7554626,-0.216184,0.067832,1.096048,17.920000,-28.280001,43.959999,21.79
7554638,-0.215208,0.028304,1.100928,21.000000,-35.560001,50.189999,21.79
7554649,-0.206424,0.006344,1.089216,22.469999,-42.279999,53.130001,21.79
7554660,-0.189344,-0.005368,1.054568,22.469999,-47.250000,54.320000,21.79
7554671,-0.176168,-0.024400,1.008696,22.680000,-49.980000,54.810001,21.81
7554682,-0.147864,-0.016104,0.959408,21.350000,-52.150002,56.070000,21.81
7554693,-0.124440,-0.015128,0.946232,19.879999,-52.360001,58.240002,21.82
7554704,-0.101016,-0.042456,0.948184,21.139999,-51.730000,60.060001,21.79
7554716,-0.093208,0.004392,0.971608,21.420000,-50.540001,62.230000,21.79
7554727,-0.088328,0.010248,1.015040,19.110001,-49.980000,64.680000,21.84
7554738,-0.088328,0.015616,1.033096,16.799999,-49.419998,66.570000,21.84
7554749,-0.055144,0.011224,1.048712,12.250000,-50.400002,68.040001,21.80
7554760,-0.036112,0.014152,1.059936,7.700000,-50.400002,66.080002,21.73
7554771,-0.010248,-0.007808,1.032120,7.350000,-50.750000,62.930000,21.73
7554782,0.068320,-0.045384,0.985272,9.660000,-49.419998,59.150002,21.79
7554793,0.107848,-0.121024,0.933056,14.070000,-45.360001,54.180000,21.79
7554804,0.137616,-0.111752,0.882792,18.200001,-44.099998,49.910000,21.81
7554815,0.158600,-0.065392,0.911584,20.790001,-42.560001,46.689999,21.74
7554826,0.159088,-0.016104,0.922808,23.520000,-41.230000,45.290001,21.74
7554838,0.200080,-0.020008,0.974536,21.770000,-40.250000,45.290001,21.80
7554849,0.255712,0.006832,0.998448,17.290001,-39.340000,44.799999,21.80
7554860,0.274256,0.036112,1.015040,8.820000,-38.570000,42.419998,21.77
7554871,0.280112,-0.012200,1.026752,2.310000,-38.080002,39.619999,21.81
7554882,0.301096,-0.037576,1.025776,2.450000,-37.869999,36.259998,21.81
7554893,0.287432,-0.004392,0.996984,4.130000,-37.799999,33.320000,21.81
7554904,0.345016,-0.005368,0.945256,11.270000,-34.720001,30.590000,21.81
7554915,0.395280,0.010736,0.877424,18.410000,-29.820000,28.139999,21.80
7554926,0.423096,0.076616,0.829600,17.430000,-26.250000,24.500000,21.80
7554937,0.468480,0.077592,0.824720,10.850000,-20.650000,22.889999,21.76
7554948,0.499712,0.063440,0.847168,5.810000,-16.450001,20.020000,21.80
7554959,0.537288,0.052704,0.890600,2.520000,-11.620000,18.830000,21.80
7554970,0.559736,0.029280,0.951600,1.540000,-8.050000,16.240000,21.80
7554981,0.570960,0.040016,0.989176,1.260000,-4.480000,12.740000,21.80
7554992,0.584624,0.032208,1.018456,2.240000,-2.030000,9.520000,21.84
7555003,0.595360,0.033184,1.016504,2.030000,0.910000,6.230000,21.76
7555014,0.604632,0.032208,1.027728,0.350000,3.010000,3.150000,21.76
7555025,0.589504,0.038064,1.039440,-3.010000,5.740000,0.350000,21.82
7555035,0.584624,0.030744,1.048712,-5.950000,7.630000,-2.660000,21.82
7555046,0.572424,0.006832,1.057984,-7.420000,9.170000,-5.110000,21.80
7555058,0.550464,-0.014152,1.080920,-6.090000,10.570000,-7.770000,21.78
7555069,0.523624,-0.001464,1.091656,-4.900000,11.550000,-9.870000,21.78
7555080,0.489952,-0.002440,1.092144,-3.850000,12.390000,-12.880000,21.78
7555091,0.461160,-0.018544,1.082872,-1.890000,12.740000,-16.379999,21.78
7555102,0.440664,-0.025376,1.054080,1.050000,13.720000,-20.580000,21.80
7555113,0.429440,-0.019520,1.038464,0.910000,16.240000,-23.030001,21.79
7555124,0.408456,-0.021960,1.026264,-1.960000,18.480000,-26.320000,21.79
7555135,0.378688,-0.042456,1.006744,-6.860000,20.230000,-30.940001,21.77
7555146,0.350872,-0.049288,0.971608,-11.130000,22.120001,-34.720001,21.77
7555157,0.357216,-0.059048,0.933544,-16.240000,25.410000,-39.830002,21.77
7555168,0.358192,-0.100528,0.883280,-20.790001,31.570000,-45.639999,21.77
7555179,0.326472,-0.127368,0.854000,-24.010000,36.889999,-52.919998,21.75
7555190,0.285480,-0.150304,0.857416,-22.959999,44.240002,-59.500000,21.79
7555202,0.224968,-0.177632,0.862296,-18.690001,50.889999,-69.089996,21.79
7555213,0.168360,-0.154208,0.870592,-13.860000,58.029999,-78.470001,21.77
7555224,0.120048,-0.162504,0.836432,-14.070000,63.139999,-87.570000,21.77
7555235,0.078568,-0.171776,0.825696,-16.730000,69.790001,-95.690002,21.75
7555246,-0.031232,-0.095160,0.867176,-25.760000,76.440002,-104.650002,21.77
7555258,-0.167872,-0.096624,0.919392,-32.340000,81.059998,-111.440002,21.77
7555269,-0.249856,-0.135664,0.960384,-32.060001,82.599998,-116.339996,21.81
7555280,-0.319640,-0.184952,0.977464,-26.040001,81.690002,-118.930000,21.81
7555291,-0.375272,-0.143960,0.981368,-9.030000,82.250000,-118.089996,21.78
7555302,-0.423584,-0.060024,1.009184,-4.690000,74.059998,-116.970001,21.79
7555314,-0.439688,0.023424,1.037000,3.780000,66.220001,-108.150002,21.79
7555325,-0.422608,0.182024,1.156560,4.620000,52.150002,-89.879997,21.77
7555336,-0.390888,0.320128,1.301008,1.470000,19.459999,-66.709999,21.77
7555347,-0.321592,0.350384,1.296616,-3.570000,18.059999,-43.540001,21.75
7555358,-0.234240,0.265472,1.173152,-6.370000,3.780000,-14.840000,21.79
7555369,-0.192272,0.181048,0.997960,-9.170000,-7.070000,13.160000,21.79
7555380,-0.162992,0.102480,0.936960,-4.760000,-11.550000,36.189999,21.79
7555391,-0.189832,0.031720,0.976000,8.260000,-16.240000,48.090000,21.79
7555402,-0.224968,0.010248,1.064816,35.700001,-24.570000,60.060001,21.84
7555413,-0.230336,-0.004880,1.098976,19.740000,-31.430000,65.239998,21.75
7555424,-0.226920,-0.038552,1.110200,17.570000,-39.830002,66.709999,21.75
7555435,-0.228384,-0.035624,1.095560,15.680000,-47.669998,66.709999,21.80
7555446,-0.193736,-0.040992,1.041880,13.020000,-52.639999,66.919998,21.80
7555457,-0.157624,-0.094672,0.976976,9.310000,-53.900002,65.870003,21.83
7555468,-0.120536,-0.122000,0.938912,9.870000,-54.250000,64.190002,21.76
7555479,-0.111264,-0.082960,0.941840,9.800000,-53.200001,62.650002,21.76
7555490,-0.111752,-0.079056,0.964776,9.800000,-52.220001,63.349998,21.82
7555501,-0.129320,-0.070760,0.988688,14.000000,-51.730000,65.099998,21.82
7555512,-0.097600,-0.052704,1.025288,18.760000,-51.799999,66.779999,21.80
7555523,-0.078080,-0.039528,1.035048,19.320000,-51.099998,67.339996,21.80
7555534,-0.045872,-0.031720,1.031632,16.379999,-49.700001,67.830002,21.80
7555545,-0.008784,-0.028792,1.033096,10.430000,-48.299999,66.080002,21.77
7555557,-0.009272,-0.033184,1.050176,6.720000,-47.389999,63.349998,21.77
7555567,-0.027816,-0.020984,1.074088,4.690000,-48.580002,61.740002,21.81
7555579,-0.003416,-0.009272,1.059448,5.180000,-50.610001,61.740002,21.81
7555590,0.101992,-0.048800,1.043344,9.450000,-52.009998,59.849998,21.81
7555601,0.153720,-0.041480,1.031632,13.440000,-51.380001,56.840000,21.78
7555612,0.175680,-0.005856,1.032608,15.680000,-50.820000,53.270000,21.78
7555623,0.167384,0.023912,1.047736,14.210000,-50.889999,51.380001,21.78
7555634,0.138104,0.039528,1.054568,11.900000,-51.310001,51.099998,21.78
7555645,0.162504,0.059536,1.049688,4.060000,-52.779999,53.830002,21.77
7555656,0.173728,0.050752,1.065792,2.870000,-51.310001,54.389999,21.82
7555667,0.219600,0.032208,1.069696,1.960000,-53.200001,53.130001,21.82
7555678,0.278160,-0.008296,1.052128,4.270000,-53.270000,49.630001,21.81
7555689,0.332816,-0.036600,1.008696,10.430000,-52.220001,44.730000,21.81
7555700,0.377712,-0.071248,0.945744,14.420000,-50.049999,40.740002,21.79
7555711,0.372832,-0.059048,0.899384,16.799999,-47.880001,38.570000,21.78
7555722,0.412360,0.031232,0.875960,11.480000,-44.869999,39.200001,21.78
7555733,0.484096,0.049288,0.871080,0.630000,-40.810001,39.200001,21.78
7555744,0.549976,0.003904,0.894016,-3.640000,-36.400002,37.029999,21.78
7555755,0.583160,-0.020984,0.927688,-4.550000,-32.759998,33.250000,21.81
7555766,0.616344,-0.000488,0.934520,-4.550000,-29.330000,30.309999,21.76
7555777,0.653432,-0.017568,0.928176,-5.320000,-24.780001,27.299999,21.76
7555788,0.675392,-0.037088,0.913536,-6.510000,-19.040001,24.219999,21.78
7555800,0.677344,-0.063928,0.907680,-7.840000,-14.420000,20.650000,21.78
7555811,0.668560,-0.078568,0.908168,-7.280000,-9.380000,17.500000,21.77
7555822,0.662216,-0.090768,0.908656,-6.160000,-5.040000,13.790000,21.77
7555833,0.660752,-0.103944,0.902800,-6.090000,-0.980000,10.080000,21.84
7555844,0.654896,-0.126392,0.890112,-7.000000,2.730000,7.210000,21.80
7555855,0.637328,-0.140056,0.880352,-6.720000,7.280000,3.430000,21.80
7555866,0.612928,-0.142496,0.886208,-7.560000,12.040000,-0.700000,21.79
7555877,0.582672,-0.157624,0.877424,-7.070000,15.330000,-5.810000,21.79
7555888,0.555832,-0.162504,0.894016,-5.250000,18.620001,-9.380000,21.77
7555899,0.535336,-0.184952,0.895480,-2.590000,21.700001,-14.980000,21.79
7555910,0.522648,-0.183000,0.906216,0.140000,24.430000,-20.580000,21.79
7555921,0.484584,-0.152744,0.920368,2.170000,26.180000,-25.410000,21.80
7555932,0.449448,-0.103456,0.917928,-0.280000,28.770000,-28.420000,21.80
7555943,0.425048,-0.108824,0.898896,-3.710000,31.850000,-31.500000,21.82
7555954,0.408456,-0.126392,0.899384,-8.750000,33.950001,-33.810001,21.80
7555965,0.406016,-0.131760,0.902312,-13.650000,37.380001,-36.400002,21.80
7555976,0.411384,-0.142008,0.901824,-17.150000,42.070000,-41.720001,21.80
7555987,0.374784,-0.153232,0.908656,-19.670000,46.619999,-47.880001,21.80
7555998,0.330376,-0.178608,0.914024,-20.370001,49.490002,-55.790001,21.78
7556009,0.299632,-0.179096,0.902312,-19.809999,54.320000,-61.110001,21.79
7556020,0.310368,-0.203496,0.907680,-19.459999,58.799999,-67.830002,21.79
7556031,0.339160,-0.213744,0.889136,-22.750000,66.430000,-74.339996,21.80
7556042,0.315736,-0.234728,0.898896,-27.299999,75.529999,-85.050003,21.80
7556053,0.146400,-0.254248,0.919880,-33.180000,82.040001,-98.349998,21.77
7556064,-0.034160,-0.284992,0.901336,-26.950001,88.970001,-112.000000,21.77
7556076,-0.148840,-0.235704,0.935496,-32.130001,89.040001,-120.260002,21.75
7556087,-0.217648,-0.250832,0.963312,-33.880001,90.720001,-125.440002,21.79
7556098,-0.267424,-0.265960,1.003816,-30.030001,92.260002,-130.410004,21.79
7556109,-0.375272,-0.251808,1.038952,-20.719999,90.300003,-138.600006,21.82
7556120,-0.477264,-0.139568,1.024800,-10.500000,84.629997,-141.610001,21.82
7556131,-0.469944,-0.105896,0.978928,-1.470000,80.010002,-138.250000,21.79
7556142,-0.471408,-0.074664,0.934032,12.740000,74.830002,-128.520004,21.80
7556154,-0.434808,0.097600,0.975512,17.080000,64.120003,-113.610001,21.80
7556165,-0.341112,0.200080,1.110200,11.830000,51.380001,-92.190002,21.83
7556176,-0.356728,0.313296,1.269776,8.960000,32.900002,-71.050003,21.83
7556187,-0.357216,0.348920,1.254648,10.150000,17.709999,-44.169998,21.82
7556198,-0.271328,0.269864,1.113128,12.670000,4.480000,-21.980000,21.80
7556209,-0.197640,0.208376,0.928176,11.620000,-3.220000,4.620000,21.80
7556220,-0.159576,0.148352,0.888648,7.910000,-5.180000,24.500000,21.79
7556231,-0.195688,0.110288,0.976976,11.480000,-9.310000,36.540001,21.79
7556242,-0.211304,0.049776,1.022848,18.690001,-17.850000,46.689999,21.82
7556253,-0.187392,-0.009760,1.057496,24.570000,-24.150000,48.930000,21.81
7556264,-0.181536,0.120536,1.051640,32.619999,-28.770000,49.070000,21.81
7556275,-0.167872,0.016592,1.033096,36.610001,-32.619999,48.580002,21.75
7556286,-0.165920,0.019032,1.009672,35.279999,-36.049999,48.369999,21.75
7556297,-0.171776,0.006344,0.979904,29.820000,-39.130001,49.000000,21.83
7556307,-0.125416,0.021960,0.948184,26.530001,-42.139999,52.080002,21.81
7556318,-0.074176,0.004880,0.958432,24.709999,-42.070000,54.040001,21.81
7556329,-0.074176,0.020008,0.985272,26.389999,-41.509998,56.070000,21.78
7556340,-0.070760,0.016104,1.014064,25.549999,-39.549999,57.750000,21.78
7556351,-0.100040,0.011712,1.038952,23.240000,-38.919998,59.779999,21.80
7556362,-0.111264,0.005368,1.052128,22.680000,-39.619999,61.810001,21.80
7556374,-0.093208,0.023912,1.049200,20.230000,-40.320000,63.139999,21.76
7556384,-0.029280,0.018544,1.053104,16.730000,-41.020000,63.980000,21.76
7556395,-0.002440,-0.048800,1.101416,14.840000,-42.349998,59.919998,21.76
7556406,-0.027328,-0.088328,1.111664,19.110001,-44.799999,53.619999,21.77
7556417,-0.031232,-0.082960,1.016504,23.450001,-52.290001,48.930000,21.77
7556428,0.061488,-0.099064,1.047248,32.340000,-52.150002,46.689999,21.80
7556439,0.132736,-0.026840,1.010648,34.020000,-51.310001,43.610001,21.81
7556450,0.167872,0.032696,1.009672,29.400000,-48.930000,41.230000,21.81
7556461,0.149816,0.065392,1.037976,23.730000,-46.060001,39.480000,21.79
7556472,0.113216,0.101016,1.059936,20.020000,-45.639999,40.040001,21.79
7556483,0.105408,0.106872,1.086776,14.280000,-46.900002,42.700001,21.79
7556494,0.175192,0.120536,1.098488,13.440000,-47.880001,44.099998,21.77
7556505,0.220088,0.154208,1.052128,11.060000,-45.639999,44.310001,21.77
7556516,0.252296,0.152256,1.015528,7.210000,-43.470001,42.840000,21.78
7556527,0.281576,0.126880,1.005768,6.230000,-39.830002,41.720001,21.78
7556537,0.272792,0.116632,1.035048,5.040000,-38.639999,40.599998,21.79
7556548,0.276208,0.126392,1.041392,5.670000,-38.220001,41.299999,21.79
7556559,0.318176,0.129320,1.044320,7.490000,-38.080002,41.650002,21.77
7556570,0.360144,0.169336,1.034072,7.980000,-37.450001,42.000000,21.79
7556581,0.418704,0.191784,1.020408,3.290000,-36.470001,41.720001,21.79
7556592,0.458720,0.145424,1.024312,-0.210000,-33.950001,40.950001,21.81
7556604,0.484584,0.110288,1.021872,-0.280000,-32.270000,39.340000,21.81
7556615,0.513864,0.060024,1.019920,17.709999,-29.959999,37.450001,21.76
7556626,0.529968,0.024400,1.012600,2.100000,-27.650000,35.349998,21.73
7556637,0.558272,0.010736,0.997472,3.080000,-26.180000,32.619999,21.73
7556648,0.589992,-0.022936,0.977952,3.080000,-22.750000,30.030001,21.84
7556659,0.584624,-0.005856,0.967216,2.170000,-20.230000,26.950001,21.84
7556670,0.581208,-0.005368,0.974536,-1.680000,-18.200001,24.150000,21.83
7556681,0.584136,-0.043920,0.982832,-4.830000,-15.680000,21.490000,21.77
7556692,0.603168,-0.067832,0.976000,-6.020000,-12.880000,18.340000,21.77
7556704,0.610000,-0.099552,0.969656,-6.020000,-8.680000,14.070000,21.77
7556715,0.593408,-0.090768,0.965264,-6.090000,-5.110000,9.520000,21.77
7556726,0.573888,-0.135664,0.968192,-6.930000,-2.520000,4.340000,21.79
7556737,0.562664,-0.135664,0.955504,-6.370000,-0.140000,0.770000,21.73
7556748,0.580720,-0.131272,0.941352,-8.330000,3.430000,-3.570000,21.73
7556759,0.574864,-0.129808,0.925736,-10.990000,7.280000,-8.820000,21.74
7556770,0.556808,-0.143472,0.914512,-13.300000,11.970000,-14.980000,21.74
7556781,0.525088,-0.140544,0.908656,-14.700000,16.799999,-19.740000,21.79
7556792,0.498736,-0.178120,0.903288,-13.860000,21.700001,-26.250000,21.79
7556803,0.473360,-0.182024,0.892064,-6.860000,25.340000,-33.740002,21.80
7556814,0.441152,-0.158112,0.881328,0.490000,31.570000,-38.849998,21.82
7556825,0.398696,-0.080520,0.870104,-3.570000,36.049999,-44.310001,21.82
7556836,0.347456,0.000488,0.850096,-12.390000,39.900002,-47.950001,21.77
7556847,0.337696,-0.025376,0.849120,-24.080000,45.360001,-51.450001,21.77
7556858,0.293776,-0.074176,0.839848,-29.889999,51.169998,-58.520000,21.83
7556869,0.285968,-0.106872,0.844728,-31.639999,55.790001,-66.010002,21.74
7556880,0.304512,-0.132248,0.813008,-29.469999,63.490002,-77.000000,21.74
7556891,0.284992,-0.114192,0.812032,-29.120001,71.750000,-86.029999,21.82
7556902,0.189832,-0.050752,0.793000,-32.830002,82.669998,-98.139999,21.82
7556913,0.037576,-0.060024,0.860344,-46.549999,87.779999,-106.680000,21.80
7556924,-0.076128,-0.150304,0.953064,-49.630001,90.650002,-115.849998,21.79
7556935,-0.175680,-0.147376,1.012112,-39.970001,91.699997,-121.589996,21.79
7556947,-0.243512,-0.108336,0.993568,-28.139999,89.110001,-127.959999,21.80
7556958,-0.325984,-0.070760,1.010160,-17.570000,88.690002,-130.270004,21.80
7556969,-0.385520,-0.027816,1.046272,-5.180000,85.680000,-127.680000,21.77
7556980,-0.438712,0.050752,1.107760,1.680000,78.540001,-116.830002,21.78
7556991,-0.477752,0.173728,1.242448,0.910000,62.020000,-102.900002,21.78
7557002,-0.427976,0.348920,1.330288,-5.250000,38.080002,-77.000000,21.78
7557013,-0.320128,0.392840,1.321016,-9.730000,15.260000,-46.830002,21.78
7557024,-0.251808,0.355264,1.164856,-16.379999,1.330000,-16.590000,21.80
7557035,-0.199592,0.303048,1.013576,-20.930000,-9.380000,6.370000,21.77
7557046,-0.166896,0.203496,0.928664,-22.820000,-14.350000,32.689999,21.77
7557057,-0.159576,0.045384,0.913048,-18.969999,-35.840000,52.849998,21.79
7557068,-0.177632,-0.000488,0.977464,-11.620000,-23.660000,62.720001,21.79
7557079,-0.188856,-0.129808,1.021384,0.910000,-30.379999,66.919998,21.79
7557090,-0.176656,-0.155672,1.045296,12.670000,-37.660000,65.589996,21.79
7557101,-0.158112,-0.142984,1.034560,21.559999,-42.279999,62.650002,21.81
7557112,-0.146400,-0.137128,0.999912,27.790001,-45.639999,59.290001,21.76
7557123,-0.129808,-0.123952,0.956968,28.629999,-47.669998,56.910000,21.76
7557135,-0.093696,-0.132248,0.898408,25.830000,-48.299999,55.580002,21.75
7557146,-0.079544,-0.131760,0.881816,24.990000,-47.669998,54.320000,21.75
7557157,-0.074176,-0.111752,0.896456,26.530001,-47.110001,55.580002,21.79
7557168,-0.053680,-0.119072,0.928176,28.770000,-45.709999,57.680000,21.78
7557179,-0.058560,-0.117120,0.985272,29.260000,-45.150002,59.919998,21.78
7557190,-0.053680,-0.088816,1.005768,26.320000,-45.080002,61.040001,21.81
7557201,-0.018056,-0.149328,1.070184,25.620001,-45.009998,58.799999,21.81
7557212,-0.028792,-0.191784,1.090680,35.000000,-46.270000,52.500000,21.77
7557223,0.008296,-0.100528,1.063840,41.790001,-49.419998,48.930000,21.76
7557234,0.088328,-0.068320,0.998936,42.630001,-48.230000,46.410000,21.76
7557245,0.131760,-0.046848,0.968192,36.049999,-43.680000,44.099998,21.77
7557256,0.148352,-0.040504,0.984784,28.700001,-40.529999,41.369999,21.77
7557267,0.124928,-0.029768,1.041880,22.889999,-40.389999,39.410000,21.75
7557278,0.087352,-0.018544,1.120936,23.450001,-43.680000,38.220001,21.79
7557289,0.122976,0.010248,1.117032,25.480000,-48.090000,37.590000,21.79
7557300,0.155184,0.025864,1.068720,24.150000,-48.860001,36.259998,21.77
7557311,0.220088,0.044896,1.016992,20.719999,-47.389999,34.439999,21.77
7557322,0.250832,0.100528,0.998448,12.040000,-44.869999,33.529999,21.80
7557332,0.247904,0.063928,1.004792,-2.520000,-43.049999,32.759998,21.80
7557343,0.209352,0.029280,1.000888,-12.390000,-42.630001,32.759998,21.79
7557354,0.219600,0.019032,1.010648,-16.870001,-44.730000,35.000000,21.74
7557365,0.275232,0.031720,1.016992,-15.820000,-45.849998,35.490002,21.74
7557376,0.332816,0.070760,1.005280,-16.799999,-44.520000,35.349998,21.82
7557387,0.377224,0.088816,0.978928,-17.080000,-41.509998,33.529999,21.82
7557398,0.411384,0.121512,0.959896,-16.940001,-37.660000,32.200001,21.77
7557409,0.422120,0.141032,0.974048,-21.629999,-34.650002,31.010000,21.77
7557420,0.455304,0.099064,0.974048,-24.639999,-31.920000,28.700001,21.77
7557431,0.491904,0.049288,0.970144,-24.780001,-29.400000,26.740000,21.80
7557442,0.536312,-0.003904,0.969168,-20.930000,-27.930000,23.660000,21.80
7557453,0.580232,0.002440,0.951112,-17.360001,-25.549999,20.160000,21.77
7557464,0.604144,0.024888,0.936960,-16.030001,-22.680000,16.660000,21.77
7557475,0.621712,0.022448,0.935496,-15.890000,-18.969999,14.280000,21.76
7557486,0.614392,0.020496,0.942816,-15.610000,-16.170000,11.620000,21.78
7557497,0.601216,0.000488,0.944768,-18.200001,-13.510000,9.870000,21.78
7557508,0.598288,-0.018544,0.923296,-19.530001,-11.550000,8.190000,21.80
7557519,0.613904,-0.046848,0.902800,-21.139999,-9.030000,4.970000,21.80
7557530,0.616832,-0.089792,0.875960,-17.360001,-4.550000,1.260000,21.76
7557541,0.586088,-0.089304,0.874008,-16.450001,-1.120000,-1.540000,21.79
7557552,0.556320,-0.132736,0.901824,-14.280000,1.960000,-4.830000,21.79
7557563,0.539728,-0.108824,0.908656,-10.430000,3.570000,-7.630000,21.85
7557574,0.536312,-0.118096,0.910608,-9.100000,6.160000,-9.870000,21.85
7557586,0.535824,-0.166896,0.902312,-4.480000,9.940000,-14.350000,21.77
7557597,0.522648,-0.156160,0.875960,-0.210000,13.650000,-18.900000,21.75
7557608,0.522648,-0.124440,0.833016,-0.770000,18.900000,-22.120001,21.75
7557619,0.509472,-0.142984,0.807640,-0.840000,24.290001,-25.969999,21.82
7557630,0.488976,-0.121024,0.802272,-2.170000,30.379999,-28.770000,21.82
7557641,0.451888,-0.115168,0.829112,-6.930000,36.259998,-32.759998,21.79
7557652,0.411872,-0.147864,0.843752,-10.640000,40.459999,-38.080002,21.75
7557663,0.404552,-0.147376,0.833016,-9.380000,45.290001,-42.419998,21.75
7557674,0.401136,-0.135664,0.832528,-11.690000,52.080002,-47.110001,21.79
7557685,0.423584,-0.125904,0.811056,-14.070000,60.340000,-54.040001,21.79
7557696,0.412360,-0.123464,0.831064,-23.660000,68.599998,-62.930000,21.79
7557708,0.314760,-0.182024,0.851560,-31.570000,77.559998,-71.120003,21.75
7557718,0.211304,-0.185440,0.878888,-39.270000,83.370003,-79.169998,21.75
7557729,0.138592,-0.215696,0.928176,-44.099998,90.440002,-86.519997,21.79
7557740,0.045872,-0.207400,0.949160,-48.299999,92.330002,-94.360001,21.79
7557751,-0.050264,-0.212768,0.950136,-48.160000,96.180000,-99.610001,21.79
7557762,-0.111752,-0.185440,0.914512,-41.720001,98.139999,-105.980003,21.79
7557774,-0.183976,-0.140056,0.930616,-39.410000,100.589996,-107.029999,21.80
7557785,-0.290360,-0.149816,0.994544,-32.970001,99.260002,-105.279999,21.79
7557796,-0.353312,-0.091256,1.041880,-23.799999,93.940002,-100.309998,21.79
7557807,-0.371368,-0.051728,1.135576,-17.570000,83.019997,-89.669998,21.82
7557818,-0.374784,-0.050264,1.205848,-6.580000,65.660004,-76.930000,21.82
7557829,-0.306952,0.053192,1.207312,2.940000,50.330002,-60.410000,21.76
7557840,-0.225456,0.118096,1.210728,5.390000,33.529999,-45.360001,21.77
7557851,-0.208864,0.154208,1.186816,7.490000,18.270000,-26.670000,21.77
7557862,-0.199104,0.174216,1.131184,3.010000,7.630000,-6.020000,21.81
7557873,-0.184464,0.106384,1.062376,-1.680000,-3.430000,9.940000,21.81
7557884,-0.157624,0.017080,1.048712,-0.980000,-12.530000,26.040001,21.77
7557895,-0.162992,-0.028792,1.056520,2.660000,-20.440001,35.980000,21.77
7557906,-0.165432,-0.076616,1.069696,8.680000,-26.530001,40.320000,21.77
7557917,-0.162504,-0.113704,1.047736,19.110001,-33.180000,41.580002,21.78
7557928,-0.121024,-0.084912,1.023336,22.330000,-37.029999,41.439999,21.78
7557939,-0.092232,-0.101016,0.988200,20.719999,-37.939999,40.320000,21.76
7557950,-0.083448,-0.122976,0.979904,21.840000,-38.990002,39.549999,21.77
7557962,-0.073688,-0.116632,0.976488,23.240000,-39.410000,39.619999,21.77
7557973,-0.081984,-0.119560,0.981368,26.110001,-40.669998,41.439999,21.81
7557984,-0.083936,-0.118584,0.973072,28.280001,-41.860001,44.869999,21.81
7557995,-0.019032,-0.100040,0.961848,30.170000,-41.090000,47.389999,21.75
7558006,0.001464,-0.070272,0.951112,29.889999,-36.889999,47.250000,21.81
7558017,0.008784,-0.083448,0.972096,29.469999,-33.529999,47.459999,21.81
7558028,0.007320,-0.124440,1.032608,31.500000,-31.709999,45.990002,21.76
7558039,-0.011712,-0.098576,1.053592,30.379999,-32.900002,45.290001,21.76
7558050,-0.008784,-0.048312,1.039440,24.500000,-34.369999,46.270000,21.76
7558061,0.059536,-0.056608,1.019920,19.600000,-34.790001,47.180000,21.76
7558072,0.091744,-0.064416,1.015528,17.990000,-33.740002,45.709999,21.78
7558083,0.089304,-0.071736,1.043344,14.770000,-33.599998,43.889999,21.76
7558094,0.061000,-0.063928,1.076528,14.770000,-35.070000,41.439999,21.76
7558105,0.027816,-0.029280,1.072624,16.660000,-38.290001,40.599998,21.76
7558116,0.049776,-0.020984,1.043832,17.080000,-40.180000,43.119999,21.76
7558127,0.093208,-0.009760,1.016504,13.860000,-40.459999,45.430000,21.82
7558138,0.134200,0.035136,0.997960,2.800000,-39.340000,48.439999,21.77
7558149,0.155672,-0.030744,1.045296,-4.480000,-38.849998,47.040001,21.77
7558160,0.146400,-0.045872,1.077992,-10.990000,-40.459999,45.290001,21.80
7558171,0.131272,-0.048800,1.080920,-14.280000,-43.400002,43.820000,21.80
7558182,0.130296,-0.068808,1.039440,-12.600000,-45.009998,42.139999,21.82
7558193,0.182024,-0.076616,0.985272,-10.710000,-45.080002,40.599998,21.79
7558204,0.247416,-0.093696,0.964776,-10.290000,-42.910000,38.220001,21.79
7558215,0.294264,-0.073688,0.969168,-9.310000,-41.090000,33.669998,21.79
7558226,0.322568,-0.020984,0.981368,-8.190000,-39.410000,30.590000,21.79
7558237,0.351360,0.003416,0.972096,-6.650000,-37.450001,28.910000,21.85
7558248,0.395280,-0.007320,0.971608,-6.930000,-34.020000,28.770000,21.75
7558259,0.430416,-0.029768,0.970632,-7.280000,-29.540001,27.650000,21.75
7558270,0.433832,-0.048312,0.981368,-8.890000,-26.459999,26.389999,21.76
7558282,0.428952,-0.085888,0.994056,-8.890000,-24.780001,24.570000,21.76
7558293,0.458232,-0.025864,1.000400,-8.400000,-22.680000,21.280001,21.79
7558304,0.489952,-0.026840,0.983808,-8.890000,-20.370001,19.250000,21.79
7558315,0.513864,-0.048800,0.955504,-9.170000,-17.709999,16.940001,21.79
7558326,0.531432,-0.051728,0.981856,-11.480000,-15.120000,13.930000,21.77
7558337,0.535824,-0.099064,0.992592,-8.260000,-12.180000,12.250000,21.77
7558348,0.539240,-0.115656,1.001864,-6.160000,-10.500000,10.430000,21.77
7558359,0.546560,-0.127368,1.003816,-3.360000,-9.170000,7.840000,21.77
7558370,0.550464,-0.116144,0.998448,-1.960000,-7.350000,5.950000,21.80
7558381,0.554368,-0.113216,0.987712,-2.520000,-5.530000,3.220000,21.78
7558392,0.552904,-0.130784,0.974536,-4.270000,-2.240000,0.070000,21.78
7558403,0.536800,-0.135176,0.973072,-7.700000,-0.280000,-2.030000,21.78
7558414,0.524600,-0.156648,0.983808,-8.540000,2.240000,-4.340000,21.78
7558425,0.506544,-0.168360,0.987712,-5.530000,3.990000,-7.770000,21.76
7558436,0.502152,-0.174704,0.972584,-3.010000,6.160000,-11.200000,21.77
7558447,0.494344,-0.179096,0.950136,-1.400000,8.890000,-13.650000,21.77
7558458,0.481168,-0.168848,0.926224,-0.700000,12.250000,-16.660000,21.79
7558469,0.451400,-0.169336,0.917928,-0.630000,16.100000,-19.879999,21.79
7558480,0.446032,-0.171288,0.905728,0.980000,19.250000,-23.940001,21.84
7558491,0.439200,-0.175192,0.894992,0.910000,24.010000,-27.020000,21.76
7558502,0.417728,-0.195200,0.882304,1.260000,28.629999,-31.360001,21.76
7558513,0.406016,-0.161040,0.875960,1.120000,32.200001,-35.630001,21.78
7558524,0.376736,-0.129808,0.864736,-4.900000,37.590000,-39.200001,21.78
7558535,0.351360,-0.154208,0.853024,-10.570000,43.610001,-43.680000,21.76
7558546,0.342576,-0.199592,0.839360,-12.880000,52.080002,-50.540001,21.76
7558557,0.332328,-0.233752,0.796416,-12.180000,55.160000,-60.130001,21.77
7558568,0.292800,-0.206424,0.785680,-12.320000,63.419998,-66.290001,21.74
7558579,0.208376,-0.176656,0.789096,-17.709999,71.750000,-75.180000,21.74
7558590,0.180072,-0.221552,0.784216,-19.320000,78.889999,-84.769997,21.81
7558601,0.087840,-0.231312,0.766648,-17.080000,86.169998,-95.550003,21.81
7558612,-0.002928,-0.264496,0.770552,-11.200000,95.410004,-104.019997,21.78
7558624,-0.109312,-0.198616,0.769088,-9.310000,98.349998,-112.139999,21.77
7558635,-0.197640,-0.142984,0.816424,-9.170000,102.900002,-116.199997,21.77
7558646,-0.275720,-0.186904,0.877912,-6.160000,105.839996,-119.000000,21.78
7558657,-0.353800,-0.170312,0.922320,-0.840000,104.370003,-117.459999,21.78
7558668,-0.359168,-0.098088,1.105808,-2.240000,101.220001,-113.190002,21.78
7558679,-0.395280,-0.038552,1.116544,-2.940000,92.680000,-104.580002,21.74
7558690,-0.428464,0.095160,1.309792,-4.690000,75.110001,-90.230003,21.74
7558701,-0.403576,0.183488,1.471320,-4.830000,56.070000,-69.580002,21.73
7558712,-0.336720,0.215696,1.466928,0.000000,30.870001,-50.049999,21.73
7558723,-0.242536,0.206912,1.294176,0.980000,11.130000,-25.270000,21.77
7558734,-0.183000,0.190808,1.114104,-2.310000,0.700000,0.630000,21.77
7558745,-0.140544,0.093696,1.022360,-3.430000,-6.370000,18.270000,21.77
7558756,-0.150304,-0.004392,1.021384,1.470000,-12.390000,34.790001,21.78
7558767,-0.176656,-0.032208,1.082872,6.790000,-18.969999,46.410000,21.78
7558778,-0.174704,-0.066856,1.127768,9.380000,-27.090000,51.029999,21.82
7558789,-0.175680,-0.106384,1.143384,9.520000,-34.090000,51.029999,21.82
