timestamp_ms,ax,ay,az,gx,gy,gz,tempC
3584317,0.429928,0.219600,0.977952,-2.030000,-3.710000,4.410000,21.51
3584329,0.423584,0.194712,0.961848,-3.430000,-3.220000,4.620000,21.51
3584340,0.421144,0.214720,0.951112,-4.690000,-3.150000,5.390000,21.46
3584351,0.422120,0.215208,0.932080,-4.340000,-2.940000,5.880000,21.47
3584362,0.431392,0.232288,0.937936,-4.900000,-2.800000,6.720000,21.47
3584374,0.430416,0.247904,0.963312,-6.650000,-1.610000,6.300000,21.47
3584385,0.422120,0.224968,1.046272,-30.520000,-5.670000,6.440000,21.47
3584396,0.499224,0.001952,1.022360,-28.910000,-0.560000,6.720000,21.50
3584407,0.418216,0.172264,1.005768,-27.650000,-2.240000,8.610000,21.48
3584419,0.427976,0.155672,1.009672,-31.360001,-2.380000,6.930000,21.48
3584431,0.439200,0.116632,1.003816,-26.670000,-3.710000,6.510000,21.45
3584442,0.442616,0.162504,1.006744,-21.280001,-4.620000,5.600000,21.45
3584453,0.447984,0.176656,1.013088,-19.250000,-5.670000,5.880000,21.47
3584464,0.453840,0.171288,1.008696,-17.780001,-6.370000,6.300000,21.53
3584475,0.464088,0.144448,0.998936,-17.430000,-6.300000,7.140000,21.53
3584486,0.466528,0.150304,1.000400,-18.760000,-6.580000,8.960000,21.47
3584497,0.473848,0.139080,1.003328,-23.450001,-6.090000,10.710000,21.47
3584508,0.482144,0.135664,0.998936,-28.980000,-6.440000,12.250000,21.51
3584519,0.494344,0.119560,0.987224,-33.529999,-5.950000,13.930000,21.51
3584530,0.493856,0.100040,0.974048,-35.349998,-5.880000,15.680000,21.48
3584541,0.500688,0.089304,0.960872,-36.750000,-5.670000,17.290001,21.46
3584552,0.504104,0.101504,0.958432,-39.970001,-5.110000,18.760000,21.46
3584563,0.504104,0.103944,0.965264,-43.750000,-4.620000,20.510000,21.48
3584574,0.509472,0.104432,0.987224,-49.560001,-4.550000,23.030001,21.48
3584585,0.524600,0.122000,0.993568,-55.860001,-4.340000,24.850000,21.46
3584596,0.518256,0.106872,0.997472,-61.950001,-4.620000,26.600000,21.48
3584607,0.511424,0.072712,0.978928,-63.910000,-4.830000,28.000000,21.48
3584618,0.507032,0.025864,0.925736,-59.849998,-4.550000,29.190001,21.48
3584629,0.499712,0.038064,0.907192,-53.689999,-4.550000,30.309999,21.48
3584640,0.503128,0.069296,0.893528,-50.889999,-3.290000,31.639999,21.55
3584651,0.510936,0.073688,0.887184,-50.470001,-2.800000,33.320000,21.46
3584662,0.511424,0.081496,0.918416,-54.740002,-2.380000,35.000000,21.46
3584673,0.525088,0.018056,0.902312,-54.599998,-0.490000,35.070000,21.50
3584684,0.490440,-0.039528,0.873032,-48.860001,0.350000,34.160000,21.50
3584695,0.479216,-0.066368,0.835456,-39.689999,0.910000,33.740002,21.53
3584706,0.476288,-0.072224,0.812032,-30.030001,2.800000,32.549999,21.49
3584717,0.457256,-0.063928,0.810080,-24.430000,4.200000,30.660000,21.49
3584728,0.462136,-0.089792,0.810568,-21.559999,5.320000,29.260000,21.48
3584739,0.463112,-0.068320,0.824232,-20.510000,5.530000,28.350000,21.48
3584750,0.444080,-0.010248,0.854000,-24.920000,6.440000,27.020000,21.54
3584761,0.427000,0.009760,0.878400,-31.500000,6.930000,26.950001,21.54
3584774,0.417240,0.022448,0.906704,-38.009998,7.630000,27.510000,21.44
3584785,0.392840,0.043432,0.902800,-43.330002,7.560000,28.350000,21.48
3584799,0.397232,0.033184,0.861808,-48.369999,7.770000,29.260000,21.47
3584810,0.416264,-0.030744,0.837408,-48.369999,9.030000,28.910000,21.47
3584822,0.408456,-0.101016,0.808616,-42.980000,10.850000,27.790001,21.45
3584833,0.403576,-0.145912,0.799832,-37.450001,11.900000,26.530001,21.45
3584844,0.397720,-0.181536,0.800808,-26.740000,13.510000,24.430000,21.47
3584855,0.379664,-0.181536,0.859368,-17.219999,13.860000,23.730000,21.47
3584868,0.378200,-0.163480,0.867176,-8.470000,13.650000,22.260000,21.47
3584880,0.389912,-0.175192,0.871080,-3.010000,14.140000,21.350000,21.49
3584891,0.403088,-0.180560,0.856928,0.420000,14.980000,19.740000,21.49
3584904,0.428952,-0.186904,0.839848,6.300000,16.799999,17.990000,21.47
3584915,0.426512,-0.206424,0.834968,7.980000,18.969999,15.680000,21.48
3584925,0.417728,-0.222528,0.835944,8.050000,20.370001,14.420000,21.48
3584937,0.426512,-0.269376,0.837408,11.690000,22.260000,12.320000,21.50
3584948,0.419192,-0.253272,0.855464,13.440000,23.030001,11.060000,21.50
3584959,0.433832,-0.223016,0.881816,13.860000,23.240000,9.800000,21.50
3584970,0.438224,-0.170800,0.921344,8.260000,24.920000,8.960000,21.49
3584981,0.440176,-0.133712,0.932568,-1.470000,26.879999,9.310000,21.49
3584992,0.460184,-0.140056,0.933056,-8.680000,29.330000,10.290000,21.48
3585002,0.449448,-0.146400,0.935984,-16.799999,31.360001,11.410000,21.48
3585013,0.457744,-0.183488,0.946232,-20.160000,31.850000,13.020000,21.49
3585024,0.463112,-0.183976,0.984784,-22.750000,33.529999,13.090000,21.44
3585035,0.470432,-0.220576,0.990152,-21.000000,34.720001,12.950000,21.44
3585046,0.475312,-0.246440,0.975512,-16.309999,33.459999,13.020000,21.50
3585057,0.490440,-0.281088,0.961848,-11.270000,34.580002,12.390000,21.50
3585068,0.471408,-0.290848,0.977952,-4.760000,34.930000,11.480000,21.50
3585079,0.458232,-0.265960,0.977464,2.100000,34.020000,10.990000,21.45
3585089,0.458232,-0.255712,0.988200,5.670000,32.549999,10.640000,21.45
3585100,0.472384,-0.237656,0.979904,8.960000,31.920000,10.360000,21.45
3585111,0.473848,-0.227896,0.975024,10.430000,31.150000,9.520000,21.45
3585122,0.479216,-0.223504,0.985760,11.200000,30.240000,8.960000,21.48
3585133,0.485072,-0.225944,0.985272,13.370000,28.770000,7.770000,21.48
3585144,0.467992,-0.205936,0.985760,13.720000,27.440001,5.320000,21.48
3585155,0.467992,-0.197152,0.966240,14.630000,25.969999,2.240000,21.50
3585165,0.446032,-0.206912,0.959896,16.100000,24.500000,-0.350000,21.50
3585176,0.450424,-0.233264,0.940864,35.000000,21.980000,-2.380000,21.45
3585187,0.458720,-0.269864,0.901824,22.330000,19.809999,-6.510000,21.45
3585198,0.469944,-0.268400,0.838872,26.740000,17.570000,-9.450000,21.47
3585209,0.493856,-0.290848,0.806664,27.930000,16.170000,-14.420000,21.47
3585220,0.506544,-0.269376,0.760792,27.440001,16.940001,-19.320000,21.44
3585231,0.516304,-0.243512,0.738344,26.389999,18.480000,-23.940001,21.48
3585242,0.528016,-0.217648,0.735416,21.139999,21.280001,-31.080000,21.48
3585253,0.521184,-0.218136,0.717360,14.910000,26.530001,-38.500000,21.46
3585264,0.496784,-0.236680,0.706136,8.890000,30.799999,-45.779999,21.46
3585275,0.457256,-0.227408,0.689056,2.730000,38.709999,-51.869999,21.50
3585285,0.258640,-0.165920,0.697840,-6.160000,48.299999,-60.270000,21.50
3585296,0.280600,-0.148840,0.689544,-14.700000,56.630001,-68.949997,21.50
3585307,0.160064,-0.222528,0.728096,-4.270000,64.680000,-75.599998,21.47
3585318,0.043432,-0.230336,0.805688,11.830000,68.529999,-84.629997,21.47
3585329,-0.040016,-0.245952,0.834968,32.340000,70.980003,-92.959999,21.51
3585340,-0.142008,-0.251808,0.805688,49.560001,76.019997,-97.019997,21.46
3585353,-0.267912,-0.200080,0.827160,60.549999,78.959999,-98.209999,21.46
3585365,-0.450912,-0.074176,0.900848,64.610001,79.169998,-95.339996,21.46
3585376,-0.542168,0.081984,1.011136,60.060001,75.459999,-89.599998,21.46
3585387,-0.619272,0.200080,1.105320,45.080002,68.949997,-85.540001,21.50
3585398,-0.660264,0.302072,1.218536,27.090000,62.369999,-79.589996,21.50
3585408,-0.675880,0.293776,1.259528,5.250000,56.139999,-70.139999,21.50
3585419,-0.688080,0.271328,1.247328,-14.000000,47.389999,-61.110001,21.48
3585430,-0.694424,0.237168,1.228296,-24.709999,36.889999,-48.299999,21.48
3585441,-0.675392,0.209840,1.220488,-33.110001,28.910000,-35.139999,21.46
3585452,-0.666120,0.148352,1.223416,-31.290001,18.969999,-24.639999,21.49
3585463,-0.641720,0.086864,1.207800,-22.680000,8.820000,-12.530000,21.49
3585474,-0.619760,0.026352,1.179008,-3.850000,1.050000,-1.960000,21.47
3585485,-0.583160,0.035624,1.129232,15.330000,-7.770000,5.810000,21.47
3585496,-0.539240,0.029280,1.097512,29.889999,-14.910000,13.650000,21.50
3585507,-0.501664,0.061976,1.061400,36.259998,-19.180000,20.580000,21.50
3585518,-0.454816,0.091744,1.027728,37.380001,-21.559999,25.830000,21.53
3585529,-0.415288,0.105408,1.008208,33.810001,-23.660000,29.540001,21.45
3585540,-0.390400,0.124440,0.982344,29.049999,-24.850000,33.810001,21.45
3585550,-0.350384,0.123464,0.952088,21.350000,-25.340000,36.959999,21.46
3585561,-0.366000,0.060512,0.842288,18.620001,-16.730000,34.090000,21.46
3585572,-0.259128,0.075640,0.935008,11.690000,-24.150000,44.169998,21.54
3585583,-0.232776,0.064904,0.931104,10.360000,-21.980000,45.360001,21.45
3585594,-0.201544,0.063440,0.943792,8.400000,-19.459999,46.759998,21.45
3585605,-0.170800,0.053680,0.942816,8.750000,-17.709999,48.020000,21.48
3585616,-0.129320,0.058560,0.958920,7.350000,-15.120000,48.509998,21.48
3585626,-0.106384,0.057096,0.975512,7.000000,-13.440000,48.230000,21.50
3585637,-0.088816,0.083936,0.987224,4.480000,-12.460000,47.389999,21.50
3585648,-0.063928,0.065392,0.978440,-0.560000,-11.060000,47.320000,21.50
3585659,-0.119072,0.052704,0.982832,-7.560000,-18.549999,48.230000,21.47
3585670,-0.012688,0.054656,1.014552,-15.540000,-9.940000,45.570000,21.47
3585681,-0.029768,0.036600,1.031632,-20.370001,-8.890000,43.959999,21.50
3585692,-0.039040,0.010736,1.041880,-19.740000,-11.480000,42.490002,21.50
3585703,-0.010736,-0.033672,1.010160,-14.980000,-13.160000,39.270000,21.46
3585714,0.007808,-0.091256,1.001376,-4.620000,-13.580000,36.259998,21.47
3585725,0.034648,-0.120048,0.996984,10.290000,-14.000000,32.900002,21.47
3585736,0.054656,-0.097112,0.986248,18.480000,-15.330000,30.590000,21.48
3585747,0.090768,-0.052704,0.987224,23.309999,-15.330000,28.700001,21.48
3585757,0.107360,-0.015128,1.002840,21.629999,-13.510000,27.230000,21.48
3585768,0.103944,0.008296,1.014552,17.990000,-13.720000,25.549999,21.48
3585779,0.149328,0.002440,1.017968,8.960000,-14.140000,24.920000,21.45
3585790,0.223992,-0.009760,1.023336,-2.240000,-13.230000,24.850000,21.50
3585801,0.272792,-0.037576,1.019920,-9.450000,-11.620000,23.170000,21.50
3585812,0.309880,-0.072712,1.021384,-13.580000,-10.010000,20.510000,21.48
3585823,0.347456,-0.133224,1.014552,-13.580000,-9.520000,17.430000,21.48
3585834,0.412360,-0.195688,1.018944,-11.270000,-8.330000,14.770000,21.50
3585845,0.444080,-0.220088,1.052128,-8.120000,-6.860000,13.440000,21.47
3585856,0.468968,-0.205448,1.076040,-4.340000,-6.370000,11.830000,21.47
3585867,0.520208,-0.211792,1.082872,-3.360000,-6.720000,10.500000,21.49
3585878,0.559248,-0.212768,1.073600,-4.270000,-6.160000,10.150000,21.49
3585889,0.597312,-0.206912,1.079456,-9.800000,-5.180000,9.520000,21.51
3585900,0.625616,-0.208864,1.093120,-16.309999,-4.550000,9.310000,21.44
3585911,0.650504,-0.207888,1.113616,-22.190001,-4.690000,9.450000,21.44
3585922,0.668072,-0.221552,1.105808,-29.330000,-4.550000,9.450000,21.46
3585932,0.664656,-0.262544,1.092632,-32.060001,-4.970000,9.170000,21.46
3585943,0.666120,-0.279136,1.071160,-31.990000,-6.160000,8.470000,21.47
3585954,0.664168,-0.305488,1.051640,-27.370001,-6.300000,7.420000,21.47
3585965,0.649040,-0.322080,1.036512,-20.090000,-6.510000,6.510000,21.45
3585976,0.502640,-0.308416,1.019920,-15.050000,-7.210000,6.510000,21.46
3585987,0.619272,-0.278160,1.013088,-11.830000,-7.840000,6.860000,21.46
3585998,0.600728,-0.251808,1.011624,-11.060000,-8.400000,6.440000,21.48
3586009,0.582672,-0.233752,1.004304,-12.810000,-9.590000,6.020000,21.48
3586020,0.573888,-0.245952,0.996984,-14.910000,-10.710000,4.620000,21.52
3586031,0.565104,-0.283528,0.972096,-15.120000,-10.500000,3.150000,21.46
3586042,0.555832,-0.301096,0.955504,-14.280000,-10.430000,1.190000,21.46
3586053,0.540704,-0.311344,0.946720,-13.650000,-8.470000,-1.470000,21.48
3586064,0.511912,-0.292312,0.937448,-13.370000,-7.000000,-4.830000,21.48
3586075,0.479704,-0.279136,0.923296,-15.400000,-5.390000,-8.190000,21.47
3586086,0.446032,-0.258152,0.915976,-20.370001,-2.800000,-12.600000,21.47
3586097,0.413824,-0.262544,0.890600,-23.799999,-0.630000,-18.830000,21.47
3586108,0.380640,-0.267912,0.893528,-24.570000,1.540000,-24.150000,21.43
3586119,0.371856,-0.289384,0.897920,-21.420000,4.480000,-29.330000,21.43
3586130,0.325008,-0.278160,0.906216,-16.450001,9.030000,-35.980000,21.50
3586141,0.286456,-0.248880,0.914512,-7.700000,12.110000,-42.419998,21.50
3586152,0.246928,-0.227408,0.895480,3.290000,17.709999,-48.650002,21.49
3586163,0.140544,-0.203008,0.912560,7.910000,23.940001,-56.139999,21.52
3586173,0.081008,-0.241072,0.901824,19.530001,25.410000,-62.090000,21.52
3586184,0.020008,-0.164456,0.890112,23.590000,28.559999,-66.080002,21.48
3586195,-0.029768,-0.141032,0.906216,21.629999,32.759998,-71.610001,21.48
3586206,-0.090768,-0.100528,0.887672,18.059999,35.209999,-75.459999,21.49
3586217,-0.156160,-0.068808,0.872056,11.900000,39.970001,-79.449997,21.43
3586228,-0.212768,-0.089792,0.891088,10.850000,43.470001,-81.410004,21.43
3586239,-0.291336,-0.096624,0.954528,18.059999,45.779999,-82.949997,21.48
3586250,-0.401136,-0.024888,1.018456,26.180000,45.150002,-82.739998,21.48
3586261,-0.467016,0.031232,1.098488,30.799999,42.000000,-81.690002,21.46
3586271,-0.519720,0.079056,1.127768,34.860001,38.709999,-77.910004,21.46
3586282,-0.554856,0.119560,1.124352,31.639999,32.900002,-73.430000,21.47
3586293,-0.553392,0.081496,1.089216,30.660000,27.510000,-66.150002,21.48
3586304,-0.562664,0.119560,1.052616,25.830000,24.360001,-56.419998,21.48
3586317,-0.567056,0.154696,1.048224,21.209999,19.740000,-46.130001,21.47
3586328,-0.570472,0.183488,1.063840,18.830000,16.309999,-36.540001,21.47
3586338,-0.537776,0.170800,1.075552,17.430000,12.040000,-28.070000,21.48
3586349,-0.519232,0.162016,1.098976,13.860000,7.560000,-18.549999,21.47
3586360,-0.491904,0.127856,1.084336,10.570000,4.900000,-8.820000,21.47
3586371,-0.475312,0.067344,1.070672,9.870000,1.680000,-2.030000,21.47
3586382,-0.454328,0.026352,1.053104,9.800000,-0.700000,6.160000,21.47
3586392,-0.436272,-0.003416,1.034072,13.580000,-1.890000,11.410000,21.51
3586403,-0.411872,-0.009760,1.009672,15.890000,-3.220000,17.219999,21.51
3586414,-0.390888,-0.028304,0.999424,16.100000,-3.780000,22.049999,21.44
3586425,-0.370392,-0.045384,0.990152,17.290001,-4.270000,25.340000,21.48
3586436,-0.346968,-0.051728,0.981856,19.950001,-5.040000,28.420000,21.48
3586447,-0.336232,-0.025376,0.974048,21.209999,-5.460000,31.219999,21.46
3586458,-0.304512,0.014640,0.959896,17.570000,-5.180000,34.580002,21.46
3586469,-0.286944,0.043920,0.955504,10.780000,-3.430000,37.099998,21.48
3586479,-0.290360,0.067344,0.971120,7.140000,-2.870000,40.110001,21.46
3586490,-0.281576,0.085888,1.004304,2.870000,-2.100000,42.349998,21.46
3586501,-0.291824,0.097112,1.037000,-3.850000,-2.380000,45.849998,21.52
3586512,-0.307440,0.060024,1.054080,-8.400000,-3.920000,49.349998,21.52
3586523,-0.301096,0.027816,1.051640,-3.850000,-6.580000,51.380001,21.44
3586534,-0.286456,0.023424,1.034072,4.060000,-9.450000,53.270000,21.44
3586545,-0.278160,0.023912,1.012112,11.550000,-11.270000,54.389999,21.49
3586555,-0.248392,0.022936,1.003328,16.100000,-12.600000,55.369999,21.46
3586566,-0.231312,0.055632,1.013576,16.030001,-13.090000,56.419998,21.46
3586577,-0.228384,0.088328,1.033584,12.530000,-14.140000,57.049999,21.50
3586588,-0.221064,0.079056,1.030168,8.890000,-16.240000,57.400002,21.50
3586599,-0.213256,0.087352,1.012112,7.630000,-19.250000,57.119999,21.48
3586609,-0.198616,0.088816,0.967704,5.180000,-21.629999,56.349998,21.50
3586620,-0.140544,0.101992,0.928664,-2.170000,-23.030001,55.299999,21.50
3586631,-0.104920,0.066368,0.917928,-8.330000,-21.700001,53.340000,21.49
3586642,-0.077592,0.041968,0.959896,-12.110000,-20.370001,51.799999,21.49
3586653,-0.074176,0.051728,0.988200,-14.700000,-19.950001,49.560001,21.52
3586664,-0.059536,0.012688,0.993568,-15.330000,-21.000000,46.900002,21.52
3586675,-0.019032,-0.039040,0.965752,-11.550000,-22.400000,44.380001,21.55
3586686,0.060512,-0.086376,0.929152,-2.520000,-22.959999,40.599998,21.48
3586697,0.121512,-0.103456,0.913048,3.990000,-20.650000,36.049999,21.48
3586707,0.168848,-0.094184,0.939888,7.700000,-17.360001,33.040001,21.48
3586718,0.192760,-0.095160,0.980392,10.640000,-15.540000,28.700001,21.48
3586729,0.197640,-0.069784,1.026264,11.900000,-15.260000,24.080000,21.52
3586740,0.192760,-0.043432,1.019920,10.080000,-18.059999,20.930000,21.50
3586751,0.322080,-0.084424,0.979904,8.470000,-20.020000,18.830000,21.50
3586761,0.406992,-0.090280,0.968192,1.820000,-16.590000,16.660000,21.45
3586772,0.451400,-0.114680,0.991616,-6.020000,-12.390000,14.000000,21.45
3586783,0.477752,-0.132736,1.053592,-10.920000,-9.660000,11.620000,21.51
3586794,0.506544,-0.110288,1.097512,-21.139999,-8.260000,9.870000,21.51
3586804,0.566080,-0.122488,1.112640,-32.200001,-7.000000,8.820000,21.47
3586815,0.598288,-0.166408,1.113616,-46.130001,-5.950000,7.630000,21.48
3586826,0.638792,-0.241072,1.137528,-52.709999,-5.250000,7.420000,21.48
3586837,0.690032,-0.328912,1.170712,-52.919998,-4.340000,5.320000,21.49
3586848,0.687592,-0.364536,1.206824,-49.279999,-7.770000,7.770000,21.49
3586859,0.748104,-0.376736,1.210240,-45.290001,-4.410000,3.080000,21.45
3586870,0.705648,-0.391864,1.202920,-38.639999,-6.370000,2.100000,21.45
3586881,0.709064,-0.416264,1.176080,-31.219999,-7.770000,0.350000,21.49
3586891,0.703696,-0.419192,1.140456,-19.250000,-7.420000,-1.120000,21.48
3586902,0.664656,-0.380640,1.105320,-11.690000,-8.890000,-1.330000,21.48
3586913,0.647088,-0.337696,1.070672,-7.280000,-9.940000,-2.030000,21.46
3586924,0.641720,-0.318176,1.059448,-8.750000,-10.920000,-2.310000,21.46
3586935,0.638304,-0.331840,1.034072,-12.180000,-11.340000,-3.780000,21.50
3586946,0.625616,-0.337208,1.004792,-14.840000,-11.760000,-4.060000,21.45
3586957,0.610488,-0.356240,0.980392,-13.440000,-11.970000,-5.320000,21.45
3586968,0.596336,-0.363560,0.958432,-8.750000,-11.620000,-7.490000,21.48
3586979,0.589016,-0.333304,0.930128,-7.280000,-10.780000,-9.380000,21.48
3586990,0.612440,-0.284992,0.906216,-12.320000,-8.890000,-10.780000,21.48
3587001,0.605608,-0.266448,0.893040,-20.020000,-5.950000,-13.370000,21.48
3587012,0.580232,-0.285968,0.888160,-24.850000,-1.680000,-17.500000,21.48
3587023,0.551928,-0.340136,0.872544,-30.030001,0.910000,-22.820000,21.47
3587034,0.545584,-0.364536,0.847656,-28.910000,3.710000,-26.320000,21.47
3587045,0.538264,-0.327936,0.825208,-28.559999,8.120000,-31.850000,21.52
3587056,0.509472,-0.345992,0.817400,-26.250000,11.900000,-38.290001,21.52
3587067,0.466528,-0.346968,0.819352,-21.350000,17.639999,-44.730000,21.48
3587078,0.396256,-0.361120,0.838384,-14.000000,22.400000,-54.880001,21.48
3587089,0.317688,-0.361120,0.867176,-6.020000,27.860001,-64.820000,21.48
3587100,0.248880,-0.395280,0.924760,9.730000,30.799999,-75.320000,21.49
3587110,0.144448,-0.324520,0.960872,25.620001,35.070000,-82.809998,21.49
3587121,0.061000,-0.196176,0.955504,34.090000,39.549999,-92.680000,21.47
3587132,-0.075152,-0.148840,0.964776,42.770000,43.259998,-100.730003,21.47
3587143,-0.211792,-0.080520,0.968680,48.299999,46.759998,-107.449997,21.47
3587154,-0.298168,-0.010248,0.948184,47.320000,48.439999,-111.650002,21.46
3587165,-0.444080,0.000000,0.949648,50.400002,52.220001,-113.330002,21.46
3587175,-0.573888,0.066368,0.977464,53.200001,50.470001,-112.629997,21.46
3587186,-0.650504,0.174704,1.059448,44.660000,47.180000,-109.620003,21.46
3587197,-0.730536,0.198616,1.118496,30.940001,40.389999,-106.050003,21.46
3587208,-0.752984,0.227408,1.115080,23.170000,33.180000,-97.089996,21.51
3587218,-0.750544,0.208376,1.116544,17.219999,27.370001,-89.250000,21.51
3587229,-0.749080,0.180560,1.099952,16.799999,19.879999,-77.769997,21.54
3587240,-0.733464,0.204960,1.078968,14.840000,15.540000,-61.389999,21.54
3587251,-0.733952,0.166896,1.074576,15.680000,8.890000,-49.349998,21.47
3587261,-0.716872,0.201544,1.066768,19.389999,1.610000,-32.060001,21.47
3587272,-0.686128,0.206912,1.041880,21.350000,-3.780000,-15.890000,21.51
3587283,-0.622200,0.145912,1.019432,24.080000,-8.610000,-4.270000,21.50
3587294,-0.554856,0.084912,1.003816,25.200001,-12.390000,9.030000,21.50
3587305,-0.514840,0.001952,1.016992,29.610001,-14.560000,19.320000,21.51
3587316,-0.465064,-0.042456,1.006256,34.439999,-16.590000,25.969999,21.51
3587327,-0.410896,-0.067344,0.975024,36.959999,-16.730000,31.639999,21.53
3587338,-0.366488,-0.094184,0.931104,37.730000,-15.820000,35.279999,21.50
3587349,-0.307928,-0.112728,0.924272,34.790001,-13.440000,36.820000,21.50
3587360,-0.275720,-0.103944,0.938424,30.730000,-9.730000,38.290001,21.46
3587371,-0.276208,-0.060512,0.957456,28.139999,-7.700000,39.480000,21.46
3587382,-0.277184,-0.015616,0.973072,21.910000,-5.740000,40.740002,21.48
3587393,-0.281576,0.030744,0.982832,14.210000,-4.690000,43.610001,21.47
3587404,-0.284992,0.070272,0.977464,8.610000,-3.780000,47.459999,21.47
3587414,-0.286944,0.095160,0.981368,-0.350000,-2.870000,52.290001,21.47
3587425,-0.265472,0.098576,0.988688,-6.370000,-2.100000,56.560001,21.47
3587436,-0.260104,0.130784,0.998448,-9.940000,-0.560000,61.599998,21.50
3587447,-0.290848,0.005368,1.013088,-12.320000,-0.840000,65.169998,21.50
3587458,-0.293776,0.046848,1.020896,-1.190000,-3.710000,68.110001,21.51
3587469,-0.282552,0.020008,1.002352,9.030000,-5.180000,69.790001,21.49
3587480,-0.260592,0.019520,0.957944,21.420000,-7.000000,71.330002,21.49
3587491,-0.225944,0.045384,0.934032,28.910000,-7.000000,71.959999,21.48
3587501,-0.227408,0.112728,0.935008,27.020000,-7.070000,72.449997,21.48
3587512,-0.227408,0.107848,0.973072,22.820000,-8.330000,73.570000,21.45
3587523,-0.211304,0.126392,0.997960,15.680000,-9.520000,75.110001,21.45
3587534,-0.205448,0.146400,1.000888,7.490000,-11.200000,75.809998,21.46
3587545,-0.159576,0.146888,0.996984,2.940000,-13.300000,75.949997,21.51
3587555,-0.144448,0.134688,0.984784,0.070000,-12.110000,73.709999,21.51
3587566,-0.149328,0.121512,0.958432,-5.460000,-12.880000,72.169998,21.52
3587577,-0.121024,0.105896,0.953064,-13.860000,-14.210000,72.309998,21.52
3587588,-0.068320,0.084912,0.966728,-22.820000,-15.260000,72.660004,21.48
3587599,-0.036600,0.080032,0.995032,-35.560001,-15.470000,71.820000,21.50
3587610,-0.000488,0.070760,0.993080,-48.580002,-15.260000,69.230003,21.50
3587621,0.026352,0.021960,0.983320,-52.709999,-14.350000,64.680000,21.48
3587632,0.035624,-0.023912,0.934032,-41.020000,-14.840000,56.209999,21.48
3587642,0.066856,0.010736,0.945744,-32.619999,-16.170000,48.439999,21.50
3587653,0.080032,0.019520,0.968680,-38.990002,-15.890000,39.619999,21.50
3587664,0.106872,-0.058072,1.010648,-49.980000,-19.459999,35.070000,21.46
3587675,0.182024,-0.174704,1.034072,-51.450001,-22.469999,31.920000,21.51
3587686,0.251808,-0.212768,1.033096,-48.439999,-23.450001,28.700001,21.51
3587697,0.295240,-0.224480,0.992592,-42.490002,-22.540001,24.570000,21.48
3587708,0.330376,-0.247904,0.977464,-34.160000,-21.070000,19.670000,21.48
3587719,0.355264,-0.244976,1.031632,-31.430000,-21.139999,16.450001,21.48
3587730,0.390888,-0.262544,1.089216,-31.920000,-21.490000,14.210000,21.44
3587740,0.440176,-0.238632,1.138016,-33.740002,-23.450001,12.600000,21.44
3587751,0.474336,-0.198128,1.188768,-42.209999,-22.120001,10.290000,21.45
3587762,0.471408,-0.247416,1.170224,-50.750000,-22.610001,7.000000,21.45
3587773,0.520696,-0.366976,1.002352,-48.299999,-22.260000,4.690000,21.52
3587784,0.578280,-0.467504,1.090192,-40.180000,-21.629999,3.640000,21.52
3587795,0.617808,-0.481656,1.082872,-29.820000,-21.209999,3.570000,21.44
3587806,0.667584,-0.462624,1.094096,-23.100000,-21.209999,3.990000,21.48
3587816,0.732976,-0.475312,1.090192,-17.709999,-19.320000,3.920000,21.48
3587827,0.750056,-0.480680,1.098976,-12.600000,-17.990000,4.480000,21.50
3587838,0.763720,-0.472872,1.102880,-13.020000,-17.920000,5.110000,21.50
3587849,0.786656,-0.477264,1.104344,-15.820000,-18.200001,6.580000,21.50
3587860,0.795928,-0.481168,1.095560,-16.940001,-17.709999,8.260000,21.48
3587871,0.791536,-0.456768,1.070672,-19.250000,-17.430000,9.520000,21.48
3587882,0.785680,-0.486536,1.029680,-20.510000,-16.450001,8.960000,21.51
3587893,0.769576,-0.506056,0.976000,-19.389999,-14.770000,7.280000,21.51
3587904,0.754448,-0.548024,0.939400,-12.250000,-13.720000,5.600000,21.48
3587915,0.756888,-0.571448,0.895968,-6.440000,-12.320000,3.430000,21.48
3587926,0.752008,-0.565104,0.861808,2.170000,-10.850000,1.540000,21.48
3587937,0.757376,-0.517768,0.837896,5.810000,-7.700000,-0.980000,21.52
3587948,0.737856,-0.446520,0.848144,1.190000,-4.060000,-4.550000,21.52
3587959,0.725656,-0.394304,0.858880,-6.510000,-1.050000,-8.330000,21.48
3587970,0.691984,-0.396256,0.857416,-17.570000,2.870000,-11.830000,21.48
3587980,0.667096,-0.395280,0.844240,-26.670000,6.090000,-16.170000,21.50
3587991,0.646112,-0.417728,0.820816,-32.200001,10.640000,-22.680000,21.45
3588002,0.610000,-0.436272,0.800320,-31.920000,14.280000,-30.590000,21.45
3588013,0.573400,-0.445056,0.784704,-27.719999,19.530001,-38.220001,21.51
3588024,0.527528,-0.468968,0.744688,-20.580000,26.530001,-49.070000,21.51
3588035,0.482632,-0.485072,0.748104,-5.530000,31.360001,-61.529999,21.48
3588046,0.418704,-0.380640,0.755424,3.990000,38.360001,-71.190002,21.46
3588057,0.289384,-0.299632,0.787632,5.390000,48.299999,-84.769997,21.46
3588068,0.176656,-0.279136,0.851560,7.210000,53.340000,-97.019997,21.45
3588079,0.067832,-0.240096,0.868152,9.380000,60.060001,-106.330002,21.45
3588096,-0.143472,-0.243512,0.929152,10.080000,66.360001,-122.500000,21.46
3588111,-0.396256,-0.181536,0.982832,15.610000,69.930000,-134.259995,21.48
3588129,-0.573888,-0.187392,0.932568,32.619999,70.419998,-142.449997,21.46
3588147,-0.754448,-0.003904,0.956480,49.490002,63.630001,-136.500000,21.50
3588158,-0.841312,0.097112,1.032120,49.910000,56.279999,-130.479996,21.46
3588169,-0.889136,0.261568,1.083360,39.759998,48.439999,-119.559998,21.46
3588180,-0.904264,0.319152,1.160952,25.480000,39.549999,-104.860001,21.48
3588191,-0.885720,0.289872,1.181936,16.379999,30.799999,-86.800003,21.48
3588202,-0.839848,0.290848,1.182912,4.130000,20.160000,-70.980003,21.48
3588213,-0.776408,0.233264,1.117520,-1.890000,10.780000,-51.029999,21.48
3588225,-0.702232,0.153232,1.031144,-4.130000,3.500000,-31.430000,21.43
3588236,-0.643672,0.057096,0.979416,2.800000,-2.380000,-13.440000,21.46
3588247,-0.565104,-0.013664,0.962336,18.480000,-7.630000,-1.540000,21.46
3588258,-0.516792,-0.076128,0.971608,35.139999,-10.710000,12.460000,21.48
3588269,-0.476776,-0.083448,0.976000,46.689999,-12.040000,24.360001,21.48
3588280,-0.422120,-0.064904,0.971120,54.180000,-11.060000,33.389999,21.50
3588291,-0.384056,-0.046360,0.971608,52.290001,-8.260000,39.480000,21.46
3588302,-0.364048,-0.038064,0.979416,44.869999,-5.600000,46.410000,21.46
3588313,-0.355264,-0.041968,0.983320,35.070000,-3.710000,52.360001,21.48
3588324,-0.340136,-0.013176,0.976000,27.299999,-2.170000,56.000000,21.48
3588335,-0.323056,0.002928,0.980392,19.530001,-0.420000,59.849998,21.46
3588346,-0.312808,0.009272,0.991128,15.750000,0.700000,64.050003,21.45
3588357,-0.300120,0.023424,1.010160,11.340000,1.750000,66.779999,21.45
3588368,-0.298656,0.046360,1.016504,8.470000,2.590000,70.139999,21.52
3588378,-0.294752,0.051728,1.027728,3.430000,2.240000,72.800003,21.52
3588389,-0.265960,0.001464,1.047248,-0.980000,0.000000,73.779999,21.46
3588400,-0.214720,-0.086864,1.048712,0.910000,-2.100000,73.570000,21.46
3588411,-0.201544,-0.138592,1.047736,4.340000,-2.100000,71.470001,21.48
3588422,-0.210328,-0.163480,1.039928,13.860000,-4.410000,69.300003,21.48
3588433,-0.187880,-0.172264,1.027240,21.280001,-6.860000,66.430000,21.48
3588443,-0.162016,-0.144936,1.013088,29.260000,-7.560000,63.980000,21.49
3588454,-0.195688,-0.095160,1.011136,34.090000,-8.540000,63.070000,21.49
3588465,-0.192760,-0.049776,1.020896,34.230000,-10.080000,63.490002,21.52
3588476,-0.183000,-0.013176,1.023336,32.619999,-10.500000,63.980000,21.43
3588487,-0.182024,0.011224,1.025776,30.450001,-10.920000,64.190002,21.43
3588498,-0.175192,0.027328,1.022848,27.090000,-12.180000,64.050003,21.49
3588509,-0.163480,0.046360,1.010648,22.049999,-14.280000,64.330002,21.49
3588520,-0.140544,0.024400,0.992592,16.799999,-14.560000,63.349998,21.46
3588531,-0.127368,0.005368,0.978440,13.230000,-15.190000,62.509998,21.46
3588542,-0.126880,-0.009760,0.991128,10.710000,-16.170000,59.150002,21.46
3588553,-0.145912,0.020008,0.992592,8.820000,-18.760000,56.139999,21.51
3588564,-0.150304,0.017080,0.965752,7.140000,-23.660000,53.340000,21.51
3588575,-0.112240,0.028792,0.952088,-17.360001,-28.280001,50.610001,21.50
3588586,-0.062464,0.009272,0.933056,-11.480000,-30.799999,49.000000,21.50
3588597,-0.007808,-0.041480,0.920856,-15.750000,-32.060001,47.320000,21.47
3588608,0.029768,-0.042456,0.923784,-16.240000,-31.850000,45.220001,21.51
3588620,0.031232,-0.040016,0.966728,-16.730000,-32.270000,41.090000,21.51
3588631,0.022448,-0.046848,1.000888,-17.780001,-34.369999,37.730000,21.46
3588642,0.027816,-0.024400,1.022360,-18.200001,-38.709999,34.790001,21.46
3588653,0.079056,-0.026352,1.012112,-19.740000,-44.029999,32.130001,21.52
3588664,0.162992,0.000000,0.970632,-26.740000,-42.980000,28.139999,21.46
3588676,0.229360,-0.059048,0.927200,-27.370001,-41.439999,17.290001,21.46
3588687,0.281576,-0.105896,0.925736,-31.780001,-36.540001,16.240000,21.50
3588698,0.317688,-0.124928,0.935496,-35.000000,-35.349998,12.740000,21.50
3588709,0.357216,-0.136152,0.993568,-40.459999,-35.560001,10.150000,21.50
3588721,0.453352,-0.154696,1.035048,-46.759998,-34.790001,8.960000,21.46
3588732,0.498736,-0.186416,1.066280,-48.090000,-32.759998,5.110000,21.46
3588743,0.557296,-0.244976,1.089216,-46.830002,-31.360001,2.660000,21.46
3588754,0.586088,-0.283040,1.095072,-46.830002,-27.860001,5.180000,21.46
3588765,0.668560,-0.286944,1.059936,-41.720001,-28.629999,-0.210000,21.44
3588777,0.700768,-0.297192,1.073112,-42.419998,-25.340000,-1.190000,21.50
3588788,0.747616,-0.314272,1.073600,-45.150002,-24.010000,0.700000,21.50
3588800,0.795440,-0.366976,1.084824,-46.340000,-18.690001,2.730000,21.48
3588811,0.772992,-0.381616,1.110200,-46.270000,-14.700000,3.780000,21.46
3588823,0.765672,-0.393816,1.106784,-44.520000,-13.230000,6.930000,21.46
3588834,0.757376,-0.422120,1.080432,-41.509998,-11.480000,9.520000,21.48
3588845,0.745664,-0.423096,1.057008,-38.919998,-9.240000,11.480000,21.48
3588856,0.721752,-0.408944,1.059448,-36.470001,-8.330000,11.270000,21.46
3588868,0.706136,-0.410408,1.072624,-35.840000,-7.490000,10.850000,21.46
3588879,0.678808,-0.443104,1.085800,-34.439999,-7.840000,10.290000,21.46
3588890,0.654408,-0.449448,1.081896,-31.639999,-9.030000,10.640000,21.49
3588901,0.632936,-0.471408,1.045784,-28.420000,-9.660000,10.850000,21.49
3588913,0.618296,-0.491416,1.005768,-23.309999,-11.830000,10.360000,21.51
3588924,0.634888,-0.484096,0.960384,-21.559999,-11.060000,8.400000,21.48
3588936,0.638304,-0.483608,0.923296,-24.219999,-8.610000,5.600000,21.48
3588947,0.614880,-0.478728,0.898896,-28.070000,-6.440000,1.120000,21.49
3588958,0.588528,-0.517768,0.877912,-25.200001,-3.080000,-3.430000,21.49
3588970,0.559736,-0.533872,0.864736,-13.860000,-2.030000,-10.290000,21.48
3588981,0.535824,-0.498736,0.825208,-7.490000,-0.070000,-18.200001,21.43
3588992,0.508496,-0.483608,0.818376,-2.870000,2.520000,-25.200001,21.43
3589004,0.485072,-0.453352,0.811056,0.630000,5.460000,-31.709999,21.54
3589015,0.458232,-0.455304,0.799344,6.090000,7.840000,-39.060001,21.54
3589026,0.429440,-0.418704,0.773480,13.370000,13.720000,-45.570000,21.44
3589037,0.373320,-0.411384,0.765184,21.420000,19.040001,-54.389999,21.49
3589048,0.337208,-0.392352,0.764696,27.860001,23.799999,-63.070000,21.49
3589059,0.290848,-0.353800,0.760792,31.990000,28.980000,-72.519997,21.45
3589070,0.235216,-0.369904,0.761768,42.490002,33.529999,-80.639999,21.45
3589081,0.189832,-0.293776,0.762256,41.299999,39.410000,-91.139999,21.48
3589093,0.137128,-0.291824,0.799832,38.009998,47.810001,-100.519997,21.50
3589104,0.060512,-0.296704,0.856440,36.959999,53.619999,-109.830002,21.50
3589118,-0.080032,-0.240584,0.906216,38.500000,59.709999,-119.209999,21.45
3589129,-0.166896,-0.138592,0.913536,37.660000,61.950001,-126.769997,21.46
3589140,-0.250344,-0.078568,0.862784,32.549999,66.849998,-132.300003,21.46
3589151,-0.345504,-0.125416,0.855464,24.850000,72.589996,-136.500000,21.45
3589162,-0.505568,-0.087840,0.942816,20.020000,71.820000,-134.820007,21.45
3589174,-0.624152,0.035624,1.045784,11.480000,67.410004,-131.740005,21.49
3589185,-0.702720,0.069784,1.117032,4.760000,60.200001,-128.589996,21.51
3589196,-0.721752,0.124440,1.130208,-1.260000,52.150002,-121.169998,21.51
3589207,-0.716384,0.092720,1.157048,-1.050000,42.770000,-111.300003,21.50
3589218,-0.681736,0.110288,1.147288,6.090000,35.770000,-98.910004,21.50
3589229,-0.625128,0.161040,1.098976,10.080000,29.330000,-83.300003,21.43
3589241,-0.578768,0.181048,1.094584,13.160000,22.330000,-69.089996,21.46
3589252,-0.580720,0.248392,1.117520,11.200000,14.980000,-50.959999,21.46
3589263,-0.548512,0.239120,1.135576,10.080000,5.810000,-31.990000,21.48
3589274,-0.499712,0.181536,1.114592,8.540000,-0.420000,-14.840000,21.48
3589285,-0.453840,0.115656,1.061888,10.920000,-4.760000,0.350000,21.46
3589296,-0.403576,0.038064,1.032120,19.180000,-8.330000,10.290000,21.45
3589307,-0.352824,0.031720,1.010160,25.200001,-9.100000,20.930000,21.45
3589318,-0.337208,0.040016,0.993080,28.490000,-8.610000,29.820000,21.47
3589331,-0.310368,0.021472,0.981856,27.860001,-7.140000,38.220001,21.47
3589342,-0.290848,-0.022448,0.992104,25.410000,-7.140000,45.849998,21.46
3589353,-0.277672,-0.043920,0.989176,22.120001,-6.930000,51.310001,21.46
3589364,-0.264008,-0.056120,0.967704,20.090000,-6.160000,53.970001,21.46
3589375,-0.245464,-0.066856,0.952088,17.360001,-4.060000,55.580002,21.46
3589386,-0.241072,-0.080520,0.948672,17.570000,-2.100000,57.049999,21.46
3589397,-0.233264,-0.058072,0.958432,16.309999,-0.140000,59.290001,21.46
3589408,-0.244488,-0.029280,0.983808,13.860000,1.330000,62.020000,21.50
3589419,-0.271816,0.014152,1.021872,10.080000,0.770000,65.940002,21.50
3589430,-0.290360,0.042944,1.046760,5.670000,-0.770000,68.669998,21.49
3589441,-0.284504,0.024888,1.030168,3.080000,-3.360000,70.139999,21.49
3589452,-0.255224,-0.024888,1.003328,6.440000,-5.250000,71.610001,21.50
3589463,-0.237168,-0.040504,0.979416,10.080000,-6.230000,71.680000,21.50
3589474,-0.240584,-0.041480,0.973560,13.860000,-6.370000,70.980003,21.47
3589485,-0.249368,-0.030256,0.976488,17.990000,-8.610000,70.419998,21.50
3589496,-0.232776,-0.014640,0.985760,20.790001,-10.920000,69.650002,21.50
3589507,-0.218624,-0.004880,1.002352,22.049999,-12.950000,69.230003,21.51
3589518,-0.203008,-0.008296,1.000888,19.600000,-15.610000,68.389999,21.51
3589530,-0.180560,-0.038552,0.983320,18.270000,-18.270000,66.849998,21.46
3589542,-0.158112,-0.041480,0.970632,19.110001,-20.510000,64.610001,21.43
3589553,-0.155184,-0.024888,0.967704,18.620001,-22.120001,62.090000,21.43
3589564,-0.127368,-0.021472,0.956968,18.410000,-24.570000,59.360001,21.46
3589576,-0.088328,-0.026840,0.955504,17.920000,-24.920000,55.930000,21.46
3589587,-0.070760,-0.033184,0.977952,15.540000,-25.690001,52.430000,21.44
3589598,-0.051728,-0.055632,0.994544,13.650000,-27.230000,49.000000,21.45
3589609,-0.031232,-0.041480,1.002352,11.550000,-30.030001,46.270000,21.45
3589620,0.043432,-0.035624,0.977952,8.680000,-31.500000,42.490002,21.45
3589631,0.095160,-0.036112,0.986736,4.200000,-29.540001,37.380001,21.45
3589642,0.111264,-0.037088,1.012112,-3.360000,-28.840000,33.529999,21.49
3589653,0.135664,-0.040504,1.063840,-12.530000,-29.260000,30.379999,21.51
3589664,0.147376,-0.039040,1.088240,-21.910000,-31.990000,26.320000,21.51
3589675,0.216672,-0.083936,1.088728,-29.680000,-35.349998,24.360001,21.43
3589686,0.347456,-0.141032,1.075064,-33.669998,-34.860001,21.910000,21.43
3589697,0.419680,-0.217648,1.052616,-29.049999,-32.619999,17.570000,21.48
3589708,0.478240,-0.265960,1.053104,-22.680000,-29.889999,13.090000,21.45
3589720,0.543144,-0.245952,1.122400,-20.090000,-23.590000,8.400000,21.45
3589731,0.531920,-0.271816,1.127280,-10.220000,-30.940001,5.880000,21.47
3589743,0.593408,-0.263032,1.118008,-2.800000,-25.690001,-0.210000,21.47
3589754,0.607560,-0.373808,1.084336,0.070000,-30.240000,-0.560000,21.48
3589765,0.730048,-0.277672,1.065304,1.820000,-26.180000,-1.540000,21.41
3589776,0.766160,-0.258152,1.063840,1.330000,-20.299999,-2.800000,21.41
3589787,0.772504,-0.239120,1.082384,-1.960000,-17.990000,-1.540000,21.48
3589799,0.785192,-0.224480,1.091656,-6.300000,-14.420000,-0.140000,21.48
3589810,0.773480,-0.203496,1.081408,-12.390000,-11.830000,1.540000,21.46
3589821,0.770064,-0.195688,1.060912,-18.900000,-9.380000,3.080000,21.49
3589832,0.763720,-0.203984,1.044320,-22.959999,-7.350000,4.410000,21.49
3589843,0.752496,-0.219600,1.033584,-27.160000,-4.970000,6.020000,21.43
3589854,0.726632,-0.238632,1.017968,-28.280001,-1.960000,7.070000,21.43
3589866,0.696864,-0.245952,0.984296,-28.280001,1.050000,8.120000,21.50
3589877,0.650504,-0.247416,0.964776,-27.930000,2.170000,8.750000,21.44
3589889,0.641232,-0.253760,0.956480,-26.250000,1.820000,9.100000,21.44
3589900,0.648552,-0.275232,0.948672,-24.990000,2.870000,8.750000,21.46
3589912,0.648064,-0.282064,0.950624,-22.330000,3.640000,8.610000,21.46
3589923,0.649528,-0.277672,0.944768,-22.260000,5.530000,8.050000,21.47
3589934,0.624152,-0.291824,0.946232,-23.240000,7.140000,6.650000,21.46
3589946,0.600728,-0.274744,0.937448,-25.900000,8.260000,4.270000,21.46
3589957,0.579744,-0.299144,0.901336,-27.650000,10.570000,-0.140000,21.49
3589969,0.551928,-0.331840,0.867664,-27.299999,13.440000,-5.950000,21.48
3589981,0.528504,-0.330864,0.834480,-29.260000,16.100000,-12.040000,21.48
3589993,0.500200,-0.316712,0.814960,-32.340000,20.580000,-17.219999,21.48
3590005,0.460184,-0.315248,0.804224,-31.990000,24.780001,-22.610001,21.48
3590016,0.419680,-0.348920,0.808616,-26.950001,27.930000,-29.330000,21.46
3590028,0.372832,-0.410408,0.802272,-14.210000,31.500000,-36.959999,21.43
3590039,0.287920,-0.382592,0.819352,-0.350000,33.740002,-46.200001,21.43
3590051,0.227896,-0.366000,0.844240,7.840000,35.419998,-56.419998,21.49
3590062,0.190320,-0.320616,0.843264,11.620000,39.549999,-64.750000,21.44
3590073,0.134688,-0.284504,0.848144,10.710000,44.029999,-76.230003,21.44
3590085,0.081496,-0.269376,0.862784,6.720000,49.349998,-85.680000,21.44
3590096,0.005368,-0.316712,0.867664,10.500000,52.360001,-96.320000,21.44
3590108,-0.082960,-0.244488,0.867664,11.270000,56.630001,-105.699997,21.47
3590119,-0.198616,-0.148352,0.899384,4.900000,62.090000,-116.480003,21.42
3590131,-0.336720,-0.097112,0.931592,0.840000,67.269997,-125.300003,21.42
3590142,-0.442128,-0.015128,0.956968,-7.210000,70.349998,-128.660004,21.45
3590154,-0.576816,0.005368,1.029192,-14.280000,70.769997,-126.139999,21.45
3590165,-0.703696,0.018544,1.125328,-17.150000,65.660004,-119.279999,21.48
3590176,-0.769576,0.051728,1.177544,-15.890000,55.930000,-110.459999,21.42
3590188,-0.783728,0.106384,1.175104,-14.140000,45.849998,-100.309998,21.42
3590200,-0.784704,0.127368,1.172664,-13.160000,35.980000,-87.849998,21.48
3590211,-0.739320,0.135176,1.166808,-12.320000,27.510000,-75.949997,21.45
3590223,-0.712968,0.144448,1.173640,-12.740000,16.450001,-58.660000,21.45
3590234,-0.667096,0.160064,1.179008,-14.490000,8.050000,-40.320000,21.45
3590246,-0.639768,0.081984,1.174128,-7.840000,-2.240000,-21.980000,21.45
3590258,-0.586088,-0.009760,1.150704,4.690000,-11.060000,-4.690000,21.46
3590269,-0.534360,-0.113216,1.084336,22.190001,-20.020000,10.710000,21.48
3590282,-0.446032,-0.202032,1.026264,42.700001,-24.709999,24.080000,21.48
3590294,-0.406504,-0.168848,0.975512,57.400002,-25.480000,32.200001,21.43
3590306,-0.375272,-0.121512,0.957944,59.360001,-23.870001,38.849998,21.47
3590317,-0.348432,-0.113216,0.958432,55.720001,-22.120001,43.889999,21.47
3590328,-0.325008,-0.099064,0.975512,47.040001,-19.530001,48.930000,21.47
3590340,-0.323056,-0.100528,0.964776,40.320000,-17.430000,53.200001,21.47
3590352,-0.303048,-0.085400,0.954040,34.650002,-15.680000,56.490002,21.46
3590364,-0.296704,-0.072224,0.943304,31.010000,-12.670000,58.939999,21.47
3590376,-0.291336,-0.046848,0.952088,25.900000,-10.500000,61.810001,21.47
3590387,-0.292800,-0.026840,0.975024,21.910000,-8.960000,64.820000,21.48
3590399,-0.300608,-0.027816,1.001864,16.100000,-9.940000,68.529999,21.42
3590410,-0.296704,-0.040504,1.014552,13.020000,-10.360000,71.120003,21.42
3590422,-0.273280,-0.063440,1.003816,12.320000,-12.740000,72.660004,21.45
3590433,-0.234240,-0.089304,0.980392,13.090000,-13.300000,71.959999,21.45
3590445,-0.212280,-0.080520,0.975024,16.170000,-13.650000,70.279999,21.48
3590457,-0.199104,-0.063928,0.994544,16.450001,-13.370000,67.269997,21.43
3590468,-0.198616,-0.098576,1.026264,19.809999,-13.650000,64.470001,21.43
3590480,-0.205936,-0.086376,1.036512,22.750000,-15.470000,62.790001,21.49
3590491,-0.209352,-0.092720,1.028704,27.790001,-19.740000,61.040001,21.43
3590503,-0.157136,-0.108824,0.999912,33.459999,-24.709999,60.549999,21.43
3590514,-0.112728,-0.090280,0.981368,34.650002,-24.360001,58.380001,21.45
3590526,-0.088816,-0.070272,0.983808,35.209999,-25.340000,55.299999,21.45
3590538,-0.059048,-0.055144,0.993568,36.259998,-25.969999,52.360001,21.46
3590549,-0.044896,-0.041480,0.992104,34.299999,-25.760000,47.950001,21.41
3590560,-0.052216,-0.021472,0.991128,30.940001,-26.600000,43.680000,21.41
3590571,-0.040992,-0.004880,0.965752,26.670000,-29.120001,40.180000,21.46
3590583,0.010248,-0.025376,0.948184,20.650000,-29.400000,37.099998,21.46
3590595,0.043920,-0.011712,0.945256,14.910000,-27.719999,33.389999,21.43
3590606,0.073200,-0.017568,0.955504,8.960000,-27.650000,30.240000,21.46
3590618,0.097600,0.000488,0.975024,0.070000,-26.459999,27.370001,21.46
3590629,0.088816,0.034648,1.006256,-11.690000,-27.580000,25.480000,21.49
3590640,0.113216,0.037576,1.011624,-21.840000,-30.799999,23.450001,21.47
3590651,0.175192,-0.010248,1.004792,-27.020000,-31.500000,20.930000,21.47
3590663,0.214232,-0.028792,0.988200,-30.309999,-30.730000,17.500000,21.44
3590675,0.262056,-0.071248,0.984784,-29.959999,-29.610001,14.560000,21.44
3590686,0.284016,-0.107360,1.006256,-27.510000,-28.559999,11.270000,21.46
3590698,0.295728,-0.111264,1.037976,-23.030001,-29.260000,8.470000,21.45
3590709,0.321104,-0.111752,1.046760,-15.260000,-31.500000,6.370000,21.45
3590720,0.398696,-0.119072,1.029192,-9.730000,-32.060001,4.900000,21.43
3590732,0.499712,-0.149816,1.009672,-3.640000,-28.840000,0.560000,21.43
3590744,0.467992,-0.159088,1.012112,2.520000,-34.299999,2.730000,21.42
3590759,0.574376,-0.147376,1.029680,1.750000,-24.150000,-2.100000,21.46
3590770,0.630984,-0.123464,1.046760,-1.470000,-24.990000,-0.700000,21.46
3590781,0.666608,-0.098088,1.053592,-8.540000,-21.910000,0.630000,21.47
3590793,0.715896,-0.104432,1.050664,-18.760000,-19.250000,1.820000,21.49
3590804,0.750544,-0.130784,1.044320,-26.530001,-16.170000,3.920000,21.49
3590818,0.777384,-0.164456,1.050176,-32.619999,-11.900000,7.770000,21.48
3590831,0.791536,-0.187392,1.056032,-35.070000,-8.820000,10.010000,21.41
3590842,0.795440,-0.206912,1.054080,-34.930000,-6.440000,12.040000,21.41
3590854,0.785192,-0.222528,1.041392,-33.810001,-3.360000,14.420000,21.46
3590865,0.766648,-0.222040,1.032608,-32.900002,-1.190000,16.730000,21.41
3590876,0.739808,-0.226920,1.030168,-31.430000,0.770000,18.340000,21.41
3590887,0.714432,-0.233752,1.025288,-28.980000,2.450000,19.459999,21.41
3590899,0.679296,-0.247904,1.016016,-26.389999,2.940000,20.020000,21.41
3590910,0.655872,-0.280112,1.004792,-22.190001,2.800000,20.510000,21.49
3590925,0.636840,-0.297680,0.976488,-17.219999,2.870000,20.160000,21.46
3590936,0.619760,-0.305488,0.963312,-15.190000,3.920000,18.549999,21.46
3590948,0.610976,-0.301584,0.951600,-16.730000,5.320000,16.870001,21.50
3590959,0.585112,-0.328424,0.944768,-19.950001,7.210000,13.020000,21.40
3590971,0.568520,-0.359656,0.928664,-22.750000,7.980000,8.820000,21.40
3590982,0.552904,-0.359656,0.893040,-25.270000,10.710000,3.360000,21.45
3590993,0.524600,-0.389424,0.874984,-24.219999,12.810000,-3.570000,21.45
3591004,0.481168,-0.385032,0.866688,-21.700001,16.030001,-11.480000,21.48
3591016,0.441640,-0.438712,0.869616,-14.420000,16.940001,-20.370001,21.48
3591028,0.424560,-0.431880,0.828136,-5.460000,20.020000,-28.490000,21.48
3591039,0.380152,-0.389912,0.815448,-2.450000,23.170000,-37.590000,21.48
3591050,0.338672,-0.372832,0.819352,0.000000,27.370001,-45.150002,21.45
3591062,0.267424,-0.339648,0.854488,0.770000,30.870001,-55.720001,21.45
3591074,0.223992,-0.384056,0.854000,5.880000,33.040001,-66.709999,21.45
3591085,0.165920,-0.412360,0.855952,13.650000,34.509998,-78.470001,21.45
3591096,0.129808,-0.368440,0.833504,19.389999,37.240002,-91.209999,21.49
3591107,0.075640,-0.296216,0.818864,14.630000,42.700001,-103.459999,21.50
3591118,-0.006832,-0.240096,0.858880,4.410000,51.380001,-112.209999,21.50
3591130,-0.149816,-0.123464,0.888160,-8.890000,57.889999,-119.419998,21.48
3591141,-0.295728,-0.038552,0.985760,-25.340000,61.459999,-122.220001,21.48
3591153,-0.435296,-0.047824,1.046272,-36.540001,60.830002,-124.320000,21.45
3591164,-0.546560,-0.037088,1.075552,-36.330002,57.889999,-123.830002,21.45
3591176,-0.619760,-0.114680,1.048224,-16.799999,52.779999,-122.779999,21.45
3591188,-0.648552,-0.182512,1.029192,14.210000,45.290001,-120.540001,21.45
3591199,-0.699792,-0.051728,1.039928,31.010000,37.869999,-113.889999,21.45
3591210,-0.721264,0.057584,1.164368,38.220001,29.190001,-103.040001,21.45
3591222,-0.736392,0.191296,1.241960,38.430000,0.210000,-87.430000,21.44
3591234,-0.713944,0.277672,1.260992,28.209999,3.080000,-67.690002,21.44
3591246,-0.643672,0.263032,1.216584,17.010000,-7.000000,-47.250000,21.42
3591257,-0.567544,0.150792,1.174128,16.100000,-14.140000,-27.930000,21.41
3591268,-0.523624,0.047824,1.120936,25.760000,-18.549999,-10.990000,21.41
3591280,-0.461160,-0.017080,1.048224,42.209999,-21.420000,3.220000,21.43
3591291,-0.412360,-0.053192,0.994056,56.700001,-21.770000,13.230000,21.43
3591303,-0.376736,-0.041968,0.976488,63.279999,-20.860001,24.780001,21.46
3591315,-0.351848,-0.004392,0.972096,60.410000,-18.270000,31.920000,21.45
3591326,-0.321592,-0.000976,0.957944,51.099998,-14.910000,36.330002,21.45
3591338,-0.281576,-0.036600,0.955016,40.320000,-11.620000,40.880001,21.44
3591349,-0.261080,-0.042944,0.955504,29.750000,-7.560000,44.029999,21.46
3591361,-0.267424,-0.058560,0.951112,24.010000,-4.270000,46.480000,21.46
3591372,-0.273768,-0.040016,0.929640,20.440001,-1.890000,49.419998,21.45
3591383,-0.270352,-0.034160,0.925248,17.639999,0.140000,52.150002,21.45
3591395,-0.265472,-0.007808,0.918904,16.940001,2.800000,54.669998,21.45
3591406,-0.262544,0.041480,0.940376,11.830000,4.480000,57.119999,21.42
3591418,-0.262056,0.049288,0.973072,3.920000,6.090000,60.130001,21.42
3591430,-0.240584,0.042944,0.997472,-2.800000,6.160000,63.490002,21.48
3591442,-0.227408,0.021472,1.005768,-6.790000,6.020000,65.800003,21.48
3591453,-0.221064,-0.006344,0.999912,-5.530000,5.110000,67.129997,21.45
3591464,-0.200568,-0.030744,0.987712,-3.850000,4.130000,66.849998,21.45
3591475,-0.193736,-0.061488,0.992104,-0.070000,3.850000,66.080002,21.45
3591486,-0.185440,-0.061976,0.999424,3.500000,1.680000,64.820000,21.43
3591497,-0.166896,-0.064416,0.996984,8.610000,-1.260000,63.840000,21.43
3591509,-0.126880,-0.066856,0.984784,13.300000,-2.660000,61.810001,21.42
3591521,-0.115168,-0.043920,0.989176,15.120000,-4.130000,59.990002,21.45
3591532,-0.114680,-0.018056,0.998936,17.639999,-5.460000,57.189999,21.45
3591544,-0.100528,0.007320,0.990640,17.850000,-7.420000,54.180000,21.47
3591556,-0.063928,-0.005856,0.978440,17.010000,-8.610000,51.310001,21.43
3591567,-0.041968,-0.025864,0.970632,17.150000,-8.260000,48.580002,21.43
3591578,-0.022936,-0.023424,0.985760,15.890000,-8.400000,46.900002,21.49
3591590,0.021472,-0.026352,1.013088,14.840000,-8.400000,45.220001,21.49
3591602,0.024888,0.019032,1.037000,9.380000,-9.170000,43.820000,21.48
3591613,0.056608,0.001952,1.041880,3.430000,-11.270000,42.560001,21.43
3591624,0.075640,-0.012688,1.024800,2.520000,-11.410000,38.570000,21.43
3591636,0.091256,-0.057584,0.877912,9.380000,-13.020000,32.619999,21.48
3591649,0.133224,-0.132248,0.952088,24.219999,-13.090000,25.340000,21.45
3591660,0.159576,-0.118584,0.925248,32.410000,-12.880000,21.980000,21.45
3591671,0.187392,-0.074664,0.977464,34.439999,-13.160000,21.559999,21.47
3591682,0.237656,-0.009272,1.030656,30.660000,-14.000000,22.260000,21.47
3591694,0.285480,0.032696,1.106296,23.730000,-12.950000,22.540001,21.46
3591705,0.305976,0.056120,1.137040,12.460000,-12.740000,21.770000,21.47
3591716,0.334280,0.021960,1.120936,-0.210000,-12.740000,20.790001,21.47
3591728,0.372344,-0.041968,1.080920,-4.200000,-12.250000,19.600000,21.46
3591739,0.413824,-0.076616,1.057008,-1.890000,-13.090000,17.990000,21.46
3591750,0.471408,-0.086376,1.063840,-4.900000,-11.830000,17.010000,21.44
3591761,0.516792,-0.117120,1.093608,-7.420000,-10.850000,16.240000,21.45
3591772,0.547048,-0.136152,1.109224,-8.190000,-10.990000,15.750000,21.45
3591784,0.584136,-0.142496,1.114104,-10.010000,-11.060000,15.260000,21.46
3591795,0.612440,-0.155672,1.126304,-13.300000,-10.780000,14.000000,21.46
3591807,0.631472,-0.173728,1.127280,-15.400000,-10.360000,13.510000,21.46
3591819,0.644648,-0.183000,1.124352,-17.500000,-9.940000,13.510000,21.48
3591829,0.651968,-0.190320,1.113128,-19.950001,-9.800000,13.160000,21.48
3591840,0.647576,-0.213744,1.107760,-21.420000,-9.590000,12.950000,21.43
3591851,0.642208,-0.215696,1.105320,-23.870001,-9.590000,13.160000,21.43
3591863,0.636352,-0.226432,1.091168,-24.219999,-9.730000,12.530000,21.49
3591875,0.624640,-0.235216,1.083848,-23.030001,-9.800000,11.550000,21.42
3591886,0.606096,-0.235216,1.082872,-21.980000,-10.220000,10.360000,21.42
3591897,0.592432,-0.260592,1.081896,-20.299999,-11.760000,8.890000,21.44
3591909,0.583648,-0.284992,1.063352,-18.200001,-12.670000,7.560000,21.43
3591920,0.579256,-0.297680,1.044808,-16.799999,-13.370000,5.460000,21.43
3591931,0.570472,-0.308904,1.025288,-14.070000,-13.370000,2.520000,21.49
3591942,0.561200,-0.304512,1.006256,-13.160000,-13.230000,-1.400000,21.49
3591954,0.543144,-0.303048,0.992592,-14.070000,-12.040000,-6.370000,21.45
3591965,0.519232,-0.314272,0.975024,-15.400000,-11.340000,-10.920000,21.44
3591976,0.506544,-0.305000,0.953552,-17.920000,-9.590000,-16.660000,21.44
3591987,0.488000,-0.298168,0.925248,-20.650000,-6.860000,-24.150000,21.48
3591998,0.460184,-0.299632,0.904752,-21.700001,-4.410000,-32.130001,21.48
3592009,0.432368,-0.296216,0.907680,-22.049999,-1.190000,-38.570000,21.45
3592020,0.409920,-0.314760,0.888648,-18.620001,2.590000,-46.830002,21.45
3592031,0.367952,-0.308416,0.885720,-13.230000,5.320000,-55.020000,21.43
3592042,0.340136,-0.301096,0.869616,-5.810000,7.980000,-62.369999,21.46
3592053,0.284016,-0.255712,0.867664,-1.680000,12.810000,-72.309998,21.46
3592065,0.213256,-0.223504,0.877912,-0.280000,18.549999,-82.879997,21.43
3592076,0.159088,-0.223992,0.868152,3.360000,21.770000,-92.680000,21.43
3592086,0.096136,-0.200080,0.849608,11.130000,27.440001,-100.239998,21.45
3592098,0.034648,-0.265472,0.813984,25.340000,31.850000,-111.930000,21.45
3592108,-0.035136,-0.182024,0.790072,31.150000,37.169998,-121.099998,21.45
3592119,-0.170800,-0.096136,0.863272,28.629999,43.470001,-127.330002,21.44
3592130,-0.316224,0.029280,0.920856,17.150000,47.180000,-132.160004,21.44
3592141,-0.443592,0.125904,0.995032,4.270000,48.720001,-132.860001,21.45
3592152,-0.526552,0.105896,1.037976,1.960000,48.090000,-132.229996,21.47
3592163,-0.587552,0.097112,1.066280,4.200000,45.430000,-130.410004,21.47
3592174,-0.661728,0.183976,1.056032,3.990000,42.840000,-125.580002,21.43
3592185,-0.697352,0.265472,1.056032,-0.140000,39.410000,-116.339996,21.43
3592197,-0.707112,0.327448,1.095072,-11.270000,34.090000,-102.269997,21.44
3592208,-0.683200,0.317200,1.127768,-22.049999,26.320000,-88.620003,21.43
3592219,-0.650016,0.359656,1.125328,-29.750000,19.530001,-68.040001,21.43
3592230,-0.630008,0.322568,1.183888,-42.139999,13.650000,-46.830002,21.44
3592241,-0.601704,0.239608,1.197552,-42.000000,5.390000,-29.750000,21.44
3592252,-0.559248,0.170800,1.159488,-35.419998,-2.170000,-9.170000,21.48
3592263,-0.508496,0.046360,1.088728,-22.610001,-8.260000,7.560000,21.48
3592274,-0.457256,-0.046360,1.010648,-3.570000,-10.990000,20.719999,21.45
3592285,-0.400160,-0.085400,0.960384,15.820000,-12.320000,28.770000,21.48
3592296,-0.362096,-0.091256,0.954528,29.610001,-13.650000,36.049999,21.48
3592307,-0.327448,-0.071736,0.962824,34.930000,-12.530000,40.950001,21.48
3592318,-0.314272,-0.088816,0.972584,38.500000,-11.620000,44.869999,21.48
3592329,-0.288408,-0.081008,0.973072,37.029999,-10.290000,47.250000,21.40
3592341,-0.264984,-0.046848,0.953552,28.840000,-7.700000,49.560001,21.42
3592353,-0.252296,-0.030256,0.951112,18.620001,-3.360000,52.150002,21.42
3592364,-0.265960,-0.017080,0.964776,13.440000,-1.400000,54.389999,21.45
3592376,-0.272304,-0.025376,0.973560,10.640000,-0.420000,56.490002,21.45
3592386,-0.273280,-0.080520,0.975512,11.620000,-0.770000,58.590000,21.45
3592397,-0.227408,-0.243512,0.991128,16.450001,-4.340000,57.959999,21.43
3592409,-0.164456,-0.305976,0.959408,28.490000,-4.690000,54.950001,21.43
3592420,-0.148840,-0.298168,0.951600,36.119999,-3.500000,49.980000,21.46
3592431,-0.152256,-0.256200,0.953552,40.529999,-2.520000,42.840000,21.46
3592442,-0.158600,-0.185440,0.975512,39.759998,-0.910000,37.099998,21.46
3592453,-0.187880,-0.121024,0.976000,35.000000,-0.350000,33.880001,21.39
3592464,-0.215696,-0.031232,0.979904,28.559999,-0.490000,33.180000,21.39
3592475,-0.229360,0.017080,0.971608,22.469999,-0.980000,33.110001,21.41
3592486,-0.224968,0.030744,0.993568,19.180000,-0.840000,34.439999,21.41
3592497,-0.228384,0.041480,1.026264,17.430000,-2.450000,34.650002,21.41
3592508,-0.203984,0.034648,1.023336,16.450001,-3.780000,34.299999,21.46
3592519,-0.219112,0.069784,1.033096,17.360001,-6.300000,33.529999,21.46
3592530,-0.223016,0.099064,1.026752,12.250000,-10.290000,30.799999,21.44
3592541,-0.209352,0.069296,1.020408,4.970000,-14.280000,29.680000,21.44
3592552,-0.204472,0.094184,0.994056,-3.010000,-18.760000,29.400000,21.44
3592563,-0.176656,0.108824,0.968680,-15.190000,-22.049999,29.400000,21.40
3592574,-0.137128,0.048312,0.974536,-15.890000,-23.309999,28.420000,21.40
3592585,-0.087352,0.018056,0.986736,-9.940000,-24.010000,27.719999,21.44
3592596,-0.044408,0.000488,0.977952,-3.010000,-22.610001,25.690001,21.44
3592607,-0.013176,-0.047336,0.971608,12.320000,-22.750000,24.150000,21.48
3592618,0.028792,-0.025376,0.984296,27.090000,-21.000000,21.700001,21.46
3592629,0.028792,0.043920,0.957456,35.700001,-20.930000,18.760000,21.46
3592640,0.082472,0.100040,0.955016,38.779999,-20.230000,17.150000,21.43
3592651,0.091744,0.165920,0.975024,31.430000,-17.850000,15.680000,21.43
3592662,0.122000,0.201544,0.976488,22.260000,-18.129999,15.540000,21.44
3592673,0.181536,0.252784,1.009184,4.130000,-12.530000,16.030001,21.44
3592683,0.127856,0.245464,0.982344,-7.210000,-25.200001,15.540000,21.46
3592694,0.283528,0.201056,0.961360,-16.590000,-11.480000,11.270000,21.46
3592705,0.287432,0.154696,0.982832,-21.000000,-8.260000,12.250000,21.46
3592716,0.337208,0.127368,1.015528,-19.950001,-7.770000,14.210000,21.47
3592727,0.389424,0.169824,1.068720,-20.719999,-4.410000,15.050000,21.47
3592738,0.383080,0.215696,1.117520,-27.510000,-3.290000,15.890000,21.50
3592749,0.403088,0.199592,1.121912,-40.459999,-4.270000,16.030001,21.43
3592760,0.450424,0.067344,1.101904,-44.169998,-5.180000,16.940001,21.43
3592771,0.506544,-0.051240,1.087752,-40.180000,-4.480000,18.129999,21.44
3592782,0.545584,-0.240096,1.086288,-28.350000,-4.060000,19.110001,21.44
3592793,0.591944,-0.130296,1.106296,-16.170000,-4.410000,20.230000,21.46
3592804,0.629032,-0.126880,1.113616,-7.980000,-4.410000,20.650000,21.46
3592815,0.656848,-0.110288,1.140944,-7.700000,-3.640000,21.700001,21.46
3592826,0.666120,-0.111752,1.179008,-11.340000,-3.570000,23.870001,21.46
3592837,0.675392,-0.112240,1.193160,-18.690001,-4.130000,25.760000,21.46
3592848,0.676368,-0.133712,1.183888,-26.110001,-4.340000,27.090000,21.44
3592859,0.674904,-0.192760,1.169736,-32.200001,-5.250000,27.090000,21.44
3592870,0.665632,-0.226432,1.167784,-35.560001,-5.880000,26.879999,21.47
3592881,0.648552,-0.264496,1.162416,-35.070000,-6.860000,26.250000,21.42
3592892,0.632936,-0.273280,1.143872,-32.759998,-8.190000,25.480000,21.42
3592903,0.615368,-0.289872,1.118008,-27.790001,-9.240000,23.730000,21.41
3592914,0.597800,-0.331352,1.106296,-19.320000,-10.500000,22.120001,21.41
3592925,0.594872,-0.356240,1.079944,-10.500000,-11.900000,20.090000,21.45
3592936,0.586576,-0.333792,1.047248,0.140000,-12.600000,17.290001,21.42
3592947,0.589504,-0.322080,1.036024,6.650000,-13.370000,14.980000,21.42
3592958,0.587552,-0.309392,1.009672,10.220000,-12.740000,11.340000,21.46
3592969,0.578768,-0.250344,0.974048,7.350000,-11.970000,7.840000,21.46
3592980,0.579744,-0.238632,0.955504,-0.350000,-9.590000,3.570000,21.43
3592991,0.573400,-0.267424,0.929152,-8.190000,-6.300000,-1.470000,21.43
3593002,0.545096,-0.283528,0.926712,-13.090000,-1.470000,-8.050000,21.44
3593013,0.520696,-0.302560,0.909144,-13.300000,0.630000,-16.170000,21.43
3593024,0.476776,-0.262544,0.895968,-19.110001,6.160000,-23.450001,21.43
3593035,0.418704,-0.319152,0.915976,-23.799999,10.220000,-33.669998,21.47
3593046,0.370392,-0.341600,0.907192,-23.660000,13.720000,-43.820000,21.47
3593057,0.326960,-0.411384,0.885232,-16.590000,16.240000,-56.349998,21.43
3593068,0.290848,-0.455792,0.842288,-1.050000,20.510000,-67.129997,21.45
3593079,0.224968,-0.386984,0.811056,9.310000,27.090000,-82.040001,21.45
3593090,0.146400,-0.301584,0.801784,18.059999,33.250000,-97.230003,21.43
3593101,0.046848,-0.324032,0.829600,24.570000,38.849998,-108.080002,21.43
3593112,-0.089792,-0.230336,0.855464,30.170000,45.709999,-117.250000,21.45
3593123,-0.263032,-0.065392,0.900848,22.820000,48.020000,-127.400002,21.42
3593134,-0.372344,-0.019520,0.961360,9.800000,50.259998,-135.240005,21.42
3593145,-0.529480,0.019032,0.950136,0.910000,52.220001,-138.809998,21.43
3593156,-0.645136,0.066856,0.937936,-8.190000,50.330002,-137.899994,21.43
3593167,-0.704184,0.067832,0.958432,-9.030000,47.250000,-135.029999,21.43
3593178,-0.756400,0.095648,0.984784,-4.900000,42.560001,-131.460007,21.42
3593189,-0.755424,0.160064,0.988200,0.630000,37.660000,-124.459999,21.42
3593200,-0.750056,0.204960,0.994056,2.520000,32.759998,-113.889999,21.45
3593212,-0.731024,0.308904,1.073112,-5.740000,28.420000,-96.879997,21.45
3593223,-0.745664,0.371856,1.159488,-19.950001,22.750000,-80.639999,21.41
3593234,-0.738832,0.374784,1.169736,-30.799999,13.230000,-56.279999,21.43
3593245,-0.679784,0.252784,1.152168,-33.389999,3.990000,-31.080000,21.43
3593256,-0.641232,0.141520,1.088240,-23.520000,-3.920000,-9.170000,21.43
3593267,-0.564128,0.058560,1.029192,-5.460000,-11.270000,5.110000,21.43
3593278,-0.504592,-0.012688,0.979416,14.910000,-13.650000,19.250000,21.45
3593289,-0.473848,-0.037576,0.942328,30.450001,-14.490000,30.940001,21.45
3593300,-0.450424,-0.052216,0.973560,45.360001,-14.280000,39.200001,21.40
3593311,-0.424560,-0.056120,0.996008,52.990002,-15.330000,49.070000,21.40
3593322,-0.372832,-0.064416,0.999424,53.130001,-15.260000,55.930000,21.40
3593333,-0.332328,-0.070760,0.976488,47.180000,-13.860000,59.430000,21.46
3593344,-0.302072,-0.070272,0.962824,37.450001,-10.220000,60.410000,21.46
3593355,-0.280600,-0.040504,0.963800,23.870001,-5.110000,60.759998,21.47
3593366,-0.280600,-0.023912,0.969656,15.120000,-0.910000,61.599998,21.39
3593377,-0.294752,-0.004392,0.996496,4.550000,1.400000,63.980000,21.39
3593388,-0.320616,0.023424,1.023824,-2.380000,1.820000,66.220001,21.46
3593399,-0.338184,0.001464,1.018944,-4.200000,0.140000,67.830002,21.46
3593410,-0.300120,-0.114680,1.024800,-1.470000,-3.080000,68.250000,21.44
3593421,-0.215696,-0.165920,1.013576,6.440000,-3.850000,66.709999,21.41
3593432,-0.208376,-0.158600,1.024800,13.020000,-3.150000,62.720001,21.41
3593443,-0.202520,-0.159088,1.031632,17.080000,-4.620000,57.959999,21.43
3593454,-0.192760,-0.153720,1.033096,20.160000,-4.060000,53.060001,21.43
3593465,-0.212768,-0.134688,1.040904,22.049999,-5.180000,50.540001,21.45
3593476,-0.220088,-0.102968,1.021872,22.400000,-6.720000,48.790001,21.41
3593487,-0.216184,-0.065880,0.993080,22.750000,-8.330000,48.020000,21.41
3593498,-0.199104,-0.009272,0.986736,22.750000,-9.170000,46.900002,21.40
3593509,-0.178608,0.004880,0.993080,23.450001,-9.100000,45.150002,21.40
3593520,-0.177144,0.036600,1.016504,22.120001,-8.960000,44.450001,21.46
3593532,-0.187392,0.084424,1.035048,16.799999,-9.940000,44.169998,21.46
3593543,-0.183976,0.079056,1.035536,10.990000,-11.480000,43.889999,21.44
3593554,-0.163968,0.087352,1.018456,5.390000,-13.160000,43.959999,21.41
3593565,-0.133712,0.089792,1.010160,-3.010000,-13.720000,44.380001,21.41
3593576,-0.120048,0.131760,1.009184,-12.180000,-14.070000,44.310001,21.43
3593587,-0.112728,0.139080,1.005768,-21.559999,-16.100000,44.169998,21.43
3593598,-0.072712,0.135176,1.018456,-29.959999,-17.920000,44.240002,21.46
3593609,-0.034160,0.132248,0.997472,-37.029999,-20.230000,44.380001,21.50
3593620,0.022936,0.078568,0.985272,-43.049999,-20.020000,43.610001,21.50
3593631,0.041480,0.043432,0.977464,-41.439999,-18.830000,41.439999,21.42
3593642,0.061000,-0.002928,0.976488,-37.730000,-18.620001,38.779999,21.42
3593653,0.076128,-0.000488,0.987224,-36.610001,-17.500000,36.540001,21.44
3593664,0.068320,0.012688,1.018944,-38.990002,-18.969999,34.860001,21.45
3593675,0.090768,0.034648,1.005280,-40.110001,-22.120001,33.669998,21.45
3593685,0.165432,-0.046848,0.957944,-36.470001,-22.750000,31.360001,21.42
3593696,0.228872,-0.087840,0.921832,-30.450001,-19.389999,26.740000,21.42
3593708,0.263520,-0.129320,0.924272,-22.820000,-17.709999,23.799999,21.45
3593718,0.332816,-0.206912,0.967216,-12.320000,-15.120000,20.510000,21.45
3593730,0.362096,-0.207400,1.011624,-1.680000,-14.000000,18.760000,21.46
3593740,0.427976,-0.204472,1.053104,4.200000,-13.790000,17.780001,21.40
3593751,0.471896,-0.204472,1.075064,5.320000,-12.180000,16.309999,21.40
3593762,0.504592,-0.203496,1.103856,3.080000,-12.390000,15.470000,21.43
3593773,0.563152,-0.211792,1.126792,-2.660000,-12.320000,14.490000,21.43
3593784,0.605120,-0.227408,1.116544,-8.820000,-11.410000,12.810000,21.43
3593795,0.637816,-0.251808,1.123864,-14.420000,-11.340000,10.990000,21.45
3593806,0.650504,-0.318664,1.129232,-18.059999,-10.710000,8.820000,21.45
3593817,0.667584,-0.365512,1.126304,-15.960000,-11.060000,7.420000,21.47
3593828,0.677832,-0.388448,1.108248,-10.570000,-10.920000,5.390000,21.47
3593840,0.671488,-0.398696,1.097512,-5.390000,-10.710000,3.430000,21.43
3593851,0.660264,-0.380152,1.092144,-0.980000,-10.430000,1.890000,21.41
3593861,0.638792,-0.363560,1.081896,1.050000,-10.010000,0.840000,21.41
3593872,0.608048,-0.321592,1.074088,0.770000,-10.080000,-0.070000,21.45
3593883,0.590480,-0.309880,1.063840,-0.070000,-10.290000,-1.540000,21.45
3593895,0.563152,-0.307440,1.035048,1.260000,-10.010000,-3.430000,21.45
3593906,0.534848,-0.281088,1.018456,2.380000,-9.800000,-4.900000,21.44
3593917,0.518256,-0.288896,1.011136,3.500000,-9.590000,-6.930000,21.44
3593928,0.508984,-0.308416,0.994056,7.210000,-9.450000,-9.170000,21.37
3593939,0.489464,-0.290360,0.986248,9.520000,-9.100000,-10.290000,21.37
3593950,0.490440,-0.264984,0.972096,11.270000,-7.840000,-12.320000,21.44
3593961,0.463600,-0.230824,0.954528,10.780000,-5.320000,-15.190000,21.44
3593972,0.451400,-0.215696,0.944768,8.680000,-3.780000,-18.549999,21.46
3593983,0.434808,-0.234240,0.956480,7.140000,-1.610000,-22.330000,21.45
3593994,0.424560,-0.259616,0.941840,7.840000,0.770000,-27.370001,21.45
3594005,0.405528,-0.216184,0.919880,4.060000,3.710000,-32.480000,21.44
3594016,0.374784,-0.191784,0.915976,-2.240000,7.420000,-37.240002,21.44
3594027,0.338672,-0.157624,0.911096,-10.290000,11.690000,-43.330002,21.43
3594038,0.306952,-0.170800,0.897920,-16.940001,15.470000,-49.349998,21.41
3594049,0.281088,-0.186904,0.870104,-20.090000,18.830000,-55.860001,21.41
3594060,0.226920,-0.244976,0.863272,-14.700000,21.700001,-63.279999,21.43
3594071,0.199592,-0.325008,0.845216,17.010000,23.870001,-73.080002,21.43
3594082,0.163968,-0.358680,0.837408,18.760000,25.900000,-85.050003,21.42
3594093,0.122000,-0.350872,0.778848,36.750000,29.190001,-94.010002,21.43
3594104,0.045384,-0.272792,0.758840,46.200001,35.910000,-106.680000,21.43
3594115,-0.027328,-0.225456,0.743224,53.759998,42.770000,-119.000000,21.41
3594126,-0.133712,-0.119072,0.763720,47.599998,50.820000,-129.710007,21.41
3594137,-0.273280,-0.000976,0.825696,29.680000,58.310001,-135.029999,21.46
3594148,-0.464576,0.002928,0.995520,20.510000,62.860001,-139.229996,21.46
3594159,-0.727120,0.062464,1.136064,16.660000,58.660000,-139.649994,21.43
3594170,-0.715896,0.133224,1.199504,7.770000,52.919998,-136.500000,21.44
3594181,-0.763232,0.148352,1.179984,1.820000,43.189999,-130.830002,21.44
3594192,-0.777872,0.194712,1.155584,-1.260000,31.500000,-122.430000,21.45
3594203,-0.760792,0.237656,1.105808,-1.680000,22.330000,-113.120003,21.45
3594214,-0.741272,0.276696,1.091168,-4.760000,15.820000,-99.959999,21.44
3594225,-0.698328,0.303536,1.123864,-9.380000,8.120000,-85.680000,21.41
3594236,-0.653920,0.297192,1.149728,-8.960000,0.350000,-64.889999,21.41
3594247,-0.623664,0.259616,1.188768,-6.090000,-5.950000,-41.020000,21.43
3594258,-0.574864,0.207888,1.138992,2.940000,-13.230000,-22.540001,21.43
3594269,-0.532896,0.134200,1.096536,13.510000,-17.570000,-2.240000,21.43
3594280,-0.472872,0.071736,1.037000,22.959999,-18.900000,13.650000,21.40
3594291,-0.435296,0.063440,0.993568,31.430000,-17.290001,25.830000,21.40
3594303,-0.413824,0.099552,0.956480,29.610001,-13.510000,34.230000,21.41
3594314,-0.399184,0.083936,0.949648,24.360001,-9.170000,43.750000,21.41
3594325,-0.389424,0.040016,0.956480,18.969999,-6.930000,51.799999,21.44
3594336,-0.345504,-0.000976,0.968680,13.300000,-4.830000,57.540001,21.47
3594347,-0.325984,-0.054168,0.964288,9.660000,-0.910000,60.340000,21.47
3594358,-0.323544,-0.050264,0.967216,6.300000,2.310000,61.950001,21.43
3594369,-0.330376,-0.043920,0.973072,3.640000,4.970000,62.860001,21.43
3594379,-0.349408,-0.016104,0.992592,-0.560000,6.650000,64.400002,21.42
3594390,-0.370392,0.010248,1.001376,-5.250000,6.860000,67.129997,21.42
3594401,-0.369416,0.027328,1.001376,-9.170000,5.880000,70.699997,21.43
3594412,-0.362096,0.016592,1.008208,-10.360000,5.530000,73.150002,21.42
3594423,-0.354776,0.000976,1.004792,-8.540000,4.620000,75.529999,21.42
3594434,-0.348920,-0.024888,1.023824,0.490000,3.430000,76.580002,21.44
3594445,-0.345504,-0.020008,1.033096,8.330000,0.210000,77.349998,21.44
3594456,-0.326472,-0.026352,1.023336,15.540000,-2.800000,78.050003,21.45
3594467,-0.306464,-0.007808,1.013576,18.549999,-4.270000,77.839996,21.41
3594478,-0.300608,0.003904,1.014064,19.670000,-6.300000,76.720001,21.41
3594489,-0.299144,0.034160,1.012600,17.219999,-8.330000,76.230003,21.43
3594500,-0.291824,0.049288,1.002352,13.650000,-11.970000,75.809998,21.43
3594511,-0.255712,0.053192,1.009184,6.230000,-15.190000,76.019997,21.42
3594522,-0.225456,0.085888,1.034560,-5.950000,-18.340000,75.739998,21.40
3594533,-0.231312,0.146888,1.051640,-19.040001,-22.750000,73.989998,21.40
3594544,-0.205448,0.128832,1.029680,-38.360001,-26.740000,72.239998,21.39
3594555,-0.158112,0.074664,0.994056,-56.490002,-29.469999,69.790001,21.39
3594566,-0.126880,0.004392,0.971608,-60.549999,-32.200001,66.709999,21.45
3594577,-0.089792,-0.133712,0.983808,-40.389999,-34.509998,60.900002,21.45
3594589,-0.036112,-0.181048,0.984296,-18.830000,-37.730000,54.599998,21.40
3594600,-0.015128,-0.151768,1.011624,4.340000,-39.340000,48.860001,21.40
3594611,0.014152,-0.142984,1.001376,24.990000,-42.209999,44.799999,21.40
3594622,0.081496,-0.127856,0.990152,37.240002,-43.680000,42.419998,21.43
3594633,0.163480,-0.084912,0.972096,39.759998,-43.610001,39.759998,21.43
3594644,0.227896,-0.051728,0.968680,34.299999,-41.790001,37.169998,21.43
3594655,0.286944,-0.027328,0.995520,20.580000,-37.310001,35.139999,21.40
3594666,0.339160,-0.017568,1.032608,8.190000,-34.860001,33.320000,21.40
3594677,0.371368,-0.012200,1.062864,-8.820000,-31.639999,30.660000,21.45
3594688,0.394792,-0.022936,1.065304,-22.889999,-30.730000,28.209999,21.45
3594699,0.446520,-0.100528,1.060424,-31.219999,-30.240000,25.059999,21.40
3594710,0.516304,-0.216672,1.052616,-31.780001,-28.000000,21.980000,21.41
3594721,0.556808,-0.277184,1.042856,-28.209999,-25.129999,19.320000,21.41
3594732,0.603656,-0.297192,1.042856,-22.750000,-21.910000,16.590000,21.45
3594743,0.630984,-0.305488,1.049688,-16.730000,-18.480000,14.210000,21.45
3594754,0.655384,-0.284016,1.058472,-14.210000,-15.890000,12.040000,21.39
3594765,0.685152,-0.268400,1.058472,-15.960000,-13.020000,10.430000,21.41
3594776,0.657824,-0.269376,1.038952,-18.760000,-15.470000,12.530000,21.41
3594787,0.740784,-0.256200,1.043832,-24.570000,-6.370000,6.930000,21.44
3594798,0.673928,-0.284016,1.048224,-24.920000,-6.230000,3.710000,21.44
3594809,0.683200,-0.339648,1.046272,-20.860001,-5.950000,2.940000,21.46
3594820,0.686128,-0.358680,1.034560,-12.110000,-1.470000,1.680000,21.43
3594831,0.630984,-0.322568,1.023824,-5.180000,-1.960000,1.960000,21.43
3594842,0.623176,-0.294264,1.023336,-1.820000,-1.470000,1.050000,21.41
3594853,0.604144,-0.264008,1.018944,0.280000,-1.050000,-0.700000,21.41
3594864,0.594384,-0.238632,1.010648,-0.840000,-0.980000,-2.100000,21.40
3594875,0.581696,-0.235704,0.998936,-1.470000,-0.420000,-3.430000,21.40
3594886,0.561200,-0.252784,0.985760,1.190000,0.140000,-5.600000,21.43
3594897,0.552416,-0.243024,0.965264,5.740000,0.280000,-7.280000,21.42
3594908,0.544608,-0.238632,0.952576,7.490000,0.980000,-10.290000,21.42
3594919,0.528504,-0.265960,0.951600,10.010000,1.470000,-13.720000,21.42
3594930,0.521184,-0.254248,0.935984,10.640000,2.310000,-17.709999,21.42
3594941,0.490928,-0.200080,0.914512,3.850000,4.690000,-21.840000,21.42
3594952,0.479216,-0.200568,0.908656,-3.430000,7.350000,-27.860001,21.40
3594963,0.457256,-0.203496,0.903776,-13.860000,10.290000,-34.720001,21.40
3594974,0.422120,-0.233752,0.886208,-17.990000,15.260000,-40.599998,21.45
3594985,0.369904,-0.286456,0.886696,-15.120000,18.760000,-49.770000,21.45
3594996,0.317200,-0.293288,0.881816,-7.980000,21.840000,-59.150002,21.42
3595007,0.249856,-0.295240,0.869128,6.230000,23.520000,-69.230003,21.43
3595019,0.190320,-0.327448,0.749568,22.820000,24.010000,-78.820000,21.43
3595029,0.130784,-0.322568,0.825696,37.869999,26.879999,-89.599998,21.41
3595040,0.061976,-0.240096,0.794952,47.669998,29.330000,-101.709999,21.41
3595051,-0.007808,-0.215696,0.745176,56.139999,34.230000,-111.300003,21.39
3595062,-0.104432,-0.122488,0.747616,61.529999,41.930000,-120.540001,21.39
3595073,-0.206424,0.013664,0.813984,56.419998,50.049999,-127.190002,21.40
3595084,-0.351360,0.103944,0.894016,53.060001,52.990002,-128.800003,21.43
3595095,-0.485072,0.162992,0.970144,49.700001,52.500000,-129.080002,21.43
3595106,-0.561200,0.158112,0.998936,50.820000,48.439999,-127.260002,21.42
3595117,-0.622200,0.287920,0.981368,42.700001,45.639999,-120.680000,21.42
3595128,-0.677832,0.323544,0.989176,24.150000,40.250000,-113.820000,21.49
3595139,-0.702720,0.410408,1.041392,8.190000,35.980000,-100.800003,21.43
3595150,-0.742736,0.495320,1.147776,-19.670000,31.290001,-86.239998,21.43
3595161,-0.743712,0.494344,1.217560,-43.750000,22.330000,-72.449997,21.40
3595172,-0.720776,0.399184,1.229272,-56.279999,12.110000,-53.830002,21.40
3595183,-0.666608,0.279624,1.167784,-53.480000,2.800000,-34.930000,21.44
3595195,-0.611952,0.120536,1.103368,-35.770000,-2.870000,-17.990000,21.34
3595206,-0.569496,0.032208,1.042368,-11.690000,-6.510000,-2.940000,21.34
3595217,-0.544120,-0.028792,1.010160,10.220000,-8.540000,8.260000,21.45
3595228,-0.518744,-0.034648,0.999912,26.250000,-10.500000,21.139999,21.45
3595239,-0.500688,-0.002928,1.020408,41.580002,-11.270000,31.920000,21.41
3595250,-0.455792,0.023424,1.035536,46.619999,-11.480000,38.779999,21.39
3595261,-0.408944,0.023912,1.030168,43.400002,-10.150000,44.730000,21.39
3595272,-0.364048,0.010736,1.024800,37.590000,-7.560000,49.209999,21.42
3595283,-0.345016,0.019520,1.006744,30.730000,-4.760000,52.009998,21.42
3595294,-0.340136,0.028792,0.997960,23.379999,-2.800000,54.110001,21.43
3595305,-0.324032,0.058560,0.980392,15.750000,-0.630000,56.490002,21.43
3595316,-0.328912,0.080032,0.976976,7.210000,1.120000,59.009998,21.43
3595327,-0.338184,0.089304,0.991128,-1.960000,2.380000,61.180000,21.41
3595338,-0.340624,0.068808,1.014552,-4.830000,3.430000,63.630001,21.41
3595349,-0.347456,0.035136,1.020408,-0.070000,1.120000,66.220001,21.44
3595361,-0.314272,0.040992,1.020408,6.790000,1.050000,67.830002,21.44
3595372,-0.317688,0.051240,1.019920,10.290000,0.350000,69.230003,21.38
3595383,-0.312320,0.055632,1.021384,14.560000,-0.490000,69.790001,21.42
3595394,-0.301584,0.081984,1.034560,15.820000,-1.750000,70.699997,21.42
3595405,-0.294752,0.094672,1.032120,17.360001,-4.410000,71.050003,21.38
3595416,-0.274256,0.114680,1.016504,16.450001,-6.790000,71.120003,21.38
3595427,-0.261568,0.117120,1.006744,12.320000,-10.010000,70.839996,21.41
3595438,-0.233752,0.085888,1.013088,11.200000,-13.930000,69.860001,21.40
3595449,-0.217648,0.055632,1.036024,12.880000,-16.870001,68.180000,21.40
3595460,-0.202032,0.043920,1.047248,18.969999,-21.280001,66.709999,21.43
3595470,-0.181536,0.021472,1.044320,28.000000,-25.900000,64.190002,21.43
3595481,-0.159576,0.023424,1.031632,36.259998,-28.980000,62.020000,21.39
3595492,-0.130784,0.031232,1.010160,41.650002,-33.180000,60.270000,21.39
3595503,-0.086864,0.059536,0.991128,43.959999,-37.169998,58.029999,21.39
3595514,-0.028304,0.073200,0.952576,44.520000,-39.340000,55.160000,21.41
3595525,0.032696,0.106872,0.951600,37.799999,-38.570000,52.779999,21.41
3595536,0.049776,0.174704,0.979904,22.610001,-38.080002,50.889999,21.43
3595547,0.095160,0.152744,0.991128,9.730000,-38.430000,49.419998,21.43
3595558,0.164944,0.066368,1.022360,6.370000,-39.130001,48.299999,21.39
3595568,0.254248,0.064904,1.033096,3.640000,-39.200001,46.480000,21.41
3595580,0.327448,0.032696,1.036024,0.910000,-37.939999,42.840000,21.41
3595590,0.366976,0.023912,1.043832,-1.820000,-36.750000,39.480000,21.39
3595601,0.395280,0.018544,1.050664,-5.460000,-35.630001,34.930000,21.39
3595612,0.396744,0.036112,1.051640,-10.570000,-35.279999,29.540001,21.44
3595623,0.462624,-0.105408,1.031144,-17.639999,-33.459999,20.370001,21.36
3595634,0.418704,-0.059048,1.017480,-21.350000,-44.869999,28.139999,21.36
3595645,0.574864,-0.045384,0.995520,-29.750000,-30.660000,15.190000,21.43
3595656,0.529968,-0.074176,1.004304,-32.200001,-32.759998,12.250000,21.43
3595667,0.626592,-0.120048,1.020896,-31.290001,-30.030001,11.130000,21.40
3595678,0.665144,-0.163480,1.028216,-20.930000,-23.799999,7.000000,21.44
3595690,0.683200,-0.183488,1.020896,-11.620000,-22.120001,5.740000,21.44
3595700,0.716384,-0.177144,1.015040,-2.030000,-18.900000,4.900000,21.44
3595711,0.736392,-0.134200,1.023824,3.500000,-15.890000,4.130000,21.44
3595722,0.746152,-0.087352,1.022360,2.240000,-11.550000,2.870000,21.46
3595733,0.741272,-0.064416,1.032608,-4.410000,-8.540000,2.660000,21.46
3595744,0.720288,-0.054656,1.031144,-12.740000,-6.790000,3.150000,21.42
3595755,0.710040,-0.056608,1.028704,-21.629999,-2.170000,2.730000,21.44
3595766,0.670512,-0.081984,1.010160,-25.620001,0.070000,3.080000,21.44
3595777,0.662704,-0.122000,0.991616,-24.850000,1.330000,2.450000,21.43
3595788,0.650016,-0.135176,0.975024,-20.020000,4.130000,1.820000,21.43
3595799,0.631960,-0.149328,0.970144,-14.000000,6.160000,0.140000,21.43
3595810,0.614880,-0.157624,0.969168,-7.280000,8.190000,-2.170000,21.41
3595821,0.591456,-0.161528,0.963312,0.140000,10.290000,-4.550000,21.41
3595832,0.566080,-0.113704,0.945256,2.170000,12.600000,-7.000000,21.44
3595843,0.547048,-0.073688,0.930616,-1.470000,14.560000,-9.730000,21.44
3595854,0.526552,-0.051728,0.932568,-10.710000,17.010000,-11.970000,21.45
3595865,0.494832,-0.108336,0.952576,-15.330000,19.040001,-16.170000,21.45
3595876,0.454816,-0.121024,0.982344,-20.580000,19.459999,-20.790001,21.45
3595887,0.440664,-0.162504,0.988688,-23.309999,19.250000,-26.530001,21.41
3595898,0.422608,-0.168848,0.974536,-24.500000,20.440001,-31.709999,21.41
3595909,0.372344,-0.169336,0.962824,-24.080000,22.400000,-39.830002,21.43
3595920,0.318664,-0.165432,0.944768,-23.799999,24.219999,-47.389999,21.43
3595932,0.270840,-0.227896,0.962336,-16.240000,25.129999,-55.860001,21.40
3595942,0.212280,-0.222040,0.936960,-0.630000,26.809999,-61.459999,21.42
3595953,0.149328,-0.212280,0.917928,15.960000,26.670000,-71.330002,21.42
3595964,0.101016,-0.162016,0.944768,26.040001,26.950001,-81.059998,21.42
3595975,-0.004880,-0.070272,1.016016,28.910000,25.969999,-90.930000,21.42
3595986,-0.102968,0.004880,1.041392,24.639999,21.840000,-97.720001,21.43
3595997,-0.168360,-0.010736,1.055544,23.030001,16.379999,-106.330002,21.36
3596008,-0.203984,0.015616,0.997960,20.440001,14.910000,-114.800003,21.36
3596019,-0.272792,-0.011712,0.948184,23.170000,14.000000,-122.220001,21.40
3596030,-0.335256,0.035624,0.882792,21.559999,16.870001,-128.380005,21.40
3596041,-0.423584,0.119560,0.913048,16.170000,18.760000,-131.529999,21.44
3596052,-0.537288,0.174216,0.968192,12.740000,16.940001,-130.830002,21.41
3596063,-0.587552,0.286944,0.985272,3.570000,13.160000,-127.610001,21.41
3596074,-0.592920,0.329888,1.032120,-5.670000,10.220000,-120.680000,21.39
3596085,-0.583648,0.329888,1.051152,-12.740000,7.560000,-110.809998,21.39
3596097,-0.570960,0.332328,1.050664,-17.290001,5.390000,-100.730003,21.42
3596107,-0.588528,0.322568,1.069696,-17.219999,2.940000,-85.959999,21.42
3596119,-0.565592,0.316712,1.054568,-16.379999,-2.450000,-68.320000,21.43
3596130,-0.504592,0.286456,1.021384,-13.090000,-6.300000,-49.560001,21.43
3596142,-0.446520,0.238144,1.012600,-5.390000,-8.820000,-32.340000,21.43
3596154,-0.387472,0.199104,1.005768,3.850000,-8.400000,-17.709999,21.42
3596166,-0.347944,0.142496,1.024800,16.520000,-6.720000,-5.320000,21.41
3596177,-0.330864,0.137616,1.070184,23.379999,-4.690000,6.160000,21.41
3596188,-0.331840,0.159576,1.073112,24.639999,-4.550000,16.520000,21.45
3596199,-0.325496,0.140544,1.060424,23.799999,-3.710000,24.709999,21.45
3596210,-0.308416,0.116144,1.032608,20.860001,-2.590000,30.240000,21.41
3596221,-0.294752,0.084424,0.999912,18.270000,-1.260000,35.630001,21.37
3596232,-0.282064,0.063440,0.982344,16.170000,-0.070000,40.389999,21.37
3596243,-0.278648,0.086376,0.984784,14.840000,1.610000,44.029999,21.43
3596254,-0.276208,0.139568,1.001864,11.690000,4.830000,47.810001,21.43
3596265,-0.305488,0.154696,1.015040,11.130000,4.200000,52.709999,21.42
3596276,-0.312320,0.161528,1.030168,8.190000,6.510000,56.840000,21.45
3596287,-0.336720,0.152744,1.035048,5.390000,5.740000,62.160000,21.45
3596298,-0.325496,0.106384,1.014552,3.990000,3.150000,67.690002,21.42
3596309,-0.271328,0.101016,0.996496,3.290000,0.980000,71.120003,21.42
3596320,-0.262056,0.086864,0.985272,5.740000,0.910000,71.750000,21.41
3596332,-0.254248,0.091256,0.992592,7.420000,0.350000,72.589996,21.39
3596343,-0.251808,0.095160,1.008696,7.840000,-0.070000,72.239998,21.39
3596354,-0.262056,0.110288,1.014064,6.230000,-0.630000,72.309998,21.41
3596365,-0.280112,0.134688,1.000888,-0.210000,-2.870000,72.589996,21.41
3596376,-0.292312,0.126880,0.994056,-6.580000,-7.070000,73.500000,21.41
3596387,-0.252296,0.114192,0.976000,-12.040000,-11.970000,74.129997,21.41
3596399,-0.201544,0.089304,0.957944,-14.770000,-14.070000,73.430000,21.41
3596410,-0.177144,0.095160,0.964776,-19.809999,-14.490000,71.680000,21.43
3596421,-0.155672,0.096136,0.978928,-27.299999,-15.400000,69.510002,21.43
3596432,-0.142496,0.050264,1.005280,-29.400000,-17.430000,67.620003,21.44
3596443,-0.137616,0.023424,1.017968,-27.370001,-20.650000,64.190002,21.44
3596454,-0.136152,-0.020008,0.992592,-20.510000,-25.410000,59.779999,21.42
3596465,-0.099552,-0.071248,0.964288,-7.210000,-32.410000,56.349998,21.45
3596476,-0.011712,-0.085888,0.912072,7.630000,-38.220001,51.520000,21.45
3596487,0.053680,-0.052704,0.852048,15.050000,-40.250000,45.919998,21.39
3596498,0.105896,-0.036112,0.844728,19.320000,-40.669998,41.509998,21.39
3596510,0.170312,0.025864,0.886208,17.360001,-40.180000,37.450001,21.40
3596521,0.194224,0.081496,0.977952,3.500000,-43.470001,36.259998,21.38
3596533,0.247416,0.125416,1.035536,-17.990000,-46.549999,35.070000,21.38
3596544,0.316224,0.125416,1.047248,-37.240002,-49.490002,33.810001,21.41
3596555,0.401624,0.113704,1.016992,-48.930000,-50.750000,31.920000,21.41
3596566,0.513376,0.097600,0.994056,-65.029999,-45.639999,30.730000,21.37
3596577,0.499224,-0.117608,0.937936,-73.430000,-50.680000,33.880001,21.42
3596589,0.670512,-0.032696,1.017968,-79.239998,-42.700001,16.799999,21.42
3596601,0.547048,-0.082472,1.071160,-84.980003,-44.029999,12.250000,21.43
3596611,0.616832,-0.185928,1.038464,-83.440002,-53.759998,10.710000,21.43
3596622,0.755912,-0.307928,0.991616,-75.599998,-45.360001,7.910000,21.40
3596634,0.779824,-0.342088,0.971120,-60.270000,-38.919998,3.080000,21.40
3596646,0.823256,-0.364536,0.976488,-41.439999,-32.480000,-1.120000,21.40
3596657,0.834480,-0.366976,0.979416,-21.980000,-28.070000,-2.660000,21.42
3596669,0.858880,-0.338672,0.997472,-5.040000,-23.799999,-2.240000,21.39
3596680,0.873520,-0.302072,1.019432,4.970000,-20.020000,-1.330000,21.39
3596691,0.874008,-0.258152,1.029680,9.870000,-15.120000,-0.490000,21.40
3596702,0.874008,-0.204472,1.030168,7.070000,-10.080000,0.770000,21.40
3596713,0.865712,-0.176168,1.017480,0.840000,-3.850000,1.540000,21.41
3596724,0.826184,-0.168360,1.014552,-9.310000,0.770000,2.030000,21.43
3596736,0.782264,-0.168360,1.009672,-17.570000,5.040000,2.520000,21.43
3596747,0.744688,-0.172752,0.990640,-23.030001,7.700000,2.940000,21.40
3596759,0.731512,-0.202032,0.968680,-25.480000,10.710000,2.800000,21.40
3596770,0.712968,-0.221552,0.962336,-26.389999,14.350000,2.240000,21.41
3596782,0.691008,-0.226432,0.957944,-28.000000,17.709999,1.750000,21.42
3596793,0.669048,-0.217648,0.961360,-31.920000,21.420000,0.770000,21.42
3596808,0.630984,-0.218136,0.951600,-37.520000,24.709999,-1.890000,21.37
3596819,0.591456,-0.289872,0.943792,-34.369999,27.299999,-5.670000,21.39
3596831,0.549488,-0.265960,0.931592,-34.650002,29.680000,-10.780000,21.39
3596842,0.494344,-0.264008,0.900848,-35.980000,31.920000,-17.780001,21.39
3596854,0.442616,-0.281576,0.882792,-34.580002,33.740002,-24.430000,21.39
3596866,0.386008,-0.283040,0.860832,-32.480000,36.470001,-32.200001,21.39
3596878,0.328912,-0.272792,0.854976,-30.940001,38.009998,-38.919998,21.42
3596889,0.283528,-0.266448,0.842776,-25.690001,39.830002,-46.130001,21.42
3596901,0.235216,-0.291824,0.828136,-16.450001,41.020000,-55.160000,21.40
3596913,0.187880,-0.289872,0.793976,-3.010000,44.799999,-64.330002,21.39
3596924,0.108336,-0.311344,0.789096,13.650000,47.810001,-74.690002,21.39
3596935,0.035136,-0.322568,0.813496,29.260000,48.650002,-84.279999,21.42
3596946,-0.016592,-0.268400,0.852536,35.490002,51.169998,-92.610001,21.42
3596957,-0.099064,-0.255224,0.892064,42.279999,50.400002,-99.470001,21.40
3596969,-0.166408,-0.156648,0.887184,41.090000,51.660000,-107.239998,21.37
3596980,-0.252296,-0.056608,0.881816,25.620001,55.369999,-113.330002,21.37
3596992,-0.353800,0.021472,0.895968,2.940000,58.869999,-115.430000,21.41
3597004,-0.456768,0.049776,0.942816,-16.309999,59.570000,-114.449997,21.42
3597016,-0.521184,0.076128,1.025288,-31.430000,59.779999,-110.599998,21.42
3597027,-0.573888,0.019520,1.110200,-33.459999,55.369999,-104.230003,21.45
3597039,-0.589992,0.012688,1.132648,-28.770000,47.599998,-96.040001,21.45
3597050,-0.573888,-0.001464,1.098000,-19.320000,41.090000,-86.519997,21.41
3597061,-0.578280,0.017568,1.076040,-9.940000,35.070000,-76.160004,21.38
3597073,-0.571448,0.054168,1.078968,-5.530000,26.600000,-62.230000,21.38
3597084,-0.550952,0.075640,1.141432,-5.180000,19.389999,-46.340000,21.43
3597095,-0.537776,0.079544,1.175592,-4.970000,10.010000,-29.120001,21.43
3597106,-0.516792,0.036112,1.195600,-0.630000,-0.070000,-15.960000,21.40
3597118,-0.472384,-0.012688,1.148752,6.370000,-8.750000,-2.590000,21.41
3597130,-0.398208,-0.095648,1.069208,14.910000,-14.420000,8.610000,21.41
3597142,-0.346480,-0.117608,1.027728,21.000000,-15.610000,17.150000,21.40
3597153,-0.325496,-0.103456,1.012600,22.049999,-14.770000,24.290001,21.45
3597165,-0.323544,-0.090768,1.024800,17.430000,-14.280000,32.060001,21.45
3597176,-0.327448,-0.095648,1.052616,12.110000,-15.400000,39.759998,21.41
3597187,-0.324520,-0.117120,1.050176,9.380000,-16.590000,45.709999,21.41
3597199,-0.305000,-0.144448,1.040416,10.570000,-16.940001,50.119999,21.43
3597210,-0.296704,-0.136152,1.017968,13.580000,-16.450001,53.130001,21.40
3597221,-0.301096,-0.127856,1.002352,20.020000,-15.890000,55.020000,21.40
3597233,-0.296216,-0.099552,1.014064,23.799999,-14.700000,57.889999,21.40
3597244,-0.307440,-0.092232,1.020896,24.010000,-14.980000,61.250000,21.40
3597256,-0.300120,-0.074664,1.037976,23.170000,-15.890000,65.309998,21.40
3597267,-0.292800,-0.072224,1.053104,22.400000,-17.150000,67.900002,21.41
3597278,-0.267912,-0.079056,1.052616,21.559999,-19.110001,69.650002,21.41
3597289,-0.244976,-0.084424,1.041392,21.910000,-20.160000,70.070000,21.40
3597301,-0.232776,-0.081008,1.034072,23.730000,-21.420000,69.440002,21.40
3597312,-0.216672,-0.082960,1.037000,24.219999,-22.820000,68.389999,21.37
3597324,-0.204472,-0.066856,1.026264,23.799999,-24.219999,67.269997,21.38
3597335,-0.194712,-0.054168,1.027728,25.059999,-25.900000,66.430000,21.38
3597347,-0.191296,-0.039528,1.014064,24.010000,-28.209999,65.730003,21.41
3597361,-0.145424,-0.039528,1.037488,18.900000,-31.709999,66.779999,21.43
3597372,-0.146400,-0.009760,1.039928,15.330000,-34.580002,66.080002,21.43
3597383,-0.117120,0.010248,1.023336,13.230000,-38.150002,65.099998,21.46
3597395,-0.075152,0.015128,1.012600,7.490000,-39.270000,62.299999,21.46
3597410,-0.054656,-0.018056,0.997960,2.310000,-40.389999,58.450001,21.41
3597423,-0.048312,-0.015128,1.004792,-2.030000,-41.720001,56.209999,21.37
3597436,-0.035136,-0.009272,0.970144,-3.500000,-44.660000,54.529999,21.40
3597447,0.034648,-0.042456,0.931104,-4.340000,-46.340000,53.970001,21.40
3597458,0.083936,-0.069296,0.907680,-3.220000,-45.430000,51.450001,21.40
3597469,0.119560,-0.078080,0.895480,-4.410000,-45.500000,49.000000,21.40
3597482,0.158600,-0.085400,0.937448,-4.830000,-45.220001,46.549999,21.32
3597493,0.187880,-0.025376,0.992592,-9.660000,-45.500000,44.240002,21.41
3597504,0.225456,0.015128,0.987712,-23.170000,-46.340000,42.490002,21.41
3597515,0.304512,-0.008296,0.939400,-36.049999,-46.060001,40.880001,21.41
3597526,0.371856,-0.064416,0.900360,-46.130001,-42.139999,37.380001,21.36
3597537,0.385032,-0.104920,0.900360,-53.759998,-38.430000,32.270000,21.36
3597548,0.393816,-0.189832,0.937448,-56.630001,-36.470001,25.620001,21.40
3597559,0.387960,-0.236192,0.965752,-51.169998,-34.439999,19.740000,21.40
3597570,0.504592,-0.303048,0.948672,-35.630001,-41.299999,17.080000,21.39
3597581,0.584136,-0.349408,0.917928,-23.870001,-38.360001,10.780000,21.39
3597592,0.616832,-0.382104,0.888160,-8.610000,-36.680000,5.530000,21.40
3597603,0.690520,-0.406504,0.880840,7.070000,-33.320000,2.590000,21.39
3597614,0.738832,-0.382104,0.897920,14.070000,-28.000000,0.070000,21.39
3597625,0.754936,-0.355752,0.930128,17.990000,-25.830000,-0.210000,21.41
3597636,0.784704,-0.343064,0.946720,18.620001,-22.889999,-0.280000,21.41
3597647,0.810080,-0.326472,0.961848,16.240000,-20.580000,0.210000,21.37
3597659,0.835456,-0.313784,0.969656,10.570000,-17.430000,0.350000,21.39
3597670,0.849608,-0.303536,0.972096,4.270000,-14.490000,0.910000,21.39
3597681,0.859856,-0.315248,0.958432,-2.380000,-11.200000,1.750000,21.42
3597693,0.849608,-0.326472,0.951600,-9.730000,-7.140000,3.220000,21.42
3597704,0.835944,-0.323056,0.934520,-17.709999,-3.710000,4.690000,21.40
3597715,0.811544,-0.344040,0.929152,-21.139999,0.280000,5.810000,21.39
3597726,0.777384,-0.342576,0.949648,-20.160000,1.820000,5.740000,21.39
3597736,0.748592,-0.335256,0.962824,-20.580000,2.450000,5.180000,21.41
3597747,0.723704,-0.356240,0.966728,-19.459999,3.920000,5.460000,21.41
3597758,0.705160,-0.364048,0.965752,-17.010000,4.340000,5.670000,21.44
3597769,0.692960,-0.365512,0.943304,-12.390000,5.180000,5.040000,21.40
3597780,0.683200,-0.379664,0.937448,-5.600000,6.440000,4.130000,21.40
3597791,0.674904,-0.375272,0.937936,-0.210000,7.630000,2.940000,21.38
3597802,0.670024,-0.364536,0.935008,4.340000,9.030000,1.330000,21.38
3597813,0.655872,-0.338672,0.945256,5.250000,10.360000,0.280000,21.39
3597824,0.623176,-0.299632,0.947696,0.700000,12.460000,-2.450000,21.39
3597836,0.584624,-0.301096,0.955016,-6.510000,13.790000,-6.230000,21.36
3597847,0.566568,-0.322568,0.961360,-17.219999,14.140000,-10.710000,21.39
3597858,0.542168,-0.318664,0.932568,-30.030001,16.240000,-15.470000,21.39
3597869,0.517768,-0.342576,0.897920,-40.950001,19.389999,-23.030001,21.39
3597880,0.469944,-0.363560,0.876448,-48.369999,23.940001,-31.430000,21.44
3597892,0.416752,-0.399672,0.851560,-46.759998,27.230000,-40.740002,21.44
3597904,0.366976,-0.431880,0.849608,-40.880001,31.010000,-50.259998,21.39
3597915,0.301584,-0.467992,0.881816,-28.350000,34.299999,-59.919998,21.39
3597927,0.219600,-0.486048,0.943304,-6.860000,34.090000,-70.699997,21.40
3597938,0.152256,-0.436760,0.962824,6.300000,32.830002,-81.760002,21.38
3597949,0.104920,-0.434808,0.940376,22.540001,31.430000,-94.360001,21.38
3597960,0.064416,-0.435296,0.875472,38.990002,31.290001,-104.720001,21.37
3597971,0.025376,-0.356240,0.804712,47.320000,34.580002,-115.779999,21.37
3597982,-0.014640,-0.347456,0.732976,57.470001,38.080002,-127.400002,21.37
3597994,-0.079056,-0.241560,0.729072,64.889999,43.540001,-136.009995,21.37
3598006,-0.185440,-0.109312,0.797880,54.669998,51.799999,-142.309998,21.37
3598017,-0.308416,-0.021960,0.881816,43.680000,54.040001,-145.740005,21.36
3598029,-0.417728,0.052216,0.944280,24.850000,55.509998,-145.740005,21.36
3598040,-0.518744,0.078080,0.973072,11.340000,54.810001,-143.149994,21.41
3598051,-0.568032,0.084424,0.988688,8.610000,52.150002,-140.770004,21.37
3598062,-0.568520,0.069296,0.985272,6.160000,49.910000,-136.570007,21.37
3598073,-0.579256,0.043432,0.994544,5.600000,48.090000,-129.360001,21.41
3598084,-0.606096,0.045872,1.058960,4.550000,44.169998,-116.830002,21.41
3598095,-0.603168,0.074176,1.103856,5.950000,37.590000,-105.349998,21.38
3598107,-0.585112,0.112240,1.116056,11.830000,29.820000,-88.339996,21.43
3598119,-0.529968,0.158112,1.111664,15.260000,22.469999,-69.300003,21.43
3598130,-0.484096,0.167384,1.091168,16.450001,16.379999,-49.700001,21.39
3598142,-0.439200,0.155184,1.094096,18.549999,9.520000,-29.540001,21.37
3598153,-0.405040,0.181536,1.105808,16.940001,4.410000,-10.290000,21.37
3598165,-0.372344,0.185440,1.096536,13.860000,0.070000,7.700000,21.42
3598176,-0.346968,0.154208,1.096536,11.690000,-2.030000,23.660000,21.42
3598187,-0.329888,0.132736,1.070672,8.190000,-4.900000,52.709999,21.42
3598198,-0.309880,0.090768,1.052128,4.760000,-6.440000,46.619999,21.36
3598209,-0.290360,0.037576,1.030168,5.250000,-7.490000,55.860001,21.36
3598221,-0.275720,0.016104,1.015528,6.440000,-8.470000,63.419998,21.39
3598232,-0.259616,-0.013664,1.005280,8.260000,-7.840000,68.949997,21.39
3598244,-0.255712,-0.051240,0.988200,16.170000,-7.280000,73.080002,21.41
3598256,-0.256200,-0.039040,0.980880,22.400000,-6.510000,76.230003,21.41
3598268,-0.259128,-0.031720,0.975512,25.480000,-4.130000,78.540001,21.41
3598279,-0.272792,-0.027816,0.976488,27.090000,-2.870000,80.849998,21.39
3598290,-0.277184,-0.011224,1.006256,27.370001,-1.610000,83.089996,21.39
3598301,-0.282064,0.006344,1.018456,24.010000,-1.750000,85.400002,21.37
3598313,-0.236680,0.005856,1.023336,18.690001,-2.590000,87.010002,21.35
3598325,-0.205936,0.015616,1.015528,10.430000,-0.980000,86.660004,21.35
3598336,-0.199104,0.018544,1.028704,0.140000,-1.050000,85.889999,21.38
3598347,-0.194224,-0.013664,1.040904,-7.000000,-1.610000,83.580002,21.37
3598358,-0.170312,-0.045384,1.037000,-9.240000,-4.200000,79.940002,21.37
3598372,-0.145424,-0.096624,1.024800,-7.140000,-6.790000,75.110001,21.39
3598386,-0.094672,-0.144448,1.026752,4.060000,-11.410000,70.209999,21.37
3598398,-0.061000,-0.129320,1.033584,9.660000,-14.630000,66.430000,21.37
3598409,-0.007808,-0.119560,1.024800,14.840000,-17.850000,63.139999,21.42
3598421,0.028304,-0.098088,1.020408,16.309999,-18.410000,59.709999,21.42
3598432,0.041480,-0.075152,1.018456,14.700000,-19.389999,55.720001,21.41
3598443,0.047824,-0.060512,1.018456,14.490000,-22.120001,52.290001,21.36
3598454,0.079056,-0.039528,1.015040,13.650000,-24.360001,46.619999,21.36
3598466,0.084424,-0.020496,0.996008,13.370000,-26.950001,40.599998,21.38
3598478,0.154208,-0.038064,0.973560,9.940000,-29.680000,36.400002,21.39
3598489,0.205936,-0.026352,0.962824,2.520000,-28.420000,32.759998,21.39
3598501,0.251808,-0.020008,0.970632,-3.570000,-29.610001,30.660000,21.34
3598513,0.327448,-0.032696,0.996984,-11.690000,-27.930000,26.879999,21.34
3598524,0.381128,-0.042944,1.018944,-17.639999,-26.670000,23.520000,21.42
3598536,0.456280,-0.056608,1.043344,-24.990000,-25.129999,21.209999,21.38
3598547,0.462624,-0.027816,1.090192,-36.610001,-19.040001,18.410000,21.38
3598558,0.586576,-0.122976,1.073112,-30.170000,-24.990000,16.379999,21.41
3598570,0.574864,-0.157624,1.070672,-29.260000,-23.870001,11.410000,21.41
3598582,0.610976,-0.194712,1.052616,-30.170000,-26.320000,10.010000,21.40
3598593,0.707600,-0.266936,1.049200,-25.410000,-24.290001,7.420000,21.38
3598604,0.736392,-0.256688,1.074576,-21.910000,-20.650000,5.740000,21.38
3598615,0.740296,-0.227896,1.078480,-20.650000,-19.879999,5.390000,21.43
3598627,0.788608,-0.213744,1.063352,-23.799999,-17.780001,6.300000,21.43
3598638,0.815448,-0.198616,1.058960,-29.750000,-13.930000,8.820000,21.42
3598650,0.810568,-0.207888,1.061888,-36.119999,-10.710000,10.780000,21.43
3598661,0.800808,-0.249368,1.070184,-35.070000,-8.330000,12.040000,21.43
3598672,0.784216,-0.289384,1.074576,-31.570000,-7.350000,12.740000,21.40
3598684,0.777384,-0.316712,1.064816,-25.900000,-6.090000,13.720000,21.39
3598695,0.757864,-0.330864,1.045296,-19.250000,-4.970000,14.420000,21.39
3598707,0.732488,-0.337696,1.020896,-13.720000,-3.920000,14.210000,21.42
3598719,0.705160,-0.328424,0.997960,-9.870000,-3.360000,14.000000,21.42
3598730,0.691496,-0.304024,0.973560,-9.590000,-2.310000,13.510000,21.39
3598742,0.677832,-0.310368,0.950136,-10.290000,-1.610000,12.110000,21.37
3598754,0.677344,-0.370880,0.924272,-5.460000,-0.070000,8.330000,21.37
3598765,0.670512,-0.427976,0.898408,2.730000,1.050000,4.760000,21.41
3598776,0.667096,-0.428464,0.853512,7.560000,4.410000,-0.770000,21.41
3598787,0.650992,-0.388936,0.826184,9.030000,8.120000,-7.070000,21.34
3598798,0.627080,-0.336232,0.829112,4.760000,12.950000,-13.230000,21.35
3598810,0.570472,-0.311344,0.843752,-2.380000,19.600000,-20.090000,21.35
3598822,0.528016,-0.338672,0.858392,-11.410000,21.840000,-27.230000,21.44
3598833,0.501664,-0.380152,0.861320,-17.920000,24.219999,-35.000000,21.38
3598845,0.453840,-0.384544,0.837408,-19.110001,28.700001,-44.099998,21.38
3598857,0.404064,-0.402112,0.810568,-13.720000,33.250000,-55.439999,21.39
3598868,0.347456,-0.390888,0.808616,-8.540000,38.919998,-64.820000,21.39
3598879,0.270352,-0.366488,0.823256,-5.460000,44.660000,-76.089996,21.37
3598890,0.190808,-0.405528,0.869128,-0.770000,47.529999,-88.199997,21.39
3598901,0.128344,-0.361120,0.850584,5.110000,50.330002,-99.680000,21.39
3598912,0.039528,-0.337208,0.824232,10.360000,54.180000,-110.180000,21.43
3598924,-0.042456,-0.260592,0.770064,12.460000,61.320000,-122.779999,21.43
3598935,-0.165920,-0.138592,0.807152,2.170000,69.019997,-133.839996,21.40
3598947,-0.344528,-0.057584,0.893040,-13.020000,75.599998,-142.169998,21.36
3598959,-0.493856,-0.079544,0.945744,-18.900000,75.879997,-150.500000,21.36
3598970,-0.610976,-0.004392,0.977952,-24.639999,77.000000,-153.369995,21.41
3598981,-0.686128,-0.025864,1.014064,-30.590000,73.570000,-155.330002,21.41
3598992,-0.744688,-0.042944,1.036512,-30.799999,71.680000,-150.850006,21.37
3599004,-0.813008,-0.029280,1.152168,-27.299999,65.029999,-141.119995,21.41
3599016,-0.844240,0.125416,1.203896,-26.180000,53.830002,-126.139999,21.41
3599028,-0.793488,0.210328,1.267824,-37.099998,39.970001,-105.980003,21.39
3599040,-0.740296,0.207888,1.268800,-42.419998,25.969999,-85.540001,21.37
3599051,-0.652456,0.132248,1.200480,-36.750000,11.760000,-62.790001,21.37
3599063,-0.558272,-0.001952,1.095560,-24.430000,2.380000,-41.790001,21.39
3599074,-0.497272,-0.142984,0.984296,0.350000,-6.020000,-24.290001,21.39
3599087,-0.456280,-0.137128,0.903776,28.000000,-10.920000,-7.490000,21.43
3599099,-0.402600,-0.139080,0.914024,42.279999,-14.000000,7.910000,21.43
3599110,-0.366000,-0.070760,0.952576,44.799999,-14.840000,22.750000,21.43
3599121,-0.349408,-0.013176,0.963800,34.860001,-13.230000,35.419998,21.41
3599133,-0.334768,-0.085888,0.966240,27.299999,-12.460000,45.220001,21.37
3599144,-0.302560,-0.159088,0.944768,19.600000,-11.340000,52.220001,21.37
3599155,-0.274256,-0.190320,0.918904,15.960000,-7.630000,56.279999,21.36
3599170,-0.292800,-0.203984,0.936472,13.650000,-3.570000,61.180000,21.42
3599182,-0.339160,-0.203008,0.958432,15.470000,-3.220000,66.010002,21.42
3599193,-0.366488,-0.153232,0.963800,18.059999,-5.040000,71.120003,21.36
3599205,-0.380152,-0.127368,0.969168,20.719999,-7.350000,75.809998,21.36
3599217,-0.376248,-0.095160,0.978928,21.139999,-9.030000,79.589996,21.33
3599228,-0.375272,-0.095160,1.006256,22.400000,-10.150000,82.250000,21.36
3599239,-0.382104,-0.063440,1.032120,23.660000,-12.460000,83.930000,21.36
3599250,-0.375760,-0.053192,1.020408,21.209999,-15.260000,85.750000,21.39
3599264,-0.354288,-0.102480,1.002352,21.000000,-18.760000,87.290001,21.39
3599277,-0.347944,-0.090280,1.004792,21.280001,-22.330000,86.449997,21.39
3599288,-0.340136,-0.111264,1.015040,23.450001,-26.320000,84.419998,21.41
3599299,-0.325984,-0.127368,1.021384,27.719999,-30.730000,82.879997,21.39
3599311,-0.286456,-0.114680,1.008696,30.030001,-34.860001,80.430000,21.39
3599322,-0.245952,-0.118096,0.985760,31.290001,-38.290001,79.029999,21.39
3599334,-0.166896,-0.108824,0.956968,31.219999,-39.060001,77.559998,21.39
3599345,-0.126880,-0.091256,0.971608,29.400000,-37.730000,74.620003,21.38
3599357,-0.099552,-0.058560,1.022848,25.410000,-37.380001,71.120003,21.41
3599368,-0.081496,-0.024888,1.050176,0.210000,-38.639999,67.550003,21.41
3599380,-0.084424,0.017080,1.065792,5.040000,-41.720001,63.560001,21.41
3599391,-0.070272,-0.120048,1.048712,-6.230000,-45.849998,58.520000,21.41
3599402,-0.013664,-0.073688,1.021384,-13.790000,-50.049999,52.919998,21.40
3599414,0.048312,-0.133712,0.992104,-15.610000,-52.009998,47.599998,21.41
3599425,0.134200,-0.149328,0.980392,-15.470000,-50.889999,42.209999,21.41
3599437,0.181048,-0.185928,1.016992,-13.090000,-48.299999,18.830000,21.41
3599448,0.205448,-0.196176,1.049688,-7.910000,-48.299999,31.780001,21.35
3599460,0.258640,-0.210816,1.046272,-2.310000,-48.930000,26.740000,21.35
3599472,0.320616,-0.207888,1.053104,3.640000,-49.980000,22.260000,21.39
3599483,0.400648,-0.208864,1.045296,8.330000,-50.400002,18.200001,21.39
3599495,0.493856,-0.187392,1.022360,5.740000,-47.389999,15.960000,21.39
3599506,0.576328,-0.182512,1.054080,-1.190000,-39.830002,14.560000,21.40
3599517,0.501664,-0.210328,1.034560,-5.600000,-50.540001,18.969999,21.40
3599529,0.708576,-0.170800,1.052128,-16.799999,-33.459999,6.720000,21.42
3599540,0.583648,-0.175192,1.068232,-23.870001,-35.560001,4.690000,21.42
3599551,0.690520,-0.225456,1.026264,-28.070000,-37.450001,4.410000,21.40
3599562,0.776896,-0.279136,1.011624,-28.420000,-29.540001,3.080000,21.37
3599575,0.780312,-0.297680,0.991616,-23.660000,-24.920000,3.360000,21.37
3599587,0.818376,-0.298168,0.975024,-18.830000,-20.160000,4.690000,21.41
3599598,0.827160,-0.298656,0.984784,-14.420000,-16.870001,6.790000,21.40
3599610,0.841312,-0.282064,0.987712,-10.430000,-12.110000,6.860000,21.40
3599621,0.823744,-0.263032,0.994056,-9.100000,-8.400000,7.630000,21.42
3599632,0.804224,-0.243024,0.992592,-10.430000,-6.020000,8.120000,21.42
3599644,0.783728,-0.236680,0.974048,-13.790000,-3.220000,8.890000,21.38
3599655,0.752984,-0.235704,0.958920,-17.360001,-0.350000,9.660000,21.38
3599667,0.711016,-0.243024,0.949648,-20.370001,0.210000,10.080000,21.38
3599678,0.702720,-0.263520,0.931592,-21.070000,1.960000,10.150000,21.39
3599689,0.679296,-0.276696,0.905240,-18.270000,3.500000,10.010000,21.39
3599700,0.660264,-0.293776,0.887672,-14.350000,6.020000,8.190000,21.36
3599711,0.638304,-0.318176,0.878400,-9.590000,8.190000,5.670000,21.37
3599722,0.626592,-0.312808,0.858880,-7.000000,11.130000,3.220000,21.37
3599734,0.598776,-0.290848,0.856440,-7.420000,13.650000,0.070000,21.43
3599745,0.564128,-0.266448,0.860344,-11.130000,16.309999,-3.780000,21.43
3599757,0.542168,-0.260592,0.872056,-17.010000,18.690001,-8.540000,21.36
3599768,0.508008,-0.264008,0.874496,-23.799999,21.910000,-12.670000,21.36
3599779,0.472384,-0.312320,0.867664,-24.010000,24.080000,-19.459999,21.36
3599790,0.437248,-0.358680,0.844728,-18.549999,27.440001,-26.879999,21.43
3599801,0.401136,-0.351360,0.816912,-9.590000,30.870001,-35.279999,21.43
3599813,0.353800,-0.339160,0.823744,-3.360000,34.439999,-43.330002,21.38
3599824,0.320128,-0.339648,0.822768,4.200000,39.759998,-50.400002,21.41
3599836,0.247904,-0.277184,0.850584,5.530000,44.590000,-55.720001,21.41
3599847,0.168360,-0.312808,0.868640,11.340000,46.549999,-65.029999,21.40
3599859,0.124928,-0.360144,0.856928,24.010000,48.160000,-74.690002,21.41
3599870,0.058560,-0.306464,0.820816,34.090000,52.849998,-84.980003,21.41
3599883,-0.016104,-0.340624,0.855952,43.889999,56.139999,-98.769997,21.39
3599894,-0.087840,-0.281576,0.872544,48.299999,61.110001,-105.769997,21.39
3599906,-0.209840,-0.245952,0.881328,51.799999,65.449997,-113.120003,21.35
3599917,-0.307440,-0.285968,0.902800,69.230003,65.379997,-118.580002,21.39
3599928,-0.429440,-0.097600,0.961360,69.370003,66.639999,-122.500000,21.39
3599940,-0.536800,-0.016104,1.029680,67.269997,63.560001,-126.279999,21.39
3599952,-0.610000,0.135176,1.108248,50.119999,59.709999,-123.480003,21.39
3599963,-0.691008,0.188368,1.190232,34.930000,52.150002,-117.250000,21.32
3599974,-0.709552,0.200568,1.196088,19.809999,42.279999,-107.029999,21.37
3599986,-0.707112,0.205936,1.210240,6.300000,31.290001,-93.309998,21.37
3599997,-0.689056,0.204472,1.163880,-0.560000,19.389999,-78.330002,21.36
3600008,-0.631960,0.148352,1.108248,1.890000,9.730000,-64.889999,21.39
3600019,-0.592432,0.104920,1.071160,9.520000,1.470000,-47.950001,21.39
3600030,-0.553392,0.069296,1.054080,23.870001,-6.090000,-31.780001,21.37
3600042,-0.504104,0.041968,1.041880,37.240002,-11.200000,-14.700000,21.37
3600053,-0.466040,0.020984,1.008208,52.009998,-13.300000,1.400000,21.41
3600065,-0.427488,0.041480,0.952088,60.130001,-15.260000,16.450001,21.38
3600076,-0.390888,0.056608,0.918416,62.509998,-14.770000,26.530001,21.38
3600087,-0.363560,0.068808,0.926224,60.970001,-12.390000,35.279999,21.37
3600098,-0.344528,0.077104,0.949160,56.560001,-10.570000,42.700001,21.37
3600110,-0.332328,0.081984,0.955992,49.910000,-8.610000,48.930000,21.37
3600121,-0.321592,0.063928,0.952576,50.119999,-7.770000,53.900002,21.39
3600132,-0.308416,0.091256,0.923784,47.529999,-4.620000,58.380001,21.39
3600143,-0.301096,0.130296,0.929640,38.150002,-0.490000,62.230000,21.39
3600154,-0.318664,0.167872,0.973072,28.770000,2.030000,67.129997,21.39
3600166,-0.327936,0.206424,1.001376,16.309999,1.820000,71.680000,21.40
3600177,-0.337208,0.214720,1.020408,1.680000,2.030000,75.110001,21.37
3600189,-0.342576,0.197640,1.007720,-4.620000,-0.700000,76.510002,21.37
3600201,-0.313296,0.153720,0.999424,-9.520000,-1.890000,77.209999,21.38
3600212,-0.278648,0.080032,0.993080,-9.030000,-2.450000,76.790001,21.38
3600224,-0.261080,0.057584,1.000888,-4.620000,-3.850000,76.930000,21.36
3600235,-0.252296,0.066368,1.008208,-0.560000,-5.880000,76.370003,21.39
3600246,-0.233264,0.098576,1.014064,-1.260000,-8.820000,75.669998,21.39
3600258,-0.199104,0.116632,1.013576,-6.090000,-11.200000,74.690002,21.42
3600269,-0.169336,0.112728,1.019432,-12.600000,-13.230000,73.220001,21.37
3600281,-0.146400,0.066368,1.027728,-14.700000,-15.400000,71.400002,21.37
3600292,-0.121024,0.040016,1.026752,-13.440000,-18.620001,69.160004,21.40
3600303,-0.068320,-0.008296,1.006256,-7.700000,-22.049999,66.500000,21.40
3600315,-0.017568,-0.019032,0.983320,1.260000,-23.309999,62.020000,21.37
3600327,0.022448,-0.002440,0.987224,7.700000,-24.500000,58.310001,21.39
3600338,0.046360,0.029768,0.996496,9.310000,-24.639999,53.900002,21.39
3600350,0.065392,0.022448,0.994544,7.280000,-25.200001,50.049999,21.39
3600361,0.095648,0.026352,0.992104,3.290000,-26.250000,46.830002,21.39
3600372,0.162504,0.024888,0.983320,-0.420000,-30.030001,43.820000,21.39
3600383,0.232288,0.023424,0.955504,-6.020000,-28.420000,38.990002,21.38
3600394,0.300120,-0.002928,0.938424,-11.550000,-27.370001,33.599998,21.38
3600405,0.372832,-0.031720,0.963800,-15.890000,-25.410000,30.030001,21.37
3600416,0.397720,-0.006832,0.996008,-23.870001,-23.940001,26.250000,21.37
3600428,0.432368,0.010736,1.076040,-37.520000,-24.080000,25.340000,21.39
3600439,0.365512,-0.024400,1.083848,-47.459999,-38.849998,29.540001,21.34
3600450,0.541680,0.012200,1.073600,-61.389999,-29.540001,19.459999,21.34
3600461,0.494344,-0.027816,1.045784,-71.610001,-31.570000,15.680000,21.40
3600473,0.555832,-0.123464,1.034560,-75.320000,-30.379999,12.530000,21.40
3600484,0.594872,-0.241560,1.045784,-68.529999,-25.969999,8.470000,21.34
3600495,0.602192,-0.306464,1.072136,-55.369999,-25.270000,6.580000,21.35
3600507,0.638792,-0.353800,1.076040,-21.700001,-24.709999,5.670000,21.35
3600518,0.658800,-0.367952,1.065304,-18.410000,-23.730000,5.180000,21.41
3600530,0.690520,-0.336232,1.074088,1.120000,-21.280001,5.040000,21.41
3600542,0.700768,-0.276696,1.092632,9.730000,-18.690001,5.460000,21.39
3600553,0.711016,-0.208376,1.099952,10.850000,-15.820000,6.720000,21.41
3600564,0.722728,-0.174216,1.098976,3.990000,-12.740000,8.120000,21.41
3600575,0.706136,-0.151280,1.090680,-5.740000,-8.960000,9.240000,21.37
3600586,0.680272,-0.148352,1.090680,-16.590000,-5.880000,10.360000,21.37
3600598,0.645136,-0.160064,1.069696,-25.830000,-3.990000,10.500000,21.37
3600610,0.618784,-0.178608,1.057984,-32.130001,-2.660000,10.640000,21.37
3600624,0.597312,-0.223504,1.033584,-32.689999,-0.560000,10.360000,21.33
3600637,0.588040,-0.272792,1.011624,-26.040001,1.540000,8.960000,21.33
3600648,0.575352,-0.284016,0.995520,-16.660000,2.660000,7.280000,21.40
3600659,0.556808,-0.266936,0.976976,-9.800000,4.620000,5.320000,21.40
3600670,0.527040,-0.254248,0.972096,-6.930000,5.950000,2.660000,21.38
3600681,0.514352,-0.233752,0.971608,-8.680000,6.860000,-0.350000,21.39
3600692,0.499712,-0.204960,0.973072,-18.549999,7.770000,-3.500000,21.39
3600704,0.482632,-0.214720,0.957944,-30.520000,9.240000,-7.140000,21.37
3600715,0.459696,-0.280112,0.946720,-36.680000,11.340000,-12.950000,21.37
3600727,0.430416,-0.351848,0.922320,-35.770000,12.670000,-20.719999,21.40
3600738,0.401136,-0.397720,0.882304,-30.100000,14.350000,-29.820000,21.39
3600750,0.368928,-0.471896,0.838384,-14.980000,17.080000,-40.950001,21.39
3600761,0.333792,-0.490440,0.835944,5.110000,19.600000,-51.730000,21.41
3600772,0.293776,-0.394792,0.824720,16.030001,22.400000,-62.860001,21.41
3600784,0.235216,-0.338184,0.822768,25.270000,26.389999,-74.199997,21.38
3600795,0.180072,-0.338672,0.833016,30.379999,28.629999,-85.330002,21.37
3600807,0.136152,-0.381128,0.795440,38.709999,30.030001,-95.480003,21.37
3600818,0.086376,-0.345504,0.764696,45.360001,34.020000,-103.529999,21.35
3600829,0.014152,-0.269864,0.776896,41.509998,38.570000,-115.010002,21.35
3600840,-0.067832,-0.184952,0.805200,18.059999,45.290001,-125.510002,21.36
3600852,-0.191296,-0.104920,0.839360,25.900000,50.959999,-134.119995,21.38
3600863,-0.287432,-0.062952,0.856928,14.910000,51.869999,-139.509995,21.38
3600875,-0.358192,-0.060512,0.856440,6.720000,53.970001,-141.610001,21.37
3600886,-0.467016,-0.080032,0.901824,5.880000,54.599998,-143.639999,21.37
3600898,-0.530456,-0.053680,0.895480,9.310000,51.240002,-142.800003,21.37
3600909,-0.571448,-0.027328,0.895968,14.560000,49.279999,-140.350006,21.33
3600920,-0.608536,0.048800,0.910608,13.090000,45.150002,-137.690002,21.33
3600931,-0.615856,0.185440,0.925736,6.300000,42.910000,-131.740005,21.34
3600942,-0.637328,0.324520,0.957456,-4.200000,41.509998,-123.129997,21.43
3600953,-0.637816,0.391376,1.064816,-29.959999,39.689999,-106.750000,21.43
3600965,-0.629520,0.386496,1.223416,-56.000000,34.439999,-89.040001,21.39
3600976,-0.590480,0.330376,1.234640,-66.430000,26.879999,-63.700001,21.39
3600986,-0.530944,0.191784,1.181936,-66.500000,21.700001,-38.570000,21.37
3600998,-0.484096,0.039528,1.104832,-42.840000,16.379999,-16.870001,21.33
3601009,-0.474336,-0.049288,1.044808,-8.050000,8.890000,15.960000,21.33
3601022,-0.426024,-0.044408,1.014552,21.209999,3.010000,18.270000,21.36
3601033,-0.412360,-0.004880,1.055544,42.209999,0.140000,33.389999,21.36
3601044,-0.390888,0.083936,1.131184,43.889999,-2.940000,48.230000,21.41
3601056,-0.386984,0.075152,1.155584,37.240002,-5.810000,58.660000,21.34
3601067,-0.370392,0.021960,1.132160,31.709999,-8.820000,69.160004,21.34
3601078,-0.348432,-0.013176,1.087752,28.139999,-9.870000,75.879997,21.39
3601089,-0.331352,-0.036600,1.060912,25.830000,-9.590000,80.360001,21.39
3601100,-0.336232,-0.027816,1.058472,23.590000,-7.840000,83.790001,21.42
3601112,-0.360632,-0.008296,1.062864,22.680000,-9.730000,87.779999,21.32
3601122,-0.363560,-0.000976,1.051640,21.980000,-11.410000,90.930000,21.32
3601133,-0.357216,-0.012688,1.042856,23.870001,-12.460000,92.889999,21.36
3601145,-0.324520,-0.004880,1.042856,27.370001,-14.980000,93.730003,21.36
3601156,-0.299632,-0.017080,1.058960,27.719999,-14.840000,93.519997,21.36
3601167,-0.299144,-0.015616,1.073600,26.670000,-17.360001,93.379997,21.34
3601178,-0.281088,-0.015128,1.084336,25.129999,-19.250000,92.120003,21.34
3601189,-0.284992,-0.006344,1.070672,23.730000,-21.629999,90.370003,21.40
3601200,-0.259128,-0.002928,1.037976,21.139999,-24.990000,88.970001,21.40
3601212,-0.219600,-0.003416,1.026752,16.030001,-26.740000,86.940002,21.33
3601223,-0.208864,0.002440,1.040416,11.690000,-28.139999,84.489998,21.38
3601235,-0.200568,0.015616,1.039928,8.610000,-31.500000,82.180000,21.38
3601246,-0.170800,-0.008296,1.026264,3.570000,-33.320000,80.080002,21.43
3601257,-0.140544,-0.032696,1.025776,2.380000,-35.209999,78.610001,21.43
3601268,-0.122000,-0.020496,1.008208,3.360000,-36.820000,75.739998,21.36
3601279,-0.080032,-0.070760,0.992592,10.080000,-39.410000,73.220001,21.37
3601290,-0.014640,-0.088816,0.969656,16.379999,-37.869999,69.720001,21.37
3601301,-0.005368,-0.066368,0.977464,22.190001,-37.450001,66.080002,21.40
3601313,0.003416,-0.013176,0.974536,29.190001,-37.660000,61.110001,21.40
3601324,0.032208,0.016592,0.976976,26.040001,-39.619999,57.259998,21.35
3601335,0.066368,0.014152,0.995520,16.379999,-40.599998,53.689999,21.39
3601346,0.109312,0.002440,0.987224,7.490000,-42.139999,50.049999,21.39
3601357,0.173240,0.009760,0.957944,-4.130000,-42.139999,47.389999,21.35
3601368,0.247904,-0.000976,0.944768,-14.840000,-41.439999,43.820000,21.35
3601379,0.310856,-0.035136,0.931104,-21.490000,-38.849998,38.779999,21.37
3601390,0.376736,-0.079056,0.966240,-28.139999,-35.700001,31.360001,21.31
3601401,0.326960,-0.119072,1.034560,-32.549999,-42.139999,34.299999,21.31
3601412,0.412360,-0.097112,1.064816,-39.130001,-34.790001,23.100000,21.37
3601423,0.412848,-0.127856,1.057496,-40.459999,-40.459999,19.670000,21.37
3601434,0.493368,-0.195200,0.993080,-41.650002,-41.090000,16.799999,21.39
3601446,0.577792,-0.269864,0.955992,-38.080002,-37.660000,11.130000,21.36
3601457,0.605608,-0.312808,0.961848,-27.650000,-35.279999,7.700000,21.36
3601468,0.649040,-0.325496,0.987712,-17.639999,-33.040001,4.480000,21.37
3601479,0.684664,-0.301096,1.011624,-12.110000,-31.570000,2.870000,21.37
3601490,0.721264,-0.284016,1.017480,-8.260000,-30.590000,2.100000,21.31
3601502,0.760792,-0.268888,1.026264,-8.960000,-28.559999,1.470000,21.33
3601513,0.801784,-0.264984,1.025776,-12.740000,-24.850000,1.330000,21.33
3601523,0.832528,-0.272792,1.017480,-14.910000,-21.350000,2.030000,21.36
3601535,0.882304,-0.281576,1.009672,-18.200001,-16.240000,3.500000,21.36
3601546,0.909632,-0.290848,1.004304,-22.190001,-11.200000,5.320000,21.39
3601557,0.894016,-0.275232,1.026752,-25.760000,-5.390000,6.720000,21.39
3601568,0.877912,-0.263520,1.050664,-28.700001,-0.420000,7.350000,21.39
3601579,0.833016,-0.311344,1.065304,-24.709999,3.570000,6.440000,21.41
3601590,0.798368,-0.325984,1.065304,-16.940001,5.250000,6.230000,21.41
3601601,0.763232,-0.324520,1.049688,-8.960000,6.160000,5.320000,21.38
3601612,0.734440,-0.338672,1.038952,-2.170000,7.840000,3.430000,21.38
3601624,0.702232,-0.319640,1.014552,2.800000,9.870000,0.980000,21.40
3601635,0.679296,-0.302560,0.991616,1.890000,10.990000,-2.800000,21.39
3601646,0.645136,-0.321592,0.958432,3.220000,12.320000,-7.140000,21.39
3601657,0.623176,-0.291336,0.911584,-0.630000,14.910000,-13.440000,21.39
3601668,0.594384,-0.283528,0.876448,-6.230000,17.639999,-20.580000,21.39
3601679,0.564128,-0.280600,0.852536,-12.250000,21.000000,-28.629999,21.34
3601690,0.520208,-0.258640,0.838872,-19.950001,24.570000,-52.639999,21.37
3601701,0.474336,-0.247904,0.801784,-25.129999,28.559999,-42.560001,21.37
3601713,0.429440,-0.317200,0.773480,-22.610001,32.060001,-51.099998,21.35
3601724,0.363072,-0.288896,0.760304,-14.980000,36.959999,-59.430000,21.35
3601735,0.292312,-0.271328,0.774944,-7.070000,41.090000,-70.070000,21.38
3601747,0.181536,-0.129320,0.808128,3.780000,45.430000,-80.150002,21.36
3601758,0.067832,-0.162504,0.834480,7.070000,48.020000,-86.519997,21.36
3601769,0.009760,-0.128344,0.844240,7.700000,49.700001,-94.150002,21.35
3601780,-0.046360,-0.110288,0.842288,9.030000,52.220001,-101.570000,21.35
3601791,-0.116144,-0.157136,0.827648,14.980000,54.250000,-107.660004,21.37
3601802,-0.171776,-0.150304,0.789096,22.959999,57.750000,-113.680000,21.35
3601813,-0.270840,-0.071248,0.858880,21.910000,59.919998,-116.620003,21.35
3601825,-0.384544,-0.018544,0.971608,25.270000,58.169998,-119.279999,21.35
3601836,-0.464576,0.059536,1.037000,21.139999,54.320000,-121.029999,21.35
3601847,-0.483120,0.052704,1.033096,16.100000,50.330002,-120.190002,21.41
3601858,-0.524112,0.083448,1.002352,11.270000,45.639999,-118.370003,21.37
3601869,-0.548512,0.091744,0.981368,4.550000,42.630001,-113.540001,21.37
3601880,-0.593896,0.168360,1.097024,-4.550000,38.360001,-103.669998,21.39
3601891,-0.674416,0.203984,1.202920,-12.040000,30.660000,-91.559998,21.39
3601902,-0.663680,0.225944,1.213656,-17.990000,19.530001,-79.589996,21.38
3601914,-0.620736,0.180072,1.170224,-17.150000,9.310000,-63.279999,21.33
3601925,-0.604632,0.143960,1.118984,-6.090000,-0.560000,-47.459999,21.33
3601936,-0.554368,0.096136,1.074576,6.790000,-8.820000,-31.920000,21.36
3601947,-0.503128,0.073200,1.046760,21.840000,-12.040000,-17.010000,21.36
3601958,-0.481656,0.071736,1.039440,34.299999,-15.820000,-4.620000,21.35
3601970,-0.460184,0.096624,1.036024,45.009998,-19.879999,10.570000,21.41
3601981,-0.427488,0.116632,1.030168,48.230000,-21.490000,24.219999,21.41
3601992,-0.400160,0.113216,1.018944,48.160000,-21.350000,35.630001,21.39
3602002,-0.368928,0.104432,1.004304,44.520000,-19.950001,42.840000,21.39
3602014,-0.344528,0.094672,0.986248,39.900002,-17.080000,50.680000,21.36
3602025,-0.332328,0.060512,0.974048,36.750000,-14.280000,56.980000,21.36
3602036,-0.319152,0.065880,0.955016,35.070000,-12.530000,61.250000,21.36
3602046,-0.316224,0.074664,0.939400,30.660000,-9.380000,65.519997,21.36
3602058,-0.313296,0.066368,0.931592,26.809999,-7.000000,69.019997,21.36
3602069,-0.298168,0.074176,0.936472,20.160000,-5.110000,72.169998,21.35
3602080,-0.290848,0.072712,0.955016,13.300000,-2.940000,73.919998,21.34
3602091,-0.264008,0.099552,0.963800,6.510000,-1.680000,75.809998,21.34
3602102,-0.248880,0.062952,0.962824,0.840000,0.140000,76.440002,21.36
3602113,-0.230336,0.018056,0.955016,0.700000,0.910000,76.089996,21.36
3602123,-0.217160,-0.007320,0.954040,2.940000,2.380000,74.620003,21.37
3602135,-0.204960,-0.044896,0.947696,9.170000,3.220000,72.730003,21.37
3602146,-0.186416,-0.049288,0.928176,20.580000,3.290000,70.629997,21.34
3602157,-0.159576,-0.028304,0.917440,28.280001,4.340000,68.879997,21.32
3602168,-0.144448,-0.022448,0.932568,32.689999,5.180000,66.430000,21.32
3602179,-0.134200,0.011712,0.976000,32.830002,5.390000,64.680000,21.34
3602190,-0.103944,0.032208,1.006744,28.629999,4.900000,63.419998,21.34
3602201,-0.072224,0.029280,1.020896,28.280001,3.990000,61.459999,21.40
3602212,-0.046360,0.025376,1.007232,28.840000,2.870000,58.590000,21.31
3602222,-0.028304,0.013176,0.988200,29.750000,1.960000,55.650002,21.31
3602233,0.006344,0.001952,0.992104,30.379999,-0.700000,52.709999,21.36
3602244,0.050752,0.017568,1.001864,28.980000,-2.520000,49.279999,21.36
3602255,0.093208,0.014640,1.009184,25.410000,-4.060000,45.779999,21.32
3602266,0.143960,0.009272,1.009672,21.770000,-5.250000,42.630001,21.29
3602277,0.176656,-0.011712,1.012112,20.510000,-5.740000,37.520000,21.29
3602288,0.193736,-0.017568,1.031144,20.510000,-6.300000,33.040001,21.37
3602299,0.209352,-0.006832,1.080432,16.799999,-7.980000,30.170000,21.37
3602310,0.230824,0.006344,1.098000,12.250000,-11.410000,27.230000,21.37
3602321,0.284504,0.020496,1.095560,5.740000,-13.580000,25.129999,21.37
3602332,0.335256,0.011712,1.066768,-4.550000,-14.280000,23.030001,21.41
3602343,0.378200,-0.000488,1.051640,-13.160000,-14.840000,20.160000,21.35
3602354,0.406504,0.000488,1.063352,-20.440001,-14.490000,16.240000,21.35
3602365,0.422120,-0.020984,1.103368,-25.690001,-15.120000,13.020000,21.37
3602376,0.462624,-0.051728,1.127768,-26.809999,-16.240000,11.270000,21.37
3602387,0.493856,-0.095648,1.134600,-24.430000,-16.170000,9.800000,21.40
3602398,0.525088,-0.103944,1.128256,-19.320000,-15.750000,7.910000,21.34
3602409,0.538752,-0.084424,1.155096,-18.760000,-9.520000,3.850000,21.34
3602420,0.601704,-0.086376,1.145336,-14.140000,-11.760000,6.440000,21.35
3602431,0.582672,-0.050752,1.150704,-18.059999,-8.330000,2.800000,21.35
3602442,0.598776,-0.033184,1.150704,-23.379999,-10.570000,4.340000,21.40
3602454,0.665632,-0.043432,1.168760,-30.240000,-7.070000,5.110000,21.31
3602465,0.668560,-0.028304,1.164856,-39.830002,-3.010000,5.530000,21.31
3602476,0.675880,-0.074176,1.160952,-44.869999,-1.400000,7.560000,21.36
3602487,0.678320,-0.158600,1.142408,-40.810001,0.770000,7.770000,21.36
3602498,0.670024,-0.218624,1.118984,-27.580000,3.990000,4.760000,21.38
3602509,0.643184,-0.228872,1.106296,-11.270000,4.340000,3.430000,21.39
3602520,0.625616,-0.190320,1.087752,4.200000,6.160000,1.680000,21.39
3602531,0.599752,-0.150792,1.081896,13.160000,7.000000,0.210000,21.39
3602542,0.562176,-0.111264,1.095560,17.150000,6.300000,-0.630000,21.39
3602554,0.558760,-0.096624,1.077992,15.680000,5.110000,-2.170000,21.37
3602565,0.553392,-0.078080,1.053592,8.610000,5.670000,-4.340000,21.34
3602575,0.538264,-0.080032,1.044320,-1.260000,5.390000,-8.470000,21.34
3602587,0.530944,-0.093696,1.027240,-14.420000,5.880000,-13.580000,21.34
3602599,0.505568,-0.150304,1.013088,-27.650000,5.530000,-19.879999,21.34
3602610,0.499712,-0.228872,0.973072,-32.759998,6.440000,-28.420000,21.39
3602621,0.465552,-0.294264,0.933544,-26.950001,8.680000,-36.889999,21.32
3602632,0.405040,-0.310368,0.900848,-18.480000,10.010000,-48.860001,21.32
3602643,0.360632,-0.331352,0.883280,-2.310000,10.850000,-62.509998,21.38
3602654,0.285480,-0.304024,0.875472,14.350000,11.620000,-75.739998,21.38
3602666,0.182512,-0.223992,0.865712,28.000000,13.860000,-88.059998,21.38
3602678,0.073200,-0.149328,0.868640,34.230000,14.280000,-99.050003,21.34
3602689,-0.013664,-0.104432,0.867664,37.520000,14.560000,-106.959999,21.34
3602700,-0.118584,-0.042944,0.816424,41.580002,17.709999,-115.290001,21.35
3602712,-0.248880,0.030744,0.810080,43.330002,18.549999,-121.730003,21.35
3602723,-0.381616,0.109312,0.979416,41.930000,18.690001,-123.410004,21.40
3602734,-0.521672,0.180072,0.984784,39.549999,17.010000,-123.339996,21.39
3602747,-0.623176,0.263520,1.047736,31.850000,11.340000,-116.760002,21.39
3602759,-0.650992,0.318664,1.028704,18.480000,5.110000,-109.339996,21.36
