timestamp_ms,ax,ay,az,gx,gy,gz,tempC
7323925,0.437248,0.124440,0.868640,11.830000,-22.959999,-49.910000,21.92
7323937,0.420656,0.305000,0.843264,16.170000,-21.209999,-48.720001,21.93
7323948,0.419680,0.383080,0.862784,8.610000,-20.719999,-44.939999,21.93
7323959,0.422120,0.357216,0.910120,-8.610000,-19.670000,-43.750000,21.92
7323970,0.407480,0.338184,0.965264,-27.719999,-20.650000,-41.930000,21.92
7323981,0.398696,0.293776,0.993568,-38.990002,-22.400000,-39.270000,21.92
7323992,0.410408,0.252296,1.021872,-44.380001,-24.360001,-36.889999,21.96
7324003,0.403576,0.219600,1.044808,-50.680000,-25.830000,-34.439999,21.96
7324014,0.413336,0.183000,1.023824,-52.430000,-26.879999,-33.040001,21.94
7324025,0.428952,0.144936,0.976488,-46.830002,-24.500000,-31.010000,21.94
7324036,0.429440,0.148352,0.895968,-35.419998,-22.049999,-30.170000,21.92
7324047,0.441152,0.264496,0.865224,-24.709999,-19.600000,-27.160000,21.93
7324058,0.434320,0.324520,0.852048,-26.670000,-18.129999,-24.360001,21.93
7324069,0.432856,0.278648,0.840336,-28.420000,-16.520000,-22.610001,21.93
7324080,0.449448,0.226432,0.840824,-29.540001,-14.420000,-20.580000,21.93
7324091,0.432856,0.218624,0.856440,-32.130001,-14.280000,-20.650000,21.93
7324102,0.429440,0.156160,0.861808,-31.500000,-13.230000,-20.020000,21.90
7324113,0.437736,0.109312,0.859856,-29.400000,-12.390000,-19.530001,21.90
7324124,0.435784,0.084424,0.855952,-26.879999,-12.040000,-19.459999,21.98
7324135,0.432856,0.079544,0.833504,-24.360001,-10.780000,-19.389999,21.98
7324146,0.441152,0.072224,0.800808,-17.780001,-8.260000,-19.879999,21.96
7324157,0.435296,0.118584,0.785192,-15.400000,-7.140000,-19.600000,21.93
7324169,0.437736,0.183488,0.795440,-19.809999,-7.770000,-17.500000,21.93
7324180,0.456768,0.153720,0.790072,-26.250000,-6.790000,-17.780001,21.97
7324191,0.445544,0.085400,0.802760,-29.820000,-3.010000,-20.160000,21.97
7324202,0.436760,0.024400,0.829600,-29.680000,-1.610000,-22.260000,21.96
7324213,0.450912,-0.012688,0.838872,-26.809999,0.070000,-23.030001,21.97
7324224,0.455792,-0.033184,0.865224,-21.139999,1.400000,-24.290001,21.97
7324235,0.461160,-0.022448,0.878888,-14.980000,2.240000,-25.059999,21.98
7324246,0.481168,-0.034648,0.865224,-6.720000,3.220000,-25.480000,21.98
7324257,0.504104,0.003416,0.874984,1.750000,2.800000,-25.129999,22.00
7324268,0.531432,0.034160,0.883280,1.540000,4.200000,-24.850000,21.95
7324279,0.545584,-0.002928,0.877424,-0.840000,7.140000,-26.950001,21.95
7324290,0.523136,-0.048800,0.887184,-4.620000,10.990000,-27.440001,21.96
7324302,0.525088,-0.042944,0.880840,-10.850000,10.710000,-27.160000,21.96
7324313,0.540704,-0.045872,0.883768,-20.160000,13.090000,-27.650000,22.00
7324324,0.556808,-0.054168,0.907680,-26.950001,13.790000,-27.860001,21.95
7324335,0.567056,-0.063440,0.910120,-30.799999,14.770000,-30.030001,21.95
7324346,0.585600,-0.101016,0.903288,-31.290001,17.010000,-32.900002,21.97
7324358,0.592432,-0.159576,0.911096,-24.709999,20.020000,-36.680000,21.97
7324369,0.554856,-0.159088,0.904264,-17.430000,23.100000,-39.619999,21.98
7324381,0.560712,-0.216672,0.886696,-13.090000,25.900000,-43.540001,21.96
7324393,0.530944,-0.133224,0.872056,-7.000000,29.400000,-48.580002,21.96
7324404,0.508008,-0.104920,0.858392,-0.700000,30.379999,-52.360001,21.97
7324415,0.500200,-0.015616,0.871568,-8.820000,31.080000,-52.639999,21.97
7324427,0.462624,0.080520,0.873520,-26.950001,30.379999,-53.410000,21.95
7324437,0.474336,0.098088,0.881816,-43.820000,32.410000,-53.549999,21.93
7324449,0.467992,0.048312,0.878400,-57.049999,35.560001,-55.299999,21.93
7324459,0.449448,0.022936,0.878888,-63.980000,39.900002,-57.049999,21.93
7324470,0.428952,-0.034160,0.879376,-63.980000,44.450001,-60.130001,21.93
7324482,0.401624,-0.116144,0.867664,-51.240002,49.700001,-65.099998,21.97
7324493,0.357216,-0.145912,0.844240,-25.059999,54.389999,-72.660004,21.91
7324504,0.315248,-0.132736,0.827160,1.260000,59.779999,-77.489998,21.91
7324515,0.276208,-0.044408,0.830088,9.870000,63.209999,-80.989998,21.98
7324526,0.225456,0.067832,0.837408,5.530000,62.439999,-82.669998,21.98
7324537,0.185440,0.142984,0.889624,-13.580000,61.110001,-81.760002,21.94
7324548,0.157136,0.195688,0.922808,-38.220001,60.830002,-81.269997,21.94
7324559,0.138592,0.146888,0.953552,-54.740002,63.070000,-81.129997,21.93
7324570,0.097600,0.079544,0.956968,-57.959999,66.150002,-81.970001,21.90
7324580,0.067344,0.050752,0.964776,-73.779999,65.099998,-85.540001,21.90
7324591,0.035624,-0.064904,0.923296,-71.120003,68.599998,-91.489998,21.94
7324602,-0.036112,-0.098088,0.890600,-59.639999,70.769997,-97.300003,21.94
7324614,-0.130784,-0.079544,0.869616,-52.009998,72.239998,-102.059998,21.97
7324625,-0.175680,-0.127368,0.877424,-42.770000,74.970001,-105.980003,21.95
7324636,-0.288408,-0.110776,0.914512,-32.689999,74.690002,-110.040001,21.95
7324648,-0.375760,-0.088328,0.976000,-25.129999,72.169998,-110.040001,21.98
7324659,-0.423584,-0.075152,1.029192,-14.420000,71.680000,-108.989998,21.98
7324670,-0.469944,-0.074176,1.043344,3.920000,66.779999,-105.000000,21.94
7324681,-0.469944,-0.031232,1.075552,19.740000,58.730000,-95.480003,21.93
7324692,-0.452864,0.036112,1.116056,32.060001,48.860001,-82.320000,21.93
7324703,-0.444080,0.139080,1.173152,45.500000,38.570000,-63.419998,21.97
7324714,-0.399184,0.201056,1.208776,53.830002,25.549999,-44.380001,21.97
7324725,-0.321104,0.277184,1.207312,48.860001,12.740000,-18.549999,21.96
7324736,-0.284992,0.275720,1.188768,36.400002,1.820000,7.700000,21.95
7324747,-0.266936,0.196664,1.179496,18.129999,-6.370000,28.209999,21.95
7324758,-0.275232,0.099552,1.163880,11.970000,-16.520000,49.490002,21.94
7324769,-0.301096,0.093696,1.154120,11.410000,-26.809999,66.290001,21.94
7324780,-0.312320,0.062952,1.134600,14.000000,-33.529999,78.610001,21.94
7324791,-0.305976,0.006344,1.123376,17.360001,-40.040001,84.980003,21.92
7324802,-0.304512,-0.010248,1.168760,24.920000,-44.520000,92.050003,21.92
7324813,-0.276696,-0.007808,1.084824,22.959999,-50.330002,96.669998,21.98
7324824,-0.287920,-0.025376,1.068232,19.809999,-53.270000,99.330002,21.98
7324835,-0.284016,-0.044408,1.047248,23.379999,-54.040001,101.430000,21.96
7324846,-0.286944,-0.000488,1.042368,22.120001,-57.470001,102.760002,21.96
7324857,-0.247416,0.024888,1.010648,20.790001,-57.540001,104.160004,21.92
7324868,-0.198616,0.030744,0.971608,15.820000,-56.490002,104.089996,21.95
7324879,-0.138592,0.009760,0.955992,9.590000,-53.830002,102.620003,21.95
7324890,-0.092232,0.019032,0.963312,6.650000,-50.750000,99.540001,21.95
7324901,-0.073688,-0.007320,0.975512,-5.740000,-50.470001,97.440002,21.95
7324913,-0.022936,-0.097112,0.994544,-6.090000,-47.880001,93.940002,21.90
7324924,-0.018544,-0.053680,0.997472,-4.620000,-48.230000,91.489998,21.92
7324935,0.015616,-0.029280,0.980392,-1.820000,-48.930000,88.269997,21.92
7324946,0.067344,-0.061976,0.963800,1.750000,-47.250000,82.110001,21.97
7324957,0.134200,-0.067344,0.948672,6.860000,-45.150002,77.279999,21.97
7324968,0.165920,-0.040992,0.939888,8.960000,-43.540001,70.489998,21.95
7324979,0.205936,-0.074176,0.921832,10.080000,-41.930000,63.560001,21.93
7324990,0.287432,-0.084424,0.915000,12.180000,-41.369999,57.259998,21.93
7325001,0.362584,-0.084424,0.907192,13.650000,-38.639999,50.889999,21.95
7325011,0.405040,-0.071736,0.945256,5.810000,-38.500000,42.490002,21.95
7325022,0.451888,-0.112240,0.945256,10.500000,-31.990000,35.770000,21.95
7325033,0.496784,-0.112240,0.952088,7.560000,-28.840000,30.030001,21.96
7325045,0.517280,-0.088328,0.940864,5.810000,-26.040001,24.639999,21.96
7325055,0.549000,-0.085400,0.942328,1.890000,-24.500000,18.969999,21.94
7325066,0.596336,-0.098088,0.929152,6.650000,-19.250000,15.120000,21.94
7325077,0.620248,-0.068808,0.926712,9.940000,-16.520000,9.380000,21.94
7325088,0.665632,-0.050752,0.935008,11.060000,-12.460000,5.530000,21.94
7325099,0.692960,-0.030256,0.958920,9.100000,-8.960000,1.610000,21.98
7325110,0.693448,0.010248,0.971120,1.960000,-4.410000,-0.840000,21.95
7325121,0.684176,0.029768,0.973560,-6.370000,-0.980000,-2.380000,21.95
7325132,0.675880,0.044408,0.968680,-15.540000,2.170000,-3.430000,21.95
7325143,0.658800,0.055632,0.980392,-24.080000,6.300000,-3.780000,21.95
7325154,0.644648,0.021960,0.997960,-28.070000,10.640000,-5.250000,21.96
7325166,0.614392,-0.000488,1.007720,-26.950001,13.930000,-6.510000,21.94
7325177,0.599264,0.000000,1.013576,-23.730000,17.080000,-9.240000,21.94
7325188,0.581208,-0.021472,0.995032,-20.580000,19.530001,-10.990000,21.97
7325199,0.564616,-0.044408,0.980880,-19.459999,21.840000,-13.790000,21.97
7325210,0.542168,-0.056608,0.977952,-19.389999,23.660000,-17.150000,21.98
7325221,0.516304,-0.045872,0.972584,-21.070000,25.480000,-22.330000,21.92
7325232,0.484096,-0.071736,0.961360,-22.400000,28.420000,-26.530001,21.92
7325243,0.456768,-0.122976,0.943304,-21.490000,32.130001,-32.900002,21.97
7325254,0.412360,-0.147376,0.932568,-19.040001,35.630001,-39.830002,21.97
7325265,0.368928,-0.174704,0.925248,-11.060000,38.639999,-47.950001,21.96
7325276,0.308416,-0.173240,0.923296,2.940000,42.139999,-56.000000,21.95
7325287,0.250344,-0.177144,0.921832,15.610000,45.080002,-62.230000,21.95
7325298,0.196664,-0.174216,0.908168,26.459999,48.020000,-70.629997,21.94
7325309,0.140544,-0.123952,0.919880,35.840000,48.090000,-76.230003,21.94
7325320,0.080032,-0.047824,0.934520,35.560001,48.650002,-80.080002,21.92
7325331,0.022936,0.003904,0.949160,27.370001,48.580002,-84.139999,21.92
7325342,-0.009760,0.034648,0.950624,16.100000,47.810001,-86.449997,21.96
7325353,-0.040504,0.058072,0.955016,-4.270000,47.740002,-88.550003,21.94
7325365,-0.089304,0.065880,0.945744,-24.219999,48.720001,-90.510002,21.94
7325376,-0.141032,0.121512,1.018456,-42.209999,49.980000,-90.510002,21.98
7325387,-0.182024,0.072712,0.955504,-57.330002,47.950001,-91.699997,21.98
7325398,-0.226432,-0.016104,0.969168,-65.800003,48.790001,-92.120003,21.95
7325409,-0.264008,-0.072712,0.974536,-57.820000,48.860001,-91.769997,21.95
7325420,-0.288408,-0.101016,0.950136,-38.009998,51.029999,-89.320000,21.95
7325431,-0.319152,-0.090768,0.985272,-34.930000,46.060001,-85.889999,21.96
7325442,-0.338184,-0.096624,1.027240,-20.650000,44.799999,-80.500000,21.96
7325454,-0.345504,-0.079544,1.069208,-5.600000,40.880001,-76.230003,21.96
7325465,-0.342088,-0.044896,1.092632,9.380000,37.730000,-70.209999,21.95
7325476,-0.442616,-0.006344,1.071648,20.440001,9.100000,-56.630001,21.95
7325487,-0.217160,0.050752,1.114592,25.969999,23.870001,-41.790001,21.95
7325498,-0.286456,0.090280,1.120936,33.459999,9.240000,-28.280001,21.95
7325509,-0.230824,0.128832,1.114592,35.840000,4.480000,-13.090000,21.96
7325519,-0.249368,0.105896,1.106296,42.000000,-2.520000,4.760000,21.93
7325531,-0.211304,0.084424,1.098976,44.380001,-9.310000,18.200001,21.93
7325542,-0.202520,0.055144,1.088728,46.270000,-14.630000,33.529999,21.96
7325553,-0.189832,0.101504,1.107760,43.330002,-20.650000,45.570000,21.96
7325563,-0.210816,0.117608,1.126304,33.459999,-25.480000,55.790001,21.96
7325574,-0.222040,0.082960,1.131672,24.709999,-30.309999,62.650002,21.93
7325585,-0.222528,0.040016,1.106296,20.440001,-35.000000,70.419998,21.93
7325596,-0.213744,0.039528,1.077992,19.530001,-37.520000,75.949997,21.89
7325607,-0.205448,0.047824,1.068232,17.500000,-40.389999,79.589996,21.89
7325618,-0.192760,0.018056,1.060912,16.520000,-42.139999,82.529999,21.93
7325630,-0.181536,-0.002928,1.061888,17.219999,-42.279999,85.400002,21.91
7325641,-0.181048,-0.004392,1.051152,18.480000,-41.299999,86.940002,21.91
7325653,-0.175192,-0.025376,1.033096,20.090000,-40.810001,88.129997,21.94
7325664,-0.163480,-0.018544,1.026752,22.120001,-40.950001,88.410004,21.94
7325675,-0.153232,0.000976,1.014552,22.610001,-41.720001,87.639999,21.93
7325686,-0.127856,0.001952,1.002352,20.930000,-42.980000,86.309998,21.93
7325697,-0.094672,-0.007320,0.994544,19.670000,-43.959999,83.440002,21.91
7325708,-0.062464,0.020496,0.980880,15.890000,-44.099998,80.849998,21.95
7325719,-0.019520,0.016592,0.977464,14.350000,-44.029999,77.910004,21.95
7325730,0.033672,-0.036600,0.980880,17.430000,-42.349998,73.989998,21.97
7325741,0.041480,-0.039040,0.978928,23.940001,-40.950001,70.489998,21.97
7325752,0.056608,-0.049776,0.953064,30.590000,-39.200001,65.519997,21.95
7325763,0.096624,-0.028792,0.949160,32.270000,-39.759998,63.209999,21.96
7325774,0.123464,0.033672,0.936960,32.619999,-39.340000,60.200001,21.96
7325785,0.194224,0.098088,0.944768,26.110001,-37.660000,59.009998,21.98
7325796,0.235216,0.097600,0.947696,15.750000,-34.650002,55.299999,21.98
7325807,0.255712,0.045384,0.947208,8.190000,-32.130001,50.470001,21.96
7325818,0.283528,0.022448,0.935496,-0.350000,-33.599998,43.959999,21.96
7325829,0.326960,-0.033184,0.935496,7.840000,-28.559999,41.650002,21.96
7325840,0.349408,-0.017080,0.933056,9.590000,-27.510000,37.660000,21.94
7325851,0.385032,-0.002928,0.921832,9.170000,-27.090000,33.180000,21.94
7325862,0.435296,0.001464,0.931592,9.940000,-23.379999,29.330000,21.94
7325873,0.464088,0.020008,0.929152,5.810000,-21.490000,26.670000,21.95
7325884,0.510936,0.025864,0.929640,0.560000,-18.900000,22.680000,21.95
7325895,0.539240,0.022936,0.941352,-3.220000,-15.820000,17.780001,21.95
7325906,0.563152,0.002928,0.948184,-6.510000,-12.600000,15.680000,21.95
7325917,0.578768,0.012688,0.944280,-11.340000,-10.220000,12.110000,21.94
7325928,0.597800,0.020008,0.940864,-18.059999,-8.050000,8.540000,21.94
7325939,0.609512,0.004880,0.943304,-18.410000,-4.550000,4.830000,21.93
7325952,0.623176,-0.032208,0.949648,-10.850000,-0.560000,-0.210000,21.95
7325963,0.625128,-0.039528,0.977464,-5.950000,3.220000,-3.920000,21.95
7325974,0.610976,-0.004392,0.982832,-1.470000,5.740000,-7.140000,21.97
7325985,0.596824,0.044408,0.994056,-2.030000,7.770000,-8.400000,21.93
7325996,0.575840,0.064416,0.993080,-4.060000,10.500000,-10.780000,21.93
7326007,0.550952,0.069784,0.998936,-7.770000,12.110000,-12.740000,21.92
7326018,0.524112,0.063440,0.999912,-10.570000,14.350000,-14.350000,21.92
7326029,0.510448,0.057584,0.989176,-12.390000,15.960000,-16.940001,21.91
7326040,0.499224,0.018056,0.976000,-14.770000,17.990000,-19.740000,21.91
7326051,0.480680,-0.006344,0.960384,-14.980000,20.510000,-22.820000,21.96
7326062,0.459208,-0.010736,0.961848,-14.490000,22.680000,-27.020000,21.97
7326073,0.436272,-0.027328,0.952088,-13.370000,25.410000,-31.990000,21.97
7326084,0.415776,-0.050752,0.947696,-11.060000,28.000000,-37.799999,21.93
7326095,0.381616,-0.076128,0.950624,-1.120000,31.780001,-43.750000,21.93
7326106,0.332816,-0.081984,0.964288,8.470000,34.860001,-50.959999,21.96
7326117,0.292800,-0.072712,0.963312,17.990000,36.400002,-57.470001,21.93
7326128,0.245952,-0.051240,0.956968,23.170000,38.639999,-62.230000,21.93
7326139,0.191296,-0.022448,0.968192,22.330000,39.619999,-67.199997,21.95
7326150,0.149328,0.018544,0.983808,16.450001,39.970001,-71.540001,21.95
7326160,0.096136,0.056608,0.987224,2.240000,39.270000,-74.199997,21.93
7326171,0.058072,0.077104,0.977464,-16.730000,38.779999,-76.790001,21.93
7326182,0.023912,0.056608,0.977952,-30.450001,38.570000,-79.800003,21.90
7326193,-0.020984,0.036112,0.985272,-43.470001,39.060001,-83.580002,21.93
7326204,-0.072224,0.023912,0.996984,-50.889999,39.549999,-86.870003,21.93
7326216,-0.128832,0.003416,0.984784,-54.529999,40.250000,-90.440002,21.95
7326227,-0.156648,-0.039040,0.968680,-54.669998,42.000000,-93.379997,21.95
7326238,-0.207400,-0.090768,0.971120,-46.689999,43.400002,-96.459999,21.91
7326249,-0.294264,-0.060512,0.921832,-26.040001,51.869999,-96.110001,21.92
7326260,-0.220576,-0.027816,1.052616,-20.160000,40.250000,-102.129997,21.92
7326271,-0.384056,-0.083936,1.065304,-9.380000,34.160000,-97.019997,21.96
7326282,-0.383568,-0.033672,1.087752,9.380000,24.080000,-86.800003,21.96
7326294,-0.286944,0.029768,1.098976,17.850000,29.959999,-81.900002,21.94
7326305,-0.348432,0.045384,1.068720,31.360001,21.980000,-72.660004,21.94
7326315,-0.283040,0.105408,1.021872,39.549999,16.309999,-59.500000,21.94
7326327,-0.272792,0.186904,1.057496,39.970001,13.790000,-44.380001,21.94
7326338,-0.305488,0.225456,1.066280,35.070000,5.460000,-29.469999,21.94
7326349,-0.261568,0.239120,1.057496,24.010000,-1.330000,-10.150000,21.94
7326360,-0.223504,0.189832,1.057008,14.140000,-6.440000,8.050000,21.91
7326371,-0.203984,0.141032,1.059936,4.970000,-10.640000,23.730000,21.91
7326382,-0.211304,0.113216,1.085800,-1.330000,-15.610000,34.369999,21.96
7326393,-0.219600,0.061488,1.088240,-1.190000,-20.860001,45.009998,21.96
7326404,-0.220088,0.016592,1.066280,1.680000,-26.040001,53.830002,21.96
7326415,-0.212768,0.014152,1.057984,7.840000,-29.049999,61.250000,21.98
7326426,-0.230824,0.049288,1.052128,9.380000,-32.759998,65.800003,21.98
7326437,-0.235704,0.030256,1.049200,7.560000,-35.840000,71.050003,21.98
7326448,-0.243512,-0.000976,1.045296,8.470000,-38.009998,75.110001,21.98
7326459,-0.250344,-0.005368,1.043344,12.110000,-40.040001,78.120003,21.96
7326470,-0.236192,-0.020984,1.033096,14.840000,-41.090000,81.620003,21.93
7326481,-0.222040,-0.034648,1.003328,18.760000,-41.090000,83.019997,21.93
7326492,-0.193248,0.052216,0.968192,22.190001,-42.070000,84.279999,21.91
7326503,-0.142496,0.070272,0.956968,19.809999,-40.880001,83.930000,21.91
7326514,-0.112728,0.063928,0.984296,14.560000,-40.040001,80.989998,21.94
7326525,-0.125904,0.047824,1.036512,6.510000,-41.230000,78.260002,21.94
7326536,-0.134200,0.026840,1.050664,7.910000,-42.980000,76.510002,21.96
7326547,-0.118584,0.069296,1.052128,6.160000,-47.880001,76.510002,21.92
7326558,-0.088328,0.100040,1.019432,8.470000,-50.889999,77.209999,21.92
7326569,-0.003416,0.087352,0.981856,6.230000,-51.450001,76.440002,21.95
7326580,0.047824,0.036600,0.972584,1.680000,-50.889999,73.150002,21.95
7326591,0.097112,0.011224,0.977952,-0.420000,-50.189999,67.550003,21.94
7326602,0.125416,0.017080,0.988200,0.140000,-49.070000,62.439999,21.95
7326613,0.158600,0.018544,0.995032,7.560000,-47.880001,58.799999,21.95
7326624,0.216672,0.016592,0.976976,10.430000,-48.860001,56.000000,21.93
7326634,0.294752,0.013664,0.955992,7.070000,-47.950001,51.939999,21.93
7326645,0.367464,-0.004880,0.952088,3.920000,-45.639999,48.299999,21.93
7326656,0.423584,0.034648,0.966728,-1.470000,-43.750000,44.169998,21.93
7326667,0.440664,0.038552,0.967704,-8.400000,-42.419998,39.200001,21.90
7326678,0.496784,-0.007320,0.945256,-9.730000,-40.740002,35.630001,21.94
7326689,0.598288,-0.053192,0.923784,-6.300000,-37.380001,31.360001,21.94
7326701,0.661728,-0.043920,0.928176,-5.530000,-31.570000,26.040001,21.98
7326712,0.656360,0.001464,0.939400,-3.360000,-28.280001,20.860001,21.98
7326722,0.687592,-0.007320,0.947696,-4.060000,-25.200001,17.500000,21.96
7326733,0.724192,-0.022448,0.935984,-5.740000,-21.559999,13.790000,21.93
7326744,0.750056,0.005368,0.927200,-8.260000,-18.760000,11.060000,21.93
7326755,0.787144,0.006832,0.936960,-13.090000,-16.100000,9.870000,21.93
7326766,0.823744,-0.010248,0.961360,-17.920000,-11.480000,6.650000,21.93
7326778,0.807152,0.018544,0.954040,-25.129999,-7.910000,4.690000,21.90
7326789,0.802760,0.011224,0.948672,-29.400000,-5.180000,3.150000,21.92
7326799,0.798856,-0.021472,0.941840,-29.049999,-0.910000,0.770000,21.92
7326810,0.768600,-0.053192,0.945256,-22.610001,2.800000,-3.220000,21.95
7326821,0.741272,-0.106872,0.948184,-12.460000,7.140000,-8.120000,21.95
7326832,0.711992,-0.117608,0.947696,0.350000,10.220000,-12.110000,21.95
7326843,0.688080,-0.090280,0.927688,10.220000,12.880000,-15.190000,21.95
7326854,0.671000,-0.069784,0.921344,14.490000,17.010000,-20.510000,21.95
7326865,0.630984,-0.054656,0.932080,17.080000,19.809999,-25.340000,21.92
7326876,0.580232,-0.032696,0.933544,14.280000,22.680000,-28.700001,21.92
7326887,0.540216,-0.002928,0.920856,8.750000,24.920000,-32.689999,21.91
7326898,0.509960,-0.010736,0.911584,0.770000,28.840000,-37.520000,21.91
7326909,0.467016,-0.003416,0.906704,-5.810000,31.080000,-42.209999,21.95
7326920,0.426512,0.011224,0.898896,-15.260000,34.790001,-46.549999,21.95
7326931,0.374784,-0.043432,0.903288,-21.490000,38.990002,-52.290001,21.95
7326942,0.335744,-0.068320,0.891576,-24.639999,42.349998,-59.150002,21.95
7326954,0.286944,-0.088816,0.882792,-24.430000,46.270000,-64.820000,21.95
7326965,0.224968,-0.100040,0.874984,-16.100000,52.150002,-73.290001,21.93
7326976,0.149816,-0.093208,0.892552,-8.260000,57.610001,-80.500000,21.91
7326987,0.069784,-0.075640,0.896456,-2.170000,61.180000,-87.290001,21.91
7326998,-0.009760,-0.040992,0.894504,-4.620000,62.509998,-89.389999,21.95
7327009,-0.051728,-0.088328,0.841312,2.940000,71.120003,-92.400002,21.95
7327020,-0.132736,0.017568,0.934520,-19.320000,63.770000,-94.430000,21.93
7327031,-0.157624,0.009272,0.954040,-24.920000,66.919998,-93.940002,21.93
7327042,-0.219112,0.018056,1.115080,-44.869999,62.090000,-95.339996,21.93
7327053,-0.264984,-0.013664,1.021384,-47.529999,65.449997,-98.559998,21.90
7327064,-0.575840,0.003904,0.915488,-59.220001,17.010000,-90.019997,21.90
7327075,-0.132248,-0.044896,0.972584,-60.340000,63.279999,-93.870003,21.97
7327087,-0.393328,-0.046848,0.999424,-54.810001,44.660000,-87.989998,21.92
7327098,-0.315248,-0.034648,0.992592,-52.570000,45.500000,-86.589996,21.92
7327109,-0.397720,-0.105896,1.007232,-41.720001,41.439999,-78.120003,21.96
7327120,-0.365512,-0.118584,1.047736,-23.940001,30.170000,-68.320000,21.96
7327131,-0.303536,-0.108824,1.082872,-0.840000,29.540001,-57.610001,21.96
7327142,-0.317200,-0.057584,1.073600,21.629999,18.620001,-48.299999,21.92
7327153,-0.264008,-0.004880,1.087752,39.480000,11.970000,-33.110001,21.92
7327164,-0.242048,0.025376,1.073112,46.689999,6.860000,-18.549999,21.91
7327175,-0.244488,0.027816,1.055544,49.980000,1.470000,-0.560000,21.91
7327186,-0.239120,0.034648,1.057008,49.209999,-6.860000,14.490000,21.95
7327197,-0.239608,0.057584,1.059448,46.480000,-13.860000,30.240000,21.95
7327208,-0.234240,0.101504,1.080432,41.160000,-19.110001,44.869999,21.93
7327219,-0.243512,0.122000,1.100928,32.410000,-26.110001,54.669998,21.92
7327230,-0.252296,0.087352,1.102392,25.549999,-31.219999,66.639999,21.92
7327241,-0.256200,0.003416,1.094096,20.440001,-35.139999,75.459999,21.90
7327252,-0.277184,-0.018056,1.097512,24.080000,-39.060001,80.779999,21.90
7327263,-0.312808,0.024888,1.088240,24.430000,-44.169998,86.449997,21.98
7327274,-0.314272,-0.020008,1.069696,26.530001,-45.779999,90.930000,21.91
7327285,-0.311832,-0.043432,1.045296,32.200001,-47.810001,94.500000,21.91
7327296,-0.274744,-0.011224,1.019920,34.580002,-49.139999,97.230003,21.92
7327307,-0.239608,-0.008296,1.039440,33.459999,-48.930000,98.769997,21.92
7327318,-0.251320,0.039040,1.064328,29.260000,-51.730000,98.629997,21.93
7327329,-0.219600,0.050264,1.055544,20.230000,-55.860001,97.160004,21.91
7327340,-0.179096,0.020496,1.008696,14.350000,-57.259998,95.760002,21.91
7327351,-0.093696,0.035136,0.979416,13.440000,-57.470001,94.849998,21.98
7327362,-0.048800,0.055144,0.961848,7.700000,-56.840000,93.449997,21.98
7327373,-0.031720,0.039040,0.968192,4.620000,-54.880001,72.449997,22.00
7327384,-0.013176,-0.034648,0.995520,7.840000,-51.660000,83.440002,22.00
7327395,-0.014152,-0.072712,1.023336,17.780001,-50.680000,77.559998,21.96
7327406,0.021960,-0.041480,0.984784,31.430000,-52.990002,74.199997,21.96
7327417,0.131760,0.004392,0.933544,38.779999,-55.230000,72.589996,21.96
7327428,0.238632,0.068808,0.918416,33.110001,-53.060001,69.720001,21.97
7327439,0.303536,0.108824,0.906216,18.969999,-50.540001,66.010002,21.97
7327450,0.355264,0.084424,0.906216,2.590000,-46.900002,61.740002,21.92
7327461,0.380152,0.009760,0.917928,-6.440000,-43.750000,55.790001,21.94
7327472,0.401136,-0.038064,0.922320,-7.700000,-43.610001,50.470001,21.94
7327483,0.485560,-0.075640,0.899872,0.070000,-42.700001,45.500000,21.98
7327494,0.583160,-0.130784,0.886208,12.320000,-40.110001,38.849998,21.98
7327505,0.664168,-0.151280,0.863760,20.160000,-35.209999,31.150000,21.93
7327516,0.693936,-0.110776,0.897920,24.570000,-30.590000,24.709999,21.91
7327527,0.722240,-0.051240,0.894992,23.590000,-26.950001,21.420000,21.91
7327538,0.764696,0.018544,0.955504,16.520000,-26.389999,18.549999,21.91
7327549,0.822280,0.007808,0.943792,10.570000,-20.860001,17.080000,21.91
7327560,0.852536,0.006832,0.951600,0.770000,-18.340000,15.750000,21.94
7327570,0.884256,0.002440,0.928176,-9.590000,-15.820000,14.420000,21.94
7327581,0.900848,0.016592,0.955992,-19.320000,-12.250000,13.020000,21.95
7327592,0.911584,-0.012688,0.957456,-26.740000,-8.470000,11.480000,21.87
7327603,0.903776,-0.049776,0.961848,-31.360001,-4.900000,8.890000,21.87
7327614,0.885232,-0.094184,0.962824,-30.379999,-0.070000,5.670000,21.89
7327625,0.847656,-0.086376,0.967216,-29.820000,2.870000,3.010000,21.89
7327636,0.815448,-0.089792,0.974048,-30.799999,4.970000,0.210000,21.96
7327647,0.784704,-0.097112,0.966240,-31.780001,7.910000,-4.060000,21.93
7327658,0.759328,-0.150304,0.946232,-27.580000,10.220000,-8.750000,21.93
7327669,0.742736,-0.182512,0.922808,-19.250000,14.000000,-12.950000,21.94
7327680,0.702720,-0.187880,0.903776,-10.710000,18.690001,-19.389999,21.94
7327691,0.676856,-0.202520,0.891088,-2.450000,24.290001,-26.670000,21.93
7327703,0.499712,-0.191784,0.893040,9.660000,29.190001,-33.810001,21.95
7327714,0.558760,-0.122488,0.893040,15.890000,31.990000,-38.220001,21.95
7327725,0.486048,-0.052704,0.895968,14.840000,33.810001,-43.119999,21.97
7327736,0.436760,-0.009272,0.893040,11.060000,36.189999,-47.250000,21.97
7327747,0.387472,0.009272,0.872544,3.570000,38.080002,-50.400002,21.92
7327758,0.352824,0.020496,0.750056,-7.630000,42.070000,-54.810001,21.94
7327769,0.297192,-0.001464,0.858392,-15.610000,45.430000,-58.660000,21.94
7327780,0.257664,-0.034648,0.849120,-23.240000,50.259998,-63.770000,21.91
7327791,0.194224,-0.058560,0.857416,-27.650000,53.130001,-67.480003,21.91
7327802,0.150792,-0.076128,0.855952,-30.799999,55.580002,-73.150002,21.92
7327813,0.109312,-0.111264,0.847168,-21.280001,62.160000,-77.419998,21.92
7327824,0.045384,-0.095648,0.887672,-31.150000,58.590000,-85.470001,21.96
7327835,0.007320,-0.102480,0.902800,-27.160000,61.320000,-89.250000,21.91
7327846,-0.061488,-0.116144,0.926712,-18.969999,62.930000,-95.480003,21.91
7327857,-0.121024,-0.111752,0.916952,-6.230000,65.029999,-102.550003,21.95
7327868,-0.173240,-0.025376,0.903776,6.020000,64.959999,-106.330002,21.95
7327880,-0.251320,0.027816,0.907680,5.460000,63.560001,-107.379997,21.93
7327890,-0.347944,0.109800,0.917928,6.720000,77.839996,-113.400002,21.91
7327901,-0.291336,0.063928,1.067256,-10.570000,69.370003,-108.849998,21.91
7327912,-0.416264,0.066368,1.064816,-23.799999,48.160000,-101.919998,21.97
7327924,-0.415288,0.097600,1.077992,-28.350000,38.779999,-93.940002,21.97
7327934,-0.332328,0.071736,1.086776,-29.889999,41.439999,-85.190002,21.93
7327946,-0.379664,0.057584,1.090680,-18.620001,31.709999,-75.180000,21.89
7327957,-0.318664,0.054168,1.106296,-9.310000,32.060001,-67.339996,21.89
7327968,-0.354776,0.021472,1.100928,2.240000,24.500000,-56.000000,21.93
7327979,-0.324032,0.014152,1.088728,11.900000,16.660000,-42.000000,21.93
7327989,-0.328912,0.045872,1.061888,20.299999,10.570000,-28.420000,21.91
7328000,-0.284016,0.077592,1.064328,26.879999,5.180000,-14.350000,21.89
7328011,-0.249368,0.077592,1.063840,28.139999,-3.010000,3.010000,21.89
7328022,-0.230824,0.100528,1.087752,24.850000,-7.210000,18.830000,21.96
7328033,-0.242048,0.094672,1.108248,21.139999,-14.630000,29.889999,21.96
7328044,-0.237656,0.074176,1.122888,18.549999,-20.090000,41.509998,21.98
7328055,-0.242536,0.048312,1.110200,18.760000,-25.969999,52.430000,21.98
7328066,-0.234728,0.031720,1.102880,18.129999,-29.260000,61.250000,21.95
7328077,-0.243512,0.021960,1.107272,16.240000,-33.669998,66.849998,21.98
7328088,-0.261568,0.044896,1.093120,14.840000,-37.660000,72.029999,21.98
7328099,-0.259128,0.041480,1.078968,11.060000,-40.529999,78.050003,21.96
7328110,-0.270840,0.006832,1.065304,10.780000,-42.700001,81.550003,21.96
7328121,-0.218136,-0.015128,1.056032,14.350000,-45.849998,84.769997,21.94
7328132,-0.189344,-0.026840,1.062864,17.639999,-46.619999,85.330002,21.92
7328143,-0.180560,-0.039528,1.047736,21.490000,-46.970001,84.489998,21.92
7328154,-0.161040,-0.039040,1.030656,24.150000,-46.759998,82.529999,21.95
7328165,-0.125904,-0.016104,0.996984,25.480000,-46.830002,79.239998,21.95
7328177,-0.121024,-0.003904,0.974536,24.709999,-51.099998,79.519997,21.93
7328187,-0.009272,0.012688,0.964288,22.540001,-50.750000,78.750000,21.93
7328198,0.040504,0.045872,0.950624,17.570000,-48.160000,75.809998,21.93
7328211,0.084424,0.024888,0.932080,15.610000,-44.310001,71.400002,21.94
7328222,0.109312,-0.019032,0.934032,17.290001,-40.880001,68.949997,21.94
7328233,0.130784,-0.014152,0.940864,18.760000,-38.360001,64.540001,21.93
7328244,0.163968,-0.002440,0.939888,21.629999,-37.869999,60.130001,21.95
7328255,0.234240,-0.010248,0.955016,26.879999,-36.540001,56.840000,21.95
7328266,0.240584,0.052216,0.971608,28.700001,-34.160000,52.009998,21.93
7328277,0.244488,0.144936,0.956480,22.260000,-33.320000,49.770000,21.93
7328287,0.259616,0.138592,0.960872,10.780000,-33.180000,48.299999,21.96
7328298,0.259616,0.076616,0.970632,6.860000,-33.599998,45.779999,21.96
7328309,0.287920,0.061488,0.959896,5.600000,-34.650002,44.520000,21.89
7328320,0.350872,0.043432,0.933544,8.190000,-33.810001,42.490002,21.95
7328332,0.424072,0.007808,0.899872,11.690000,-31.850000,39.759998,21.95
7328342,0.503128,-0.022936,0.884744,14.490000,-28.490000,35.980000,21.91
7328353,0.538264,0.114680,0.917928,17.639999,-25.900000,30.940001,21.91
7328364,0.566080,0.059048,0.976000,4.340000,-28.139999,28.000000,21.92
7328375,0.603656,0.019032,0.970632,12.040000,-22.190001,25.129999,21.91
7328386,0.630496,-0.002440,0.953552,8.890000,-22.260000,21.910000,21.91
7328397,0.683200,0.017080,0.942816,1.540000,-19.040001,20.650000,21.96
7328408,0.708576,0.017568,0.942328,-5.110000,-16.730000,17.080000,21.96
7328419,0.727120,-0.002928,0.948672,-10.640000,-14.700000,12.950000,21.99
7328430,0.743224,-0.024888,0.972584,-14.910000,-12.250000,8.610000,21.91
7328441,0.752496,-0.054656,0.971608,-16.870001,-10.010000,5.740000,21.91
7328452,0.754936,-0.034648,0.955016,-19.389999,-8.050000,3.990000,21.93
7328463,0.762744,-0.000488,0.940864,-27.440001,-5.460000,2.310000,21.93
7328474,0.762256,-0.024400,0.943304,-31.780001,-0.420000,-0.070000,21.97
7328485,0.733952,-0.064416,0.959408,-27.580000,3.150000,-3.360000,21.97
7328496,0.712968,-0.080520,0.998448,-22.750000,6.510000,-7.070000,21.92
7328508,0.668072,-0.070272,1.000888,-14.560000,9.310000,-10.850000,21.95
7328519,0.654408,-0.087840,0.989176,-5.880000,11.480000,-14.770000,21.95
7328530,0.631960,-0.101992,0.978440,5.530000,14.910000,-18.830000,21.95
7328541,0.598776,-0.064416,0.984296,11.130000,17.010000,-23.030001,21.95
7328552,0.563640,-0.012200,0.969656,10.640000,18.340000,-25.969999,21.92
7328563,0.530944,0.020496,0.964288,6.510000,19.740000,-28.209999,21.94
7328574,0.504104,0.046360,0.957944,1.050000,21.000000,-31.080000,21.94
7328584,0.487512,0.032208,0.939400,-6.580000,22.680000,-34.860001,21.91
7328596,0.461648,0.004392,0.930616,-9.310000,26.670000,-38.709999,21.91
7328607,0.404552,-0.020496,0.927688,-2.730000,30.450001,-44.450001,21.96
7328618,0.349896,-0.009272,0.941352,3.430000,33.110001,-49.840000,21.92
7328629,0.304024,-0.015128,0.947208,9.800000,35.209999,-54.950001,21.92
7328640,0.256688,0.002440,0.939888,13.440000,36.959999,-58.590000,21.95
7328652,0.201544,0.028792,0.943792,10.920000,38.009998,-63.209999,21.95
7328663,0.166896,0.049288,0.939400,2.100000,38.709999,-66.080002,21.96
7328674,0.132736,0.055144,0.924760,-7.910000,40.180000,-69.650002,21.92
7328685,0.101992,0.046360,0.898896,-19.950001,42.209999,-72.870003,21.92
7328696,0.066856,0.038552,0.890600,-30.799999,45.570000,-75.529999,21.93
7328707,0.012688,0.009760,0.894016,-39.759998,47.950001,-79.029999,21.93
7328718,-0.026352,-0.026840,0.884256,-42.279999,50.259998,-82.809998,21.93
7328729,-0.060024,-0.057096,0.879376,-42.700001,52.500000,-86.449997,21.93
7328741,-0.188856,-0.074176,0.924272,-33.040001,63.139999,-81.760002,21.93
7328752,-0.094184,-0.072712,1.000400,-21.490000,64.540001,-97.230003,21.95
7328763,-0.292800,-0.079056,1.024800,-6.440000,54.250000,-96.949997,21.95
7328774,-0.324032,-0.049288,1.062864,4.130000,47.880001,-93.449997,21.93
7328785,-0.337696,-0.036600,1.119472,9.030000,46.410000,-90.930000,21.93
7328797,-0.418704,0.003416,1.120448,16.030001,34.790001,-81.550003,21.93
7328808,-0.351848,0.078568,1.118008,16.240000,29.049999,-74.269997,21.94
7328819,-0.356240,0.185928,1.087264,12.810000,20.299999,-64.330002,21.94
7328830,-0.295728,0.190808,1.026752,5.390000,13.860000,-51.099998,21.93
7328842,-0.266936,0.131272,0.994544,3.500000,10.290000,-38.779999,21.90
7328853,-0.249368,0.107360,1.014552,2.170000,6.300000,-24.290001,21.90
7328864,-0.240584,0.064416,1.035536,4.060000,2.730000,-13.440000,21.92
7328875,-0.234728,0.095160,1.078480,5.390000,0.630000,0.210000,21.92
7328886,-0.257664,0.068320,1.094584,9.450000,-7.980000,18.200001,21.96
7328897,-0.245952,0.061488,1.103368,15.050000,-18.410000,31.500000,21.94
7328908,-0.231800,0.093208,1.088240,13.510000,-24.010000,42.980000,21.94
7328919,-0.242536,0.101016,1.070184,11.340000,-30.100000,54.250000,21.92
7328930,-0.230336,0.104432,1.053592,9.940000,-33.740002,63.770000,21.92
7328941,-0.223504,0.096624,1.030656,8.960000,-35.349998,69.089996,21.92
7328952,-0.225944,0.063928,1.031632,8.400000,-35.770000,74.339996,21.92
7328963,-0.243024,0.011712,1.031144,10.640000,-36.680000,77.349998,21.92
7328974,-0.245464,0.122976,1.034072,16.870001,-37.730000,80.500000,21.90
7328985,-0.229360,0.045872,1.028216,17.570000,-40.320000,84.000000,21.90
7328996,-0.172752,0.038064,1.025776,16.799999,-42.980000,85.959999,21.94
7329007,-0.163968,0.040016,1.028216,14.840000,-44.799999,85.959999,21.94
7329018,-0.119560,0.033672,1.016016,10.780000,-46.970001,84.699997,21.93
7329029,-0.057096,0.037576,0.996496,5.530000,-48.090000,80.849998,21.91
7329040,-0.051728,0.058072,0.974536,1.120000,-50.959999,80.010002,21.91
7329051,-0.010248,0.051728,0.957944,-2.380000,-47.529999,78.680000,21.96
7329062,0.028304,0.013664,0.947208,-3.500000,-44.939999,76.930000,21.96
7329073,0.097600,-0.004392,0.945256,-2.520000,-42.349998,74.269997,21.96
7329084,0.161528,-0.043920,0.949160,3.500000,-39.130001,70.070000,21.95
7329095,0.201056,-0.033672,0.962824,10.920000,-36.470001,63.910000,21.95
7329106,0.238632,-0.014152,0.955016,16.170000,-35.700001,58.869999,21.96
7329117,0.293288,-0.030256,0.933056,17.010000,-32.480000,52.220001,21.96
7329128,0.327448,-0.026840,0.904264,15.470000,-30.379999,47.740002,21.95
7329139,0.368440,-0.004880,0.897432,10.290000,-29.400000,43.889999,21.95
7329150,0.438224,-0.009760,0.922320,4.620000,-26.879999,40.669998,21.95
7329161,0.451888,-0.002928,0.959408,-2.100000,-23.799999,35.209999,21.95
7329172,0.476288,0.015616,0.976488,-4.620000,-21.980000,31.430000,21.95
7329183,0.524112,-0.001952,0.976976,-6.370000,-21.070000,28.070000,21.96
7329194,0.574864,-0.029768,0.975024,-6.720000,-18.549999,22.820000,21.96
7329205,0.579744,-0.037088,0.981856,-5.040000,-17.010000,17.920000,21.96
7329216,0.594384,-0.031720,0.996008,-3.920000,-15.470000,14.490000,21.93
7329227,0.597312,-0.025376,0.988200,-4.340000,-13.860000,11.410000,21.93
7329239,0.627080,-0.019520,0.992592,-6.300000,-12.040000,9.870000,21.96
7329250,0.627080,0.018056,1.005280,-11.060000,-10.710000,6.860000,21.96
7329260,0.650504,0.026840,0.997960,-18.410000,-9.240000,5.530000,21.96
7329271,0.672952,-0.004880,0.991616,-23.240000,-6.580000,3.150000,21.93
7329282,0.689544,-0.013664,0.992104,-27.299999,-3.710000,0.840000,21.93
7329293,0.685640,-0.030744,0.996496,-31.709999,-1.120000,-1.750000,21.93
7329305,0.676368,-0.050752,0.996496,-29.680000,2.380000,-4.550000,21.93
7329316,0.658800,-0.084912,0.990152,-21.000000,5.600000,-7.840000,21.96
7329327,0.654896,-0.111264,1.010648,-10.500000,10.080000,-12.040000,21.91
7329338,0.619272,-0.104432,1.023336,2.170000,11.620000,-15.470000,21.91
7329349,0.597800,-0.053680,1.010648,8.260000,13.440000,-17.709999,21.95
7329360,0.577304,-0.026840,0.984784,8.750000,16.030001,-20.860001,21.95
7329371,0.563152,-0.020496,0.977464,6.580000,18.549999,-23.590000,21.95
7329382,0.531920,-0.009760,0.969168,2.730000,21.280001,-25.270000,21.92
7329392,0.503128,-0.000488,0.948672,-0.980000,24.290001,-28.559999,21.92
7329403,0.478728,0.000488,0.938912,-7.560000,26.180000,-31.639999,21.93
7329414,0.445544,-0.008296,0.925736,-13.930000,28.840000,-35.279999,21.93
7329425,0.417240,-0.032696,0.908168,-19.530001,31.219999,-39.689999,21.95
7329437,0.388448,-0.056608,0.890112,-23.730000,34.650002,-45.080002,21.95
7329448,0.366000,-0.081008,0.864248,-27.510000,37.450001,-51.240002,21.97
7329459,0.315248,-0.095160,0.872056,-30.660000,40.669998,-56.070000,21.93
7329470,0.254248,-0.133712,0.892064,-29.120001,44.240002,-63.419998,21.93
7329481,0.199592,-0.138592,0.902312,-25.270000,47.669998,-70.559998,21.95
7329492,0.155672,-0.143472,0.889136,-20.299999,50.049999,-77.070000,21.95
7329503,0.091256,-0.127368,0.866688,-14.840000,53.130001,-81.760002,21.92
7329514,0.034648,-0.098088,0.867664,-12.810000,55.720001,-87.010002,21.93
7329525,-0.027816,-0.092720,0.874984,-12.040000,58.660000,-91.910004,21.93
7329536,-0.080520,-0.052704,0.885720,-14.770000,60.130001,-95.339996,21.93
7329548,-0.134688,-0.146400,0.895968,6.160000,72.589996,-97.019997,21.93
7329559,-0.219600,0.040504,0.940864,-25.129999,58.240002,-101.849998,21.93
7329570,-0.255224,-0.010248,0.964776,-26.740000,56.910000,-102.129997,21.94
7329581,-0.297680,-0.103944,1.034072,-20.580000,25.760000,-95.620003,21.94
7329592,-0.210816,-0.051728,1.057008,-16.940001,58.730000,-102.269997,21.92
7329603,-0.383080,-0.050752,1.038464,-7.210000,41.230000,-100.239998,21.92
7329614,-0.366488,-0.043432,1.037000,1.540000,33.950001,-93.519997,21.95
7329625,-0.285480,-0.054656,1.031632,8.400000,35.700001,-84.769997,21.92
7329636,-0.358192,-0.004392,1.065304,16.799999,24.850000,-75.320000,21.92
7329648,-0.270840,0.052216,1.084336,27.790001,25.059999,-64.120003,21.97
7329662,-0.270840,0.231800,1.103856,35.139999,16.450001,-43.259998,21.89
7329680,-0.233264,0.154208,1.100440,30.170000,5.880000,-17.290001,21.93
7329693,-0.214720,0.109312,1.110200,20.790001,-2.030000,3.570000,21.93
7329710,-0.216184,0.083448,1.126792,10.640000,-11.130000,24.780001,21.94
7329722,-0.220088,0.027816,1.110200,10.360000,-17.920000,37.520000,21.93
7329737,-0.209840,0.035624,1.100928,11.830000,-25.270000,50.750000,21.96
7329748,-0.212768,0.015616,1.097512,9.870000,-29.680000,56.770000,21.96
7329765,-0.220088,-0.038064,1.108736,10.220000,-35.000000,66.010002,21.94
7329777,-0.236192,-0.024400,1.102392,14.490000,-39.060001,70.910004,21.95
7329789,-0.220576,-0.010736,1.073600,18.129999,-42.630001,74.830002,21.95
7329800,-0.218136,-0.023912,1.037488,22.190001,-43.330002,77.000000,21.95
7329811,-0.206912,-0.004880,1.018456,23.590000,-43.540001,79.940002,21.93
7329825,-0.177144,0.005368,1.034560,19.809999,-43.889999,82.389999,21.93
7329836,-0.192760,0.014640,1.046272,14.840000,-45.150002,82.180000,21.92
7329847,-0.196664,0.021472,1.041392,13.370000,-47.599998,82.459999,21.92
7329858,-0.175192,0.009760,1.001864,12.670000,-50.189999,83.019997,21.93
7329869,-0.068320,0.019520,0.978440,10.850000,-52.570000,82.110001,21.96
7329880,-0.011224,0.004880,0.956480,10.290000,-51.590000,78.959999,21.96
7329891,0.023424,-0.032208,0.960872,14.490000,-49.349998,73.849998,21.94
7329902,0.044896,-0.038552,0.973072,18.410000,-46.900002,69.930000,21.94
7329913,0.036600,-0.040016,0.978440,21.490000,-45.009998,63.840000,21.88
7329924,0.047824,-0.023912,0.943304,24.150000,-45.639999,61.110001,21.91
7329935,0.104920,0.017568,0.915976,20.930000,-48.930000,61.320000,21.91
7329946,0.199592,0.058072,0.889136,14.420000,-47.250000,59.009998,21.91
7329957,0.277184,0.054656,0.894504,6.790000,-43.680000,55.090000,21.91
7329968,0.298656,0.027816,0.922320,5.390000,-39.689999,48.860001,21.96
7329979,0.331840,0.000000,0.929640,7.910000,-35.490002,44.380001,21.96
7329989,0.390888,-0.036112,0.907680,10.220000,-32.830002,41.439999,21.96
7330000,0.435784,-0.028792,0.895480,14.420000,-30.450001,38.709999,21.93
7330011,0.492392,0.024400,0.886208,10.010000,-27.370001,36.259998,21.93
7330022,0.523624,0.029280,0.914512,1.890000,-24.500000,33.040001,21.91
7330033,0.531432,0.029280,0.955992,-2.940000,-22.540001,28.000000,21.91
7330044,0.571936,0.037576,0.957944,-5.670000,-21.000000,25.620001,21.95
7330055,0.645136,0.007808,0.957456,-7.490000,-18.830000,23.799999,21.93
7330066,0.684176,-0.017080,0.957944,-8.750000,-14.700000,19.740000,21.93
7330077,0.699792,-0.012200,0.970144,-9.660000,-10.710000,16.730000,21.94
7330088,0.722240,-0.028304,0.969656,-8.120000,-7.420000,13.020000,21.94
7330099,0.734440,-0.017568,0.983320,-9.310000,-4.130000,10.290000,21.93
7330110,0.726144,0.015128,0.995032,-12.950000,-1.050000,8.470000,21.91
7330121,0.723704,0.026352,0.994056,-20.930000,0.910000,7.490000,21.91
7330132,0.698328,0.006832,1.000888,-25.760000,3.710000,4.830000,21.92
7330143,0.672464,-0.044408,1.011624,-25.830000,5.390000,1.260000,21.92
7330154,0.658312,-0.067344,1.012112,-22.190001,8.050000,-2.100000,21.96
7330165,0.624152,-0.084912,1.003328,-17.709999,10.500000,-6.440000,21.96
7330176,0.607560,-0.093208,0.997960,-10.430000,12.320000,-9.870000,21.93
7330187,0.603168,-0.088816,0.980392,-3.850000,15.750000,-13.370000,21.96
7330198,0.583648,-0.120536,0.981856,3.920000,20.230000,-18.549999,21.96
7330209,0.551928,-0.090280,0.983808,7.490000,23.730000,-22.540001,21.97
7330220,0.523624,-0.042944,0.971608,3.780000,25.969999,-25.969999,21.97
7330231,0.494832,-0.044896,0.953064,-2.030000,29.190001,-29.400000,21.93
7330242,0.456280,-0.061000,0.955016,-7.350000,32.410000,-34.439999,21.93
7330253,0.417728,-0.091744,0.957456,-9.100000,35.490002,-40.529999,21.93
7330264,0.372832,-0.101992,0.941352,-9.800000,37.730000,-45.990002,21.91
7330276,0.318664,-0.099552,0.925736,-10.360000,40.669998,-52.290001,21.91
7330287,0.278160,-0.104432,0.899872,-11.690000,43.889999,-58.799999,21.92
7330298,0.223504,-0.122488,0.892064,-12.320000,48.230000,-64.260002,21.88
7330309,0.159088,-0.132736,0.921832,-9.520000,52.290001,-71.820000,21.88
7330320,0.087840,-0.090768,0.953064,-5.530000,53.830002,-77.910004,21.96
7330331,0.011712,-0.060512,0.957944,-3.150000,53.480000,-80.779999,21.96
7330342,-0.025864,-0.059048,0.934032,0.000000,53.130001,-84.910004,21.93
7330353,-0.056120,-0.007808,0.921344,-0.630000,53.480000,-86.589996,21.94
7330365,-0.114680,-0.001952,0.966728,-6.720000,53.549999,-88.129997,21.94
7330376,-0.172752,0.018056,0.984296,-12.320000,52.360001,-89.320000,21.94
7330387,-0.207888,0.043432,0.983808,-20.510000,50.959999,-89.389999,21.94
7330398,-0.303536,0.040016,0.971608,-33.180000,54.180000,-88.620003,21.95
7330409,-0.196176,0.006832,1.040904,-43.259998,47.320000,-89.110001,21.91
7330420,-0.322568,-0.032696,1.033584,-44.240002,40.599998,-84.489998,21.91
7330431,-0.337208,-0.080520,1.047248,-31.990000,29.750000,-77.980003,21.92
7330443,-0.309392,-0.123464,1.035536,-7.280000,35.419998,-78.330002,21.92
7330454,-0.327936,-0.072224,0.978928,14.770000,25.760000,-67.900002,21.94
7330467,-0.263032,0.009272,0.982344,36.119999,24.080000,-58.029999,21.95
7330478,-0.300120,0.026352,1.016992,43.189999,19.809999,-48.860001,21.95
7330489,-0.291824,0.106384,1.057008,41.650002,10.920000,-35.209999,21.97
7330500,-0.268888,0.134688,1.081896,35.560001,5.040000,-19.459999,21.97
7330515,-0.218136,0.134688,1.068720,20.370001,-3.850000,-0.910000,21.93
7330526,-0.191296,0.099064,1.060912,13.230000,-8.190000,12.740000,21.92
7330537,-0.191784,0.091744,1.083360,6.510000,-11.830000,23.450001,21.92
7330548,-0.209840,0.028304,1.091168,7.420000,-16.940001,30.170000,21.92
7330559,-0.206912,-0.005856,1.080432,13.020000,-22.049999,38.290001,21.90
7330570,-0.214720,-0.032208,1.060424,17.290001,-27.440001,44.520000,21.90
7330581,-0.229848,0.009760,1.057008,20.230000,-30.030001,50.820000,21.97
7330592,-0.224480,0.052216,1.051640,17.780001,-33.880001,55.930000,21.97
7330603,-0.214232,0.044896,1.066280,13.790000,-35.980000,61.740002,21.93
7330614,-0.216184,0.058072,1.078968,11.900000,-38.009998,66.849998,21.90
7330625,-0.211304,0.029768,1.066280,12.530000,-38.990002,69.720001,21.90
7330636,-0.209352,0.010736,1.049688,12.460000,-40.459999,72.379997,21.99
7330647,-0.219600,-0.001464,1.032120,13.440000,-43.189999,73.080002,21.99
7330658,-0.141032,0.006344,0.998936,15.330000,-45.290001,74.830002,21.96
7330669,-0.095648,0.012688,0.990152,17.219999,-44.869999,73.570000,21.91
7330680,-0.078080,0.047336,0.982832,18.620001,-44.380001,71.330002,21.91
7330691,-0.071248,0.038064,0.992104,14.420000,-45.570000,70.139999,21.90
7330702,-0.065392,-0.006832,1.007720,13.720000,-45.709999,67.480003,21.90
7330713,-0.057584,-0.002928,0.992592,15.540000,-48.369999,64.820000,21.94
7330724,0.025376,0.025376,0.959408,17.219999,-50.680000,64.400002,21.94
7330735,0.096624,0.042456,0.919392,19.040001,-48.650002,62.230000,21.94
7330746,0.187880,0.048800,0.918416,14.420000,-44.590000,60.130001,21.93
7330757,0.229848,0.003416,0.935496,10.220000,-40.110001,55.580002,21.93
7330768,0.220088,0.003904,0.972096,7.070000,-38.009998,51.939999,21.93
7330778,0.202520,0.072712,1.020896,2.030000,-38.150002,49.980000,21.93
7330789,0.191784,0.074664,1.038952,1.540000,-39.549999,47.950001,21.94
7330800,0.294264,0.027816,1.003328,2.870000,-40.810001,46.830002,21.96
7330811,0.402600,-0.007808,0.969656,1.610000,-39.340000,43.259998,21.96
7330822,0.454816,-0.041968,0.940864,1.610000,-35.770000,36.540001,21.87
7330833,0.503616,-0.031720,0.923296,1.680000,-32.130001,32.410000,21.87
7330844,0.552904,-0.041480,0.926224,2.240000,-28.490000,26.879999,21.94
7330855,0.580232,-0.006832,0.944280,1.330000,-25.200001,23.660000,21.94
7330865,0.609024,-0.005368,0.971120,-2.170000,-23.520000,21.139999,21.96
7330877,0.646112,-0.005368,0.976000,-7.840000,-20.860001,18.620001,21.91
7330888,0.670024,0.008296,0.979904,-11.970000,-18.270000,15.330000,21.91
7330899,0.698816,0.033672,0.993080,-18.620001,-15.750000,13.230000,21.91
7330910,0.706624,0.054656,0.996496,-25.059999,-12.670000,10.710000,21.91
7330920,0.723216,0.028792,0.996984,-30.520000,-8.960000,9.310000,21.92
7330931,0.726632,0.012688,0.970144,-35.560001,-5.740000,7.700000,21.95
7330942,0.726144,-0.003904,0.960872,-35.700001,-1.120000,6.510000,21.95
7330953,0.717848,-0.037576,0.979416,-31.150000,3.640000,4.060000,21.96
7330964,0.700768,-0.074176,0.995520,-22.049999,6.860000,0.700000,21.96
7330975,0.676368,-0.057584,1.015040,-10.360000,9.590000,-2.450000,21.90
7330986,0.644160,-0.026840,1.027240,-4.200000,11.340000,-3.430000,21.88
7330997,0.629032,-0.011224,1.011624,-0.840000,14.280000,-6.370000,21.88
7331008,0.609512,-0.033672,0.989664,1.190000,15.890000,-8.820000,21.91
7331019,0.594872,-0.040016,0.964776,1.610000,19.180000,-11.900000,21.91
7331030,0.563152,-0.040016,0.939888,-0.980000,22.120001,-15.260000,21.94
7331041,0.546072,-0.049288,0.914512,-6.020000,24.850000,-19.950001,21.94
7331052,0.509960,-0.052216,0.902312,-14.280000,28.139999,-23.730000,21.91
7331063,0.468968,-0.079056,0.897432,-23.870001,31.570000,-29.680000,21.88
7331074,0.440176,-0.115168,0.882304,-29.049999,35.070000,-36.540001,21.88
7331085,0.399672,-0.138104,0.865712,-33.529999,38.570000,-44.099998,21.93
7331096,0.345504,-0.165432,0.852536,-33.669998,43.259998,-50.680000,21.93
7331107,0.285480,-0.185928,0.840824,-29.610001,48.160000,-59.849998,21.96
7331118,0.221064,-0.207888,0.852048,-24.010000,52.430000,-68.879997,21.93
7331129,0.167872,-0.218624,0.864248,-15.050000,55.790001,-76.650002,21.93
7331140,0.103456,-0.225456,0.856440,-3.780000,60.410000,-83.650002,21.96
7331151,0.016104,-0.180560,0.837896,2.660000,65.309998,-89.879997,21.96
7331162,-0.043920,-0.108824,0.838872,5.530000,68.040001,-94.709999,21.92
7331173,-0.126392,-0.058560,0.845216,2.030000,72.029999,-98.489998,21.93
7331184,-0.225944,0.051728,0.885720,-7.490000,72.169998,-99.680000,21.93
7331195,-0.274744,0.037088,0.961848,-1.470000,73.010002,-97.930000,21.89
7331206,-0.396256,-0.015128,1.024800,-28.629999,68.879997,-99.260002,21.89
7331217,-0.280112,-0.018544,1.125328,-35.139999,54.810001,-101.570000,21.92
7331228,-0.439200,-0.082960,1.077016,-30.799999,48.720001,-94.500000,21.92
7331240,-0.409920,-0.045872,1.067256,-17.850000,38.080002,-83.650002,21.89
7331251,-0.353800,-0.024400,1.056032,-8.960000,43.189999,-78.680000,21.89
7331262,-0.385520,-0.020984,1.045296,4.200000,33.599998,-70.139999,21.89
7331273,-0.329888,-0.003904,1.070672,12.110000,25.480000,-58.450001,21.91
7331284,-0.320128,0.029280,1.109712,21.139999,22.330000,-47.320000,21.91
7331295,-0.329888,0.009760,1.094096,31.780001,10.570000,-35.209999,21.94
7331306,-0.279624,0.034648,1.084824,39.410000,3.920000,-18.270000,21.94
7331317,-0.284504,0.078568,1.066768,43.820000,-1.820000,-2.590000,21.94
7331328,-0.269864,0.123464,1.075552,41.930000,-7.350000,16.240000,21.91
7331339,-0.264984,0.112240,1.093608,39.060001,-16.660000,29.750000,21.91
7331350,-0.258640,0.082472,1.100440,35.980000,-20.930000,43.049999,21.93
7331360,-0.264496,0.052216,1.096536,35.630001,-25.549999,54.740002,21.91
7331371,-0.268888,0.075640,1.084824,32.549999,-30.170000,62.509998,21.91
7331382,-0.272792,0.080520,1.069208,26.389999,-34.230000,70.629997,21.92
7331393,-0.261568,0.045872,1.048712,21.490000,-35.490002,76.790001,21.92
7331404,-0.219600,0.017080,1.043832,18.969999,-37.380001,80.639999,21.92
7331415,-0.218624,0.021472,1.043832,16.940001,-39.130001,81.830002,21.92
7331426,-0.205936,0.041968,1.039440,15.750000,-39.340000,83.440002,21.94
7331437,-0.203984,0.023912,1.050176,13.790000,-40.950001,84.279999,21.93
7331448,-0.186904,-0.007808,1.041880,12.670000,-42.070000,84.139999,21.93
7331459,-0.114192,-0.038552,1.004304,15.540000,-43.540001,84.000000,21.89
7331470,-0.036112,-0.039040,0.975024,14.770000,-42.630001,82.180000,21.89
7331482,-0.011712,0.020496,0.984784,8.960000,-39.060001,77.279999,21.94
7331493,-0.007320,0.001464,0.982832,4.270000,-40.389999,74.900002,21.90
7331504,0.014152,-0.044896,0.995520,1.400000,-37.099998,70.699997,21.90
7331515,0.001464,-0.067832,0.993080,4.550000,-35.490002,66.010002,21.92
7331526,0.027328,-0.058072,0.974048,14.140000,-34.580002,63.209999,21.92
7331537,0.098088,-0.044896,0.969656,22.260000,-34.790001,61.740002,21.91
7331547,0.165432,-0.056120,0.978928,25.340000,-33.599998,57.330002,21.88
7331558,0.177144,-0.037576,0.992592,25.340000,-31.990000,50.959999,21.88
7331569,0.198616,0.016104,0.998448,17.709999,-30.030001,47.529999,21.95
7331580,0.213256,0.037576,1.003816,11.200000,-30.240000,45.220001,21.95
7331591,0.227896,0.057096,1.003816,0.420000,-31.430000,43.259998,21.93
7331602,0.260104,0.005368,0.992104,-6.020000,-31.010000,40.459999,21.93
7331613,0.325496,-0.050752,0.986736,-5.250000,-29.889999,37.099998,21.91
7331624,0.348432,-0.045872,0.984296,2.100000,-28.350000,31.500000,21.91
7331635,0.378200,-0.033184,0.982344,8.890000,-26.040001,28.209999,21.91
7331646,0.374296,-0.008296,1.009184,10.640000,-25.900000,25.129999,21.90
7331658,0.396744,0.023424,1.002840,9.800000,-25.969999,22.049999,21.90
7331669,0.439688,0.012688,0.995032,6.860000,-25.760000,20.510000,21.95
7331681,0.488976,0.042456,0.981368,2.590000,-24.430000,19.600000,21.90
7331691,0.524600,0.048312,0.972096,-4.970000,-22.120001,17.570000,21.90
7331702,0.555344,0.043432,0.970632,-11.690000,-19.040001,15.680000,21.91
7331713,0.572424,0.017080,0.989664,-15.050000,-16.520000,13.090000,21.91
7331724,0.588040,-0.007808,1.004304,-15.050000,-14.630000,10.430000,21.94
7331735,0.618784,-0.028792,0.996984,-12.180000,-12.040000,8.470000,21.89
7331746,0.637328,-0.046360,0.991128,-9.170000,-9.170000,5.810000,21.89
7331757,0.655384,-0.037088,0.977952,-9.380000,-6.580000,3.780000,21.91
7331768,0.665632,-0.034160,0.968680,-10.080000,-1.680000,1.680000,21.91
7331779,0.651968,-0.012200,0.965752,-9.100000,1.750000,-0.700000,21.93
7331790,0.650504,0.001952,0.959896,-9.660000,5.810000,-2.870000,21.91
7331801,0.634400,0.005856,0.978440,-13.300000,8.330000,-4.130000,21.91
7331812,0.609512,0.020984,0.975024,-17.850000,10.220000,-6.440000,21.87
7331823,0.607072,-0.023912,0.972584,-20.719999,13.230000,-9.100000,21.87
7331834,0.609512,-0.053192,0.960872,-23.450001,16.450001,-13.090000,21.95
7331845,0.593896,-0.077592,0.936472,-26.600000,19.670000,-16.660000,21.91
7331856,0.570472,-0.090768,0.923784,-30.870001,22.680000,-22.049999,21.91
7331867,0.552904,-0.116632,0.914512,-35.279999,25.969999,-28.350000,21.89
7331878,0.528504,-0.129320,0.884744,-39.340000,29.469999,-35.560001,21.89
7331889,0.505568,-0.127856,0.857416,-42.840000,34.720001,-41.299999,21.96
7331900,0.469456,-0.109312,0.818864,-48.369999,41.439999,-47.810001,21.96
7331911,0.425048,-0.136640,0.802272,-54.950001,47.740002,-55.369999,21.91
7331922,0.366976,-0.122976,0.845704,-61.320000,58.240002,-58.240002,21.89
7331933,0.284504,-0.046360,0.844240,-77.980003,60.970001,-65.870003,21.89
7331944,0.212280,-0.073688,0.860832,-91.559998,67.269997,-70.209999,21.94
7331955,0.122976,-0.155672,0.863760,-101.919998,72.870003,-77.070000,21.94
7331966,0.025864,-0.257664,0.873520,-100.309998,78.750000,-83.230003,21.92
7331977,-0.070760,-0.329400,0.896944,-93.309998,83.650002,-90.370003,21.91
7331988,-0.160552,-0.372832,0.933056,-75.459999,86.449997,-97.300003,21.91
7331999,-0.285480,-0.368440,0.972096,-53.900002,86.519997,-102.900002,21.90
7332010,-0.421144,-0.290848,0.988200,-30.799999,80.989998,-112.419998,21.90
7332021,-0.439688,-0.290360,1.136064,-13.300000,63.770000,-114.519997,21.92
7332033,-0.516304,-0.215696,1.134112,-5.460000,58.660000,-106.260002,21.90
7332044,-0.494344,-0.153232,1.124840,3.640000,45.500000,-94.360001,21.90
7332055,-0.376248,-0.094672,1.106296,6.720000,45.220001,-89.879997,21.89
7332066,-0.433832,-0.032208,1.069208,13.440000,32.759998,-79.940002,21.89
7332077,-0.358192,0.005856,1.042856,17.709999,22.680000,-64.400002,21.92
7332088,-0.302560,-0.035136,1.052616,23.100000,22.400000,-51.099998,21.89
7332099,-0.350384,-0.072224,1.080920,35.910000,10.150000,-38.919998,21.89
7332110,-0.319640,-0.077104,1.085312,54.040001,2.940000,-23.100000,21.91
7332121,-0.304512,0.005856,1.062864,61.389999,-3.220000,-9.520000,21.91
7332132,-0.298656,0.047824,1.041880,60.410000,-8.470000,7.210000,21.90
7332143,-0.277184,0.087840,1.036512,51.799999,-11.970000,20.719999,21.93
7332154,-0.291336,0.069296,1.046760,43.189999,-21.139999,38.360001,21.93
7332165,-0.280600,0.037088,1.068232,37.099998,-26.180000,51.520000,21.88
7332176,-0.287920,-0.000488,1.102880,31.360001,-31.290001,59.639999,21.88
7332187,-0.304024,-0.075152,1.101416,32.270000,-38.150002,67.900002,21.96
7332198,-0.296216,-0.121024,1.088728,37.450001,-41.230000,73.080002,21.96
7332209,-0.293776,-0.116632,1.056520,45.290001,-44.939999,76.790001,21.90
7332220,-0.271816,-0.113704,1.047736,51.799999,-46.830002,80.779999,21.88
7332231,-0.239608,-0.099064,1.048224,55.299999,-47.389999,83.650002,21.88
7332242,-0.243512,-0.049776,1.046272,56.980000,-49.349998,84.980003,21.96
7332253,-0.213256,0.015128,1.035536,48.930000,-49.419998,87.570000,21.96
7332264,-0.192760,0.035624,1.026264,34.650002,-50.119999,88.900002,21.95
7332275,-0.179096,-0.039528,1.014064,27.719999,-49.700001,88.480003,21.93
7332286,-0.180560,-0.066856,1.016016,24.639999,-51.240002,86.239998,21.93
7332297,-0.145424,-0.061000,0.996496,27.020000,-50.680000,83.930000,21.92
7332308,-0.082472,-0.103456,0.991128,30.870001,-51.660000,82.320000,21.92
7332319,-0.018544,-0.130296,0.997960,38.990002,-49.419998,76.510002,21.92
7332330,0.023424,-0.102480,0.984784,47.389999,-48.369999,73.360001,21.88
7332341,0.065880,-0.055632,0.974536,47.529999,-46.200001,69.650002,21.88
7332352,0.103944,-0.045872,0.947208,45.220001,-44.450001,65.660004,21.89
7332363,0.147376,-0.030744,0.970144,35.910000,-42.279999,61.459999,21.89
7332374,0.142984,-0.027328,0.980392,28.559999,-39.900002,56.000000,21.89
7332385,0.164944,-0.010736,0.980392,24.010000,-41.090000,52.990002,21.89
7332396,0.186904,0.002928,0.979904,20.860001,-40.529999,49.070000,21.95
7332407,0.235216,-0.020008,0.965264,21.770000,-39.200001,45.080002,21.93
7332417,0.274256,-0.032696,0.941352,22.049999,-37.099998,41.369999,21.93
7332428,0.330864,-0.036112,0.936960,21.000000,-35.279999,38.570000,21.95
7332439,0.392352,-0.025864,0.934520,21.000000,-32.549999,35.349998,21.95
7332450,0.429928,-0.004392,0.937448,11.200000,-30.379999,31.010000,21.94
7332461,0.441640,-0.004392,0.957944,19.459999,-26.600000,29.400000,21.93
7332472,0.450912,0.021960,0.981368,11.410000,-28.209999,27.650000,21.93
7332483,0.485072,0.024888,0.984784,7.980000,-26.600000,24.570000,21.92
7332494,0.518744,0.012688,0.977952,-0.490000,-28.070000,21.000000,21.92
7332505,0.586576,-0.017080,0.958920,1.820000,-23.660000,18.620001,21.91
7332516,0.634400,-0.035624,0.951600,1.260000,-19.950001,14.420000,21.91
7332527,0.662704,-0.059536,0.961360,1.260000,-15.610000,10.640000,21.88
7332538,0.668560,-0.040992,0.951112,2.520000,-13.230000,7.210000,21.91
7332549,0.686616,-0.028792,0.964288,2.590000,-10.990000,4.480000,21.91
7332560,0.699792,-0.015616,0.982344,-0.560000,-9.170000,0.560000,21.95
7332571,0.725656,-0.007808,0.971608,1.750000,-5.810000,-0.490000,21.95
7332582,0.724680,0.009272,0.957944,-4.760000,-2.660000,-1.890000,21.92
7332593,0.718824,0.024400,0.951600,-11.550000,0.630000,-3.500000,21.91
7332604,0.708576,0.044408,0.948672,-20.510000,3.570000,-4.900000,21.91
7332615,0.689544,0.020008,0.952576,-27.370001,6.930000,-6.790000,21.93
7332626,0.665632,-0.041968,0.965264,-24.360001,10.290000,-10.080000,21.93
7332637,0.639768,-0.081008,0.955504,-15.610000,14.070000,-14.560000,21.94
7332648,0.626104,-0.102480,0.937448,-3.290000,16.870001,-18.830000,21.92
7332659,0.596824,-0.105896,0.923784,9.450000,21.770000,-22.959999,21.92
7332670,0.562176,-0.076128,0.933544,16.520000,25.549999,-28.139999,21.93
7332681,0.527528,-0.020984,0.937936,17.150000,27.790001,-31.920000,21.93
7332692,0.484096,0.028792,0.953064,7.630000,28.559999,-34.160000,21.95
7332703,0.437736,0.067344,0.945256,-5.460000,28.559999,-37.730000,21.95
7332714,0.414800,0.038064,0.918416,-23.940001,29.400000,-41.860001,21.93
7332725,0.387472,-0.026352,0.907680,-34.930000,31.360001,-45.709999,21.92
7332736,0.355264,-0.066856,0.893528,-39.619999,34.860001,-51.450001,21.92
7332747,0.320128,-0.106872,0.874008,-35.630001,39.970001,-59.360001,21.96
7332758,0.275720,-0.132736,0.875960,-22.610001,44.310001,-68.110001,21.96
7332769,0.223504,-0.133712,0.856440,-4.270000,49.490002,-74.690002,21.89
7332780,0.171776,-0.121024,0.862296,8.610000,53.619999,-80.849998,21.92
7332791,0.116144,-0.111752,0.925248,17.150000,56.279999,-87.989998,21.92
7332802,0.046360,-0.049288,0.965752,19.180000,56.770000,-91.629997,21.95
7332813,-0.017080,0.021960,0.978928,10.500000,55.860001,-94.360001,21.95
7332824,-0.081496,0.070272,0.953552,-0.630000,55.860001,-97.089996,21.95
7332835,-0.131760,0.115656,0.917440,-17.570000,56.419998,-99.470001,21.90
7332846,-0.177632,0.123952,0.924272,-38.360001,57.119999,-99.610001,21.90
7332857,-0.238632,-0.026352,0.927688,-22.400000,78.120003,-101.220001,21.91
7332868,-0.252296,0.059048,1.064816,-51.520000,54.599998,-107.800003,21.91
7332879,-0.348432,-0.027328,1.086288,-39.200001,51.520000,-106.120003,21.92
7332890,-0.388448,-0.040992,1.099464,-12.880000,40.599998,-98.910004,21.89
7332901,-0.379664,-0.058072,1.082384,14.210000,44.450001,-98.349998,21.89
7332912,-0.435296,0.007808,1.091168,33.250000,34.930000,-87.709999,21.91
7332923,-0.429928,0.092232,1.092632,42.000000,26.600000,-75.599998,21.91
7332934,-0.353800,0.099064,1.068720,39.900002,22.400000,-65.660004,21.90
7332945,-0.345504,0.156648,1.033096,34.369999,13.440000,-48.790001,21.90
7332956,-0.324032,0.189344,1.027240,26.040001,8.330000,-30.240000,21.91
7332967,-0.301584,0.280112,1.040416,14.280000,3.010000,-15.260000,21.87
7332978,-0.274744,0.280600,1.046272,1.190000,-1.050000,2.660000,21.87
7332989,-0.285480,0.094672,1.067256,-5.390000,-8.330000,20.650000,21.86
7333000,-0.253272,0.026840,1.076040,0.560000,-13.440000,31.150000,21.86
7333011,-0.238144,0.024400,1.072624,5.460000,-16.940001,42.840000,21.96
7333022,-0.262056,-0.004880,1.094096,10.710000,-22.120001,52.220001,21.89
7333033,-0.264984,-0.001464,1.085800,19.180000,-25.969999,60.830002,21.89
7333044,-0.264496,0.026352,1.067256,21.629999,-31.080000,66.709999,21.95
7333055,-0.254736,0.046848,1.050176,18.900000,-32.619999,71.750000,21.95
7333066,-0.248392,0.045872,1.035536,13.790000,-34.369999,73.849998,21.89
7333077,-0.264984,0.033184,1.058472,9.100000,-36.189999,75.809998,21.87
7333088,-0.282064,-0.023912,1.057496,11.480000,-37.380001,77.769997,21.87
7333099,-0.271816,-0.008296,1.045784,14.490000,-40.040001,81.129997,21.87
7333110,-0.220576,0.009760,1.002840,17.500000,-42.490002,84.279999,21.87
7333121,-0.127856,0.004880,0.984296,16.379999,-42.139999,84.349998,21.89
7333132,-0.078080,0.027328,0.987712,12.950000,-39.759998,82.110001,21.89
7333143,-0.073688,0.032208,1.009672,6.020000,-38.500000,79.589996,21.91
7333154,-0.052704,0.014152,1.044320,-1.750000,-38.080002,77.489998,21.89
7333165,-0.063928,-0.022936,1.046760,-3.010000,-38.639999,73.360001,21.89
7333176,-0.052704,-0.026352,0.998936,2.520000,-41.090000,70.000000,21.90
7333187,0.043432,-0.026352,0.941840,9.380000,-41.230000,67.760002,21.90
7333198,0.133224,-0.012200,0.915976,13.300000,-38.709999,64.889999,21.91
7333208,0.182024,0.006344,0.927688,12.810000,-34.369999,59.500000,21.93
7333219,0.219112,0.005368,0.962824,9.590000,-31.639999,54.180000,21.93
7333230,0.223992,0.040992,0.993080,-0.770000,-31.150000,48.369999,21.91
7333241,0.248880,0.026352,1.016016,-7.070000,-32.200001,44.520000,21.91
7333252,0.321592,0.021472,0.981368,-10.220000,-32.060001,41.860001,21.93
7333263,0.393328,-0.005856,0.959408,-10.640000,-29.469999,37.869999,21.93
7333274,0.423096,-0.016592,0.948672,-8.820000,-24.780001,31.850000,21.89
7333285,0.440176,-0.031720,0.965752,-6.090000,-21.910000,25.340000,21.87
7333296,0.434808,-0.061000,0.974536,-0.210000,-19.670000,20.510000,21.87
7333307,0.451888,-0.043920,0.974048,6.370000,-19.389999,15.750000,21.92
7333318,0.498736,-0.020008,0.960872,11.270000,-18.900000,13.510000,21.92
7333328,0.555344,0.043920,0.957456,5.740000,-17.010000,11.760000,21.93
7333339,0.572424,0.114192,0.975512,-5.180000,-14.630000,9.800000,21.89
7333350,0.594384,0.123464,0.984296,-18.830000,-12.320000,7.700000,21.89
7333361,0.603168,0.100528,0.998936,-30.730000,-10.080000,7.630000,21.90
7333372,0.617320,0.077592,0.997472,-36.330002,-8.400000,6.160000,21.90
7333383,0.647088,0.003416,0.987712,-36.750000,-5.600000,3.640000,21.93
7333394,0.666608,-0.047824,0.990640,-26.040001,-1.400000,0.700000,21.95
7333405,0.664656,-0.052704,0.989664,-11.690000,2.380000,-4.060000,21.95
7333416,0.661728,-0.022448,0.998448,-4.690000,6.020000,-6.790000,21.93
7333427,0.625616,0.008296,1.013576,0.630000,7.910000,-9.380000,21.93
7333438,0.593896,0.036600,1.031144,2.450000,9.940000,-11.060000,21.94
7333448,0.566568,0.050264,1.029192,4.620000,11.270000,-13.300000,21.94
7333459,0.554856,0.026352,1.016504,6.860000,13.230000,-14.630000,21.89
7333470,0.534360,0.034160,1.003816,8.960000,15.540000,-16.590000,21.89
7333481,0.513376,0.041968,1.001864,7.420000,16.240000,-18.620001,21.89
7333491,0.483608,0.024400,1.002840,4.690000,17.570000,-20.930000,21.91
7333502,0.467016,0.020496,0.990640,1.610000,18.690001,-23.799999,21.91
7333513,0.434808,0.021960,0.982832,-6.790000,19.320000,-25.830000,21.93
7333523,0.405528,0.011224,0.970144,-15.120000,20.230000,-29.540001,21.93
7333534,0.385520,-0.007808,0.954528,-25.969999,21.070000,-32.830002,21.94
7333545,0.366488,-0.038552,0.933544,-35.000000,22.540001,-38.430000,21.94
7333556,0.349408,-0.070272,0.907680,-41.369999,25.760000,-44.660000,21.94
7333567,0.298656,-0.099552,0.898408,-47.810001,28.490000,-50.119999,21.94
7333578,0.260592,-0.127368,0.898408,-52.570000,31.360001,-57.750000,21.94
7333589,0.197152,-0.157136,0.894504,-53.900002,34.930000,-65.660004,21.92
7333601,0.156648,-0.176168,0.883768,-51.029999,39.130001,-74.059998,21.94
7333613,0.104920,-0.187392,0.855952,-45.500000,43.259998,-81.970001,21.94
7333624,0.091744,-0.248392,0.833992,-31.709999,55.020000,-88.900002,21.86
7333635,-0.001464,-0.210328,0.813984,-26.040001,55.369999,-100.660004,21.86
7333646,-0.085400,-0.211304,0.851560,-17.500000,62.650002,-104.860001,21.92
7333657,-0.195200,-0.211304,0.876448,-4.620000,68.599998,-111.580002,21.93
7333669,-0.293776,-0.128344,0.955016,-6.020000,64.889999,-115.150002,21.93
7333680,-0.413336,-0.103456,1.008208,-9.660000,70.419998,-115.360001,21.91
7333691,-0.361608,-0.038552,1.092144,-8.960000,35.560001,-117.599998,21.91
7333702,-0.419680,-0.046360,1.052128,4.620000,55.860001,-109.830002,21.95
7333713,-0.450912,0.095160,1.092144,12.740000,43.049999,-99.260002,21.90
7333724,-0.428464,0.100040,1.108248,14.140000,42.070000,-93.309998,21.90
7333735,-0.454816,0.057096,1.094096,27.160000,32.549999,-77.839996,21.92
7333746,-0.381128,0.123952,1.043344,32.410000,21.420000,-63.349998,21.92
7333757,-0.296216,0.132736,1.037488,34.369999,16.450001,-44.450001,21.92
7333768,-0.281088,0.169824,1.037000,32.410000,9.170000,-23.870001,21.89
7333779,-0.269864,0.196664,1.030168,22.959999,3.080000,-6.440000,21.89
7333789,-0.282552,0.173240,1.050664,16.450001,-3.780000,14.280000,21.90
7333800,-0.269376,0.169824,1.088728,7.910000,-10.220000,29.049999,21.90
7333811,-0.243512,0.111752,1.094096,1.050000,-16.450001,45.709999,21.93
7333822,-0.229848,0.039040,1.086776,-0.840000,-20.440001,56.980000,21.93
7333833,-0.225944,0.005856,1.059936,-0.070000,-25.059999,63.349998,21.88
7333844,-0.241072,-0.040992,1.053592,4.690000,-28.490000,68.529999,21.90
7333854,-0.253760,-0.050264,1.030656,10.500000,-30.799999,72.519997,21.90
7333865,-0.249856,-0.075152,1.029680,19.389999,-33.180000,74.269997,21.90
7333876,-0.249856,-0.084424,1.025776,31.360001,-34.439999,76.300003,21.90
7333887,-0.210328,-0.100040,1.024312,38.709999,-33.880001,78.120003,21.92
7333898,-0.207888,-0.095160,1.038952,44.310001,-32.900002,78.750000,21.88
7333909,-0.217160,-0.023912,1.040904,42.700001,-33.950001,80.080002,21.88
7333920,-0.199104,0.014640,1.040904,38.849998,-36.540001,81.129997,21.91
7333931,-0.145424,0.013176,1.026752,34.650002,-36.820000,80.639999,21.91
7333941,-0.103944,0.003904,1.024312,28.420000,-36.959999,79.239998,21.88
7333952,-0.104920,-0.000976,1.035048,22.120001,-37.660000,76.790001,21.88
7333963,-0.103944,0.036112,1.019920,14.840000,-38.080002,75.250000,21.95
7333974,-0.066856,0.036600,0.996984,9.030000,-38.779999,74.269997,21.84
7333985,-0.011224,-0.013176,0.972096,7.910000,-39.200001,72.239998,21.84
7333996,0.053192,-0.062952,0.966728,13.510000,-37.029999,68.809998,21.93
7334006,0.105896,-0.044408,0.970144,18.900000,-33.599998,64.120003,21.93
7334017,0.112240,-0.000976,0.974536,22.540001,-32.130001,59.919998,21.90
7334028,0.117120,0.001952,0.980392,25.059999,-31.150000,56.349998,21.88
7334039,0.122488,0.031720,0.989176,26.530001,-31.500000,51.799999,21.88
7334049,0.148352,0.065880,0.990152,22.260000,-31.990000,50.049999,21.95
7334060,0.186904,0.053192,0.996008,19.250000,-32.200001,45.919998,21.95
7334071,0.238144,0.045872,0.991616,16.240000,-32.130001,43.540001,21.95
7334082,0.265960,0.062952,0.969656,14.420000,-30.379999,40.180000,21.95
7334092,0.313784,0.098088,0.936960,9.380000,-28.070000,39.060001,21.94
7334103,0.357216,0.084424,0.934520,2.170000,-24.570000,37.660000,21.88
7334114,0.379664,0.064416,0.946720,-1.820000,-22.260000,35.419998,21.88
7334124,0.395280,0.060512,1.000888,-5.530000,-21.420000,33.459999,21.90
7334135,0.406504,0.049288,1.023336,-5.460000,-21.070000,29.820000,21.90
7334146,0.447008,0.016592,1.021384,-4.900000,-19.740000,27.580000,21.87
7334157,0.488000,-0.001464,1.013088,-3.360000,-18.340000,24.360001,21.87
7334168,0.515328,0.013176,1.011624,-4.830000,-16.590000,20.790001,21.91
7334179,0.515816,0.035136,1.015528,-8.120000,-15.120000,16.660000,21.90
7334189,0.530456,0.037088,1.025776,-13.510000,-13.580000,15.050000,21.90
7334200,0.523136,0.081008,1.018456,-19.809999,-12.740000,13.020000,21.89
7334211,0.548512,0.059536,1.022360,-28.629999,-11.970000,12.320000,21.89
7334222,0.561688,0.019520,1.018944,-32.759998,-10.360000,10.780000,21.93
7334233,0.573888,0.001952,1.018456,-32.619999,-7.350000,8.540000,21.93
7334244,0.576816,-0.006344,1.025288,-29.889999,-5.180000,5.740000,21.88
7334254,0.575840,-0.038064,1.037976,-24.500000,-2.170000,2.590000,21.90
7334265,0.556320,-0.036112,1.038464,-17.500000,0.630000,-0.980000,21.90
7334276,0.541192,-0.021960,1.043344,-11.480000,1.890000,-3.990000,21.91
7334287,0.528016,-0.007808,1.044320,-8.050000,3.080000,-5.950000,21.91
7334298,0.514352,0.012200,1.031632,-7.420000,4.900000,-8.330000,21.90
7334309,0.511912,-0.008784,1.007232,-6.860000,7.280000,-11.340000,21.91
7334320,0.499712,-0.034648,0.995032,-5.880000,11.270000,-14.350000,21.91
7334331,0.471408,-0.031720,0.984296,-4.690000,13.790000,-18.200001,21.89
7334342,0.459208,-0.020984,0.980392,-7.280000,14.770000,-21.980000,21.89
7334352,0.447984,-0.041968,0.969168,-11.200000,16.730000,-25.690001,21.89
7334363,0.423096,-0.059048,0.949160,-15.260000,19.670000,-31.219999,21.89
7334374,0.390400,-0.073200,0.937448,-20.020000,22.540001,-37.310001,21.92
7334385,0.351360,-0.077592,0.922320,-24.219999,26.180000,-42.209999,21.92
7334396,0.320128,-0.095160,0.894992,-27.790001,30.799999,-48.369999,21.92
7334407,0.289384,-0.110288,0.881328,-31.780001,35.070000,-54.529999,21.91
7334418,0.246440,-0.147376,0.910120,-34.439999,39.200001,-60.200001,21.91
7334429,0.184952,-0.201544,0.934032,-29.400000,43.400002,-69.230003,21.90
7334440,0.119560,-0.201544,0.952576,-18.690001,45.080002,-77.209999,21.84
7334451,0.053680,-0.194712,0.926224,-6.930000,46.830002,-83.230003,21.84
7334462,0.006344,-0.177632,0.890112,4.550000,49.630001,-90.230003,21.91
7334472,-0.041968,-0.132248,0.885720,9.730000,52.150002,-95.690002,21.91
7334483,-0.160552,-0.122976,0.910120,11.550000,68.739998,-98.070000,21.88
7334494,-0.079056,0.022936,0.946720,-9.520000,56.419998,-104.230003,21.88
7334505,-0.250832,-0.041968,0.976000,-21.559999,50.959999,-104.370003,21.86
7334516,-0.269376,-0.033672,0.987224,-33.740002,42.209999,-97.370003,21.90
7334527,-0.232288,-0.030256,1.009672,-45.360001,49.700001,-97.650002,21.90
7334538,-0.299144,-0.042456,1.007232,-47.599998,40.950001,-91.489998,21.90
7334549,-0.287920,-0.026352,1.002352,-46.830002,42.000000,-86.239998,21.90
7334560,-0.336232,-0.093696,1.006256,-35.490002,40.040001,-83.019997,21.92
7334571,-0.361608,-0.101016,1.034072,-19.040001,34.509998,-76.160004,21.89
7334582,-0.364048,-0.074664,1.032120,1.400000,28.490000,-65.169998,21.89
7334593,-0.321592,-0.064416,1.010648,17.990000,21.280001,-56.209999,21.93
7334604,-0.269376,-0.057584,1.005280,30.940001,16.730000,-46.130001,21.93
7334615,-0.242048,-0.036112,1.036024,38.779999,14.560000,-33.250000,21.93
7334626,-0.233264,0.002440,1.050664,42.910000,10.710000,-21.910000,21.84
7334637,-0.251320,0.037576,1.072136,43.750000,0.980000,-4.060000,21.84
7334647,-0.232776,0.054168,1.071160,40.040001,-5.390000,11.060000,21.95
7334658,-0.230336,0.062952,1.097512,31.920000,-12.460000,21.420000,21.95
7334671,-0.253272,0.076616,1.106784,25.549999,-18.969999,35.490002,21.87
7334682,-0.248392,0.052216,1.092632,19.600000,-25.059999,43.820000,21.89
7334692,-0.239608,0.030256,1.075552,16.590000,-29.049999,52.779999,21.89
7334703,-0.242048,0.012688,1.077504,15.680000,-34.020000,58.869999,21.87
7334714,-0.263032,0.011224,1.082872,15.190000,-36.330002,62.369999,21.87
7334725,-0.265472,0.007320,1.078480,15.960000,-39.970001,69.440002,21.88
7334736,-0.219600,-0.020984,1.063840,16.940001,-41.160000,75.809998,21.88
7334748,-0.234240,-0.038552,1.063352,19.180000,-41.369999,79.519997,21.89
7334759,-0.220576,-0.021472,1.062864,22.750000,-41.509998,81.900002,21.89
7334769,-0.193736,0.020984,1.063352,23.799999,-43.259998,82.739998,21.89
7334780,-0.187392,0.009760,1.038952,23.730000,-43.330002,81.760002,21.93
7334791,-0.167384,-0.009272,1.027240,24.010000,-44.099998,80.709999,21.93
7334802,-0.164944,-0.020984,1.030656,22.190001,-47.810001,78.470001,21.88
7334813,-0.137128,-0.019032,1.012112,17.570000,-48.439999,76.790001,21.91
7334824,-0.119560,-0.021960,1.028216,15.680000,-52.500000,75.949997,21.91
7334835,-0.077104,0.025376,1.003328,15.680000,-54.040001,75.389999,21.89
7334846,0.026840,0.007808,0.960872,14.560000,-51.799999,73.290001,21.89
7334857,0.110776,-0.020008,0.925736,15.960000,-48.580002,71.190002,21.91
7334868,0.167384,-0.009272,0.952576,14.980000,-44.240002,66.849998,21.91
7334879,0.202032,0.010736,0.982832,15.470000,-41.020000,61.389999,21.88
7334889,0.221552,0.018544,1.005280,10.920000,-40.040001,56.209999,21.86
7334900,0.271328,0.006832,0.987712,4.410000,-38.430000,51.450001,21.86
7334911,0.344040,-0.027328,0.949648,0.210000,-37.660000,47.810001,21.87
7334922,0.402600,-0.007320,0.950624,-8.190000,-37.169998,44.730000,21.87
7334933,0.457256,-0.039528,0.950624,-8.330000,-34.090000,37.380001,21.87
7334944,0.513864,-0.053192,0.928664,-3.150000,-29.959999,31.430000,21.89
7334955,0.578280,-0.061488,0.911096,3.080000,-25.760000,27.580000,21.89
7334965,0.641232,-0.055144,0.905240,8.120000,-22.049999,22.260000,21.92
7334976,0.691008,-0.029280,0.936472,6.930000,-18.690001,16.940001,21.92
7334987,0.710040,-0.023912,0.960384,4.550000,-14.910000,11.690000,21.92
7334998,0.713456,-0.008784,0.985760,1.540000,-13.300000,7.630000,21.92
7335009,0.733464,0.020984,0.990640,-6.020000,-12.390000,4.060000,21.87
7335019,0.762744,0.020008,0.977952,-16.590000,-8.960000,0.910000,21.92
7335030,0.763720,-0.018056,0.952088,-19.670000,-5.950000,-4.060000,21.92
7335041,0.758352,-0.045384,0.943792,-18.059999,-0.910000,-8.540000,21.89
7335052,0.740296,-0.079544,0.939400,-13.790000,3.920000,-14.210000,21.89
7335062,0.715896,-0.069784,0.946232,-7.000000,6.860000,-17.780001,21.89
7335073,0.689544,-0.024400,0.946720,-2.870000,9.800000,-19.950001,21.88
7335084,0.660752,-0.005856,0.954528,-1.890000,13.510000,-23.379999,21.88
7335095,0.638792,0.003904,0.963312,1.190000,16.799999,-26.600000,21.88
7335106,0.597800,0.020984,0.971608,-0.070000,20.370001,-29.400000,21.88
7335117,0.554856,0.026352,0.964288,-3.010000,23.240000,-32.619999,21.93
7335127,0.523624,0.016104,0.955016,-5.460000,25.410000,-53.340000,21.93
7335138,0.491904,-0.000976,0.937936,-7.140000,29.330000,-39.689999,21.90
7335149,0.452864,-0.005856,0.918416,-9.520000,33.529999,-44.169998,21.85
7335160,0.396744,-0.027328,0.921832,-9.940000,36.750000,-48.580002,21.85
7335171,0.322080,-0.018056,0.938424,-10.010000,39.480000,-54.389999,21.91
7335182,0.284504,-0.026352,0.944768,-12.250000,41.090000,-59.500000,21.91
7335193,0.241560,-0.058560,0.939888,-14.350000,43.049999,-65.589996,21.90
7335204,0.181048,-0.059048,0.909144,-15.190000,45.290001,-71.050003,21.88
7335215,0.131760,-0.036600,0.868640,-17.080000,48.650002,-76.930000,21.88
7335226,0.086376,-0.037576,0.843264,-21.350000,52.080002,-82.389999,21.91
7335237,0.028304,-0.051728,0.866688,-25.620001,55.299999,-85.540001,21.91
7335247,-0.019520,-0.093696,0.916952,-27.440001,57.330002,-89.529999,21.86
7335258,-0.087352,-0.081984,0.954040,-29.610001,58.029999,-94.010002,21.86
7335269,-0.156160,-0.036112,0.961848,-36.119999,56.980000,-96.250000,21.88
7335281,-0.204472,-0.031232,0.937936,-43.820000,57.680000,-98.209999,21.94
7335291,-0.231312,-0.111752,0.836432,-46.060001,68.599998,-97.930000,21.94
7335302,-0.268888,0.006832,0.971608,-55.930000,60.759998,-92.750000,21.87
7335313,-0.307440,0.000976,1.011624,-60.410000,38.919998,-102.900002,21.87
7335324,-0.362096,-0.042456,0.978928,-59.639999,52.009998,-92.050003,21.93
7335335,-0.389912,0.007320,1.002352,-62.650002,46.200001,-82.320000,21.88
7335346,-0.324520,-0.007320,1.025288,-65.940002,50.889999,-75.599998,21.88
7335357,-0.366976,-0.037576,1.063352,-62.439999,39.830002,-63.560001,21.92
7335368,-0.372832,-0.049776,1.106296,-55.369999,31.360001,-52.290001,21.92
7335380,-0.332328,-0.103944,1.102392,-43.750000,22.400000,-38.500000,21.92
7335391,-0.309880,-0.125416,1.052616,-25.410000,10.990000,-28.350000,21.86
7335402,-0.238632,-0.148352,1.023336,-4.690000,6.230000,-13.020000,21.86
7335413,-0.220088,-0.142496,1.011624,13.090000,2.380000,-1.610000,21.90
7335424,-0.226432,-0.089792,1.003328,25.410000,-1.050000,10.990000,21.90
7335435,-0.205936,-0.135664,1.035048,35.630001,-4.690000,19.879999,21.91
7335446,-0.221064,-0.191784,1.066768,49.419998,-9.100000,28.280001,21.91
7335457,-0.216184,-0.141520,1.112152,63.279999,-14.070000,36.540001,21.87
7335468,-0.248880,-0.097112,1.143384,67.900002,-21.490000,42.419998,21.86
7335479,-0.269376,-0.052216,1.128256,65.099998,-28.350000,50.820000,21.86
7335489,-0.261568,0.012688,1.106784,53.480000,-31.709999,58.099998,21.92
7335500,-0.256200,0.009760,1.098000,37.520000,-37.730000,64.400002,21.92
7335511,-0.267912,0.012688,1.120448,26.950001,-39.689999,70.839996,21.90
7335522,-0.280112,0.010248,1.109712,18.549999,-41.790001,76.440002,21.86
7335533,-0.302072,-0.047336,1.108248,18.620001,-43.959999,79.029999,21.86
7335544,-0.314272,-0.065880,1.080920,23.799999,-47.110001,82.459999,21.88
7335555,-0.289872,-0.068808,1.020408,32.060001,-50.330002,85.750000,21.88
7335566,-0.189832,-0.074664,0.981368,39.130001,-49.770000,87.849998,21.91
7335577,-0.119560,-0.073200,0.992104,42.139999,-47.320000,86.730003,21.91
7335588,-0.117608,-0.018056,1.035536,39.759998,-45.919998,83.860001,21.91
7335599,-0.135176,0.027328,1.072624,29.610001,-46.759998,81.269997,21.87
7335610,-0.185928,0.043432,1.084824,21.420000,-52.220001,80.919998,21.87
7335621,-0.187392,0.043432,1.073112,18.620001,-56.980000,80.639999,21.88
7335631,-0.134200,-0.121024,1.011624,21.350000,-59.570000,79.309998,21.88
7335642,-0.040992,-0.037088,0.958920,29.330000,-59.779999,76.019997,21.88
7335653,0.049776,-0.103456,0.894992,38.639999,-54.320000,70.139999,21.90
7335664,0.079056,-0.092232,0.838872,52.360001,-49.770000,66.500000,21.90
7335675,0.128832,0.021472,0.821304,54.810001,-46.410000,64.750000,21.87
7335686,0.140056,0.209840,0.832528,36.889999,-45.919998,65.519997,21.87
7335696,0.179584,0.226920,0.905728,10.150000,-46.549999,66.570000,21.91
7335707,0.237656,0.185440,0.948672,-13.090000,-45.220001,66.500000,21.91
7335718,0.279136,0.143472,0.953064,-22.120001,-42.910000,64.680000,21.89
7335729,0.350872,0.058560,0.952576,-24.500000,-39.619999,61.950001,21.85
7335740,0.414800,-0.054656,0.954040,-31.430000,-37.380001,55.299999,21.85
7335751,0.477264,-0.155184,0.926224,-2.660000,-32.060001,49.419998,21.93
7335762,0.553392,-0.181048,0.909144,19.950001,-26.459999,43.959999,21.93
7335772,0.607560,-0.131760,0.934520,27.510000,-21.980000,38.570000,21.91
7335783,0.652944,-0.094184,0.963312,37.240002,-17.080000,34.930000,21.90
7335794,0.667096,-0.012688,1.120936,31.290001,-14.630000,32.689999,21.90
7335805,0.670512,0.061488,1.036512,20.580000,-14.280000,28.980000,21.90
7335816,0.673928,0.070760,1.004304,4.340000,-15.330000,25.690001,21.90
7335826,0.734440,-0.006344,1.042368,-8.890000,-12.250000,23.940001,21.92
7335837,0.738344,-0.041480,1.042856,-14.910000,-9.800000,20.160000,21.92
7335848,0.732000,-0.064416,1.048224,-17.920000,-8.330000,17.780001,21.91
7335859,0.746640,-0.083936,1.045296,-17.570000,-6.020000,14.420000,21.91
7335870,0.740296,-0.104920,1.062864,-15.330000,-3.640000,10.920000,21.91
7335881,0.718824,-0.101504,1.072136,-11.550000,-2.240000,6.720000,21.87
7335892,0.693936,-0.117608,1.074576,-7.140000,-0.420000,3.430000,21.87
7335903,0.664168,-0.098088,1.068720,-4.270000,0.770000,-0.560000,21.88
7335914,0.631960,-0.066368,1.062864,-3.430000,2.100000,-4.620000,21.90
7335925,0.590968,-0.066856,1.041392,-0.770000,3.780000,-8.470000,21.90
7335935,0.579744,-0.087352,0.992104,1.470000,6.650000,-12.530000,21.88
7335946,0.569008,-0.094184,0.945744,1.470000,10.010000,-17.010000,21.88
7335957,0.549488,-0.072712,0.915976,-1.820000,14.000000,-20.650000,21.88
7335968,0.528016,-0.075640,0.901336,-8.120000,17.360001,-25.549999,21.88
7335979,0.489464,-0.089304,0.881816,-14.770000,22.120001,-30.660000,21.89
7335990,0.434320,-0.098088,0.883768,-22.400000,25.900000,-36.889999,21.87
7336001,0.378688,-0.130784,0.867176,-24.850000,30.030001,-44.520000,21.87
7336012,0.347944,-0.153232,0.846680,-23.379999,33.320000,-52.990002,21.89
7336023,0.301096,-0.172264,0.819840,-17.780001,38.360001,-59.290001,21.89
7336034,0.246928,-0.187392,0.818864,-9.590000,44.590000,-68.040001,21.88
7336045,0.194712,-0.203984,0.816424,-1.470000,50.400002,-77.070000,21.90
7336056,0.148352,-0.179096,0.820816,7.630000,53.410000,-83.650002,21.90
7336067,0.095160,-0.120536,0.828624,8.820000,57.330002,-87.779999,21.91
7336078,0.053680,-0.085400,0.834968,3.150000,60.759998,-92.750000,21.91
7336089,0.019032,-0.066856,0.834968,-4.760000,63.630001,-98.629997,21.91
7336100,-0.068808,-0.044896,0.867176,-21.350000,65.940002,-103.110001,21.88
7336111,-0.132736,-0.049776,0.914512,-37.799999,68.250000,-107.870003,21.88
7336122,-0.255712,-0.124440,0.938912,-49.209999,83.440002,-107.870003,21.93
7336133,-0.172752,-0.021960,0.989664,-62.860001,52.080002,-119.349998,21.93
7336144,-0.321104,-0.104432,0.956480,-63.910000,68.669998,-122.709999,21.86
7336155,-0.383080,-0.121512,0.979904,-53.619999,62.860001,-118.089996,21.86
7336166,-0.429928,-0.106384,1.043344,-40.110001,70.139999,-120.400002,21.87
7336177,-0.536800,-0.071248,1.117032,-17.990000,60.830002,-115.989998,21.88
7336189,-0.538752,-0.112728,1.138504,4.970000,47.320000,-107.589996,21.88
7336200,-0.481656,-0.103456,1.120936,31.780001,41.790001,-100.169998,21.93
7336211,-0.451400,-0.033672,1.054080,46.410000,30.940001,-89.389999,21.93
7336222,-0.387960,0.016104,1.034560,62.369999,24.709999,-74.410004,21.92
7336233,-0.320128,0.106384,1.056520,70.000000,20.790001,-59.080002,21.91
7336243,-0.321592,0.228872,1.067256,62.790001,12.320000,-39.900002,21.91
7336254,-0.301096,0.259616,1.087752,55.369999,3.850000,-0.560000,21.90
7336265,-0.271328,0.255224,1.076528,43.189999,-6.230000,4.550000,21.90
7336276,-0.232288,0.244488,1.069696,29.469999,-10.920000,24.709999,21.91
7336287,-0.244976,0.217160,1.089704,9.800000,-15.820000,38.360001,21.86
7336298,-0.257664,0.151280,1.110200,-2.940000,-19.950001,51.380001,21.86
7336309,-0.272792,0.060512,1.106784,-5.600000,-25.200001,60.619999,21.87
7336320,-0.282064,0.048312,1.069696,-4.270000,-29.190001,70.279999,21.87
7336330,-0.227896,0.016104,1.057984,0.000000,-30.450001,73.430000,21.89
7336341,-0.247416,-0.019520,1.042368,9.380000,-33.389999,75.250000,21.89
7336352,-0.230824,-0.008784,1.053592,16.590000,-32.900002,77.980003,21.86
7336363,-0.245464,-0.018544,1.065304,21.139999,-33.810001,79.099998,21.86
7336374,-0.261080,-0.003904,1.053592,23.170000,-34.439999,81.620003,21.86
7336385,-0.249368,0.050264,1.036512,19.530001,-36.470001,85.889999,21.85
7336396,-0.205936,0.066856,1.015528,12.320000,-39.200001,87.709999,21.85
7336407,-0.163480,0.062952,1.018944,3.780000,-40.110001,88.620003,21.91
7336418,-0.075152,0.044408,1.030656,13.930000,-35.490002,89.459999,21.86
7336429,-0.135176,0.055144,1.068232,-5.390000,-42.070000,83.160004,21.86
7336440,-0.121512,0.012688,1.079944,-6.510000,-42.560001,82.459999,21.92
7336452,-0.131272,-0.034648,1.064328,1.540000,-44.939999,78.120003,21.92
7336463,-0.072224,-0.059536,1.013088,10.990000,-46.900002,76.089996,21.91
7336474,0.000488,-0.072224,0.948672,22.120001,-45.849998,73.360001,21.79
7336485,0.075152,-0.041968,0.935008,28.000000,-42.419998,70.489998,21.79
7336496,0.114192,0.018056,0.947208,26.600000,-40.110001,65.660004,21.85
7336506,0.139568,0.041968,0.982344,18.200001,-37.310001,61.880001,21.85
7336517,0.158112,0.039040,1.006256,10.500000,-37.520000,60.410000,21.89
7336528,0.154208,0.087352,1.009184,3.850000,-39.130001,57.680000,21.89
7336538,0.210328,0.073200,0.987712,-4.550000,-40.459999,56.209999,21.88
7336549,0.260104,0.020496,0.951112,-6.510000,-36.680000,51.730000,21.87
7336561,0.332328,-0.050264,0.915488,-5.740000,-32.759998,46.900002,21.87
7336572,0.378200,-0.099552,0.905728,0.770000,-28.700001,41.020000,21.89
7336583,0.406992,-0.080032,0.908168,8.750000,-24.080000,36.470001,21.89
7336594,0.410896,-0.024888,0.959408,9.660000,-22.120001,32.200001,21.91
7336604,0.412848,0.000488,0.970632,10.710000,-21.139999,27.930000,21.87
7336615,0.443592,0.023912,0.974536,3.010000,-22.540001,27.020000,21.87
7336626,0.511912,0.001464,0.981856,1.680000,-19.740000,24.219999,21.89
7336637,0.540704,0.003904,0.967216,-4.410000,-18.270000,20.020000,21.89
7336648,0.590480,-0.018056,0.983808,-10.850000,-13.580000,17.360001,21.87
7336659,0.581696,-0.052704,1.014552,-12.950000,-10.640000,12.460000,21.87
7336670,0.569496,-0.038064,1.005280,-13.090000,-10.150000,8.050000,21.86
7336681,0.589016,-0.031720,1.001376,-13.790000,-9.380000,4.410000,21.85
7336692,0.614880,-0.064416,0.988200,-11.830000,-6.650000,1.050000,21.85
7336703,0.629520,-0.093696,0.985272,-9.380000,-3.500000,-2.870000,21.89
7336714,0.629032,-0.085400,1.008696,-6.580000,-0.910000,-6.440000,21.89
7336725,0.610488,-0.046848,1.021384,-6.160000,2.240000,-9.870000,21.88
7336736,0.574864,-0.022448,1.016016,-6.020000,3.710000,-13.440000,21.86
7336747,0.567544,-0.023912,1.016016,-4.620000,5.460000,-17.080000,21.86
7336758,0.551928,-0.034648,0.996496,-1.050000,7.630000,-20.160000,21.90
7336769,0.554368,-0.039040,0.973560,2.170000,11.060000,-23.100000,21.90
7336780,0.535336,-0.034648,0.978928,2.450000,14.840000,-26.740000,21.89
7336791,0.508008,-0.020496,0.980392,1.260000,17.080000,-31.360001,21.90
7336802,0.503128,-0.006344,0.946232,-2.870000,19.320000,-34.580002,21.90
7336813,0.489952,-0.010736,0.906216,-9.660000,22.680000,-38.500000,21.91
7336824,0.488488,-0.002928,0.866688,-16.799999,26.600000,-42.770000,21.91
7336835,0.512400,-0.124440,0.836432,-28.000000,31.850000,-46.830002,21.93
7336846,0.491416,-0.004392,0.807152,-40.880001,42.000000,-51.869999,21.88
7336857,0.417240,-0.009760,0.833504,-54.740002,49.840000,-57.470001,21.88
7336868,0.328912,-0.069296,0.891088,-68.669998,56.000000,-65.309998,21.91
7336880,0.219600,-0.096136,0.932080,-75.879997,58.450001,-72.309998,21.91
7336890,0.122976,-0.160064,0.914512,-71.959999,65.309998,-77.139999,21.87
7336901,0.025376,-0.176656,0.901824,-71.820000,63.910000,-87.639999,21.87
7336913,-0.028792,-0.263520,0.854488,-64.050003,68.389999,-94.500000,21.89
7336924,-0.122976,-0.270352,0.832040,-48.509998,74.760002,-103.669998,21.87
7336935,-0.236192,-0.282552,0.856928,-27.299999,78.330002,-110.250000,21.87
7336946,-0.340624,-0.268400,0.931104,-5.670000,78.680000,-116.690002,21.91
7336957,-0.429928,-0.183488,1.015040,25.129999,75.250000,-118.860001,21.91
7336968,-0.507032,-0.092720,1.076528,47.250000,64.400002,-116.690002,21.90
7336979,-0.515816,-0.042944,1.099464,63.840000,52.220001,-111.089996,21.90
7336990,-0.484584,0.007320,1.105808,67.269997,55.299999,-104.930000,21.90
7337001,-0.442616,0.064416,1.115080,62.650002,13.650000,-97.930000,21.92
7337012,-0.379176,0.089792,1.037976,66.570000,27.090000,-83.300003,21.92
7337023,-0.390400,0.205936,1.014064,53.970001,11.690000,-68.529999,21.90
7337034,-0.346968,0.210328,0.995032,46.480000,11.130000,-53.200001,21.87
7337045,-0.334280,0.218136,1.020408,38.990002,4.830000,-33.320000,21.87
7337056,-0.295240,0.190320,1.024800,33.810001,0.350000,-19.389999,21.90
7337067,-0.255712,0.161528,1.028704,31.150000,-3.010000,-2.940000,21.90
7337078,-0.244976,0.122976,1.048224,27.370001,-7.070000,11.830000,21.91
7337089,-0.247416,0.121024,1.097024,23.100000,-9.660000,22.190001,21.87
7337100,-0.283528,0.134200,1.099464,21.209999,-13.790000,33.669998,21.87
7337111,-0.271328,0.132736,1.065792,14.840000,-16.730000,45.779999,21.90
7337122,-0.257664,0.108336,1.034072,6.650000,-19.320000,53.410000,21.90
7337133,-0.246440,0.078080,1.015040,-0.630000,-20.230000,59.990002,21.90
7337144,-0.224968,0.057584,1.036024,-6.790000,-20.580000,64.889999,21.90
7337155,-0.248392,0.022936,1.075064,-10.290000,-21.770000,67.690002,21.88
7337166,-0.276696,0.008296,1.070184,-9.100000,-24.430000,69.370003,21.85
7337177,-0.291824,-0.026352,1.050664,-4.060000,-28.070000,71.330002,21.85
7337188,-0.275720,-0.048312,1.008696,7.910000,-31.080000,73.919998,21.86
7337199,-0.198616,-0.050264,0.986248,18.690001,-31.219999,76.300003,21.86
7337210,-0.150792,-0.005856,1.010648,19.320000,-30.520000,77.559998,21.87
7337221,-0.133712,0.033672,1.062864,11.760000,-29.750000,76.230003,21.91
7337232,-0.146888,0.061488,1.121912,1.750000,-32.619999,75.809998,21.91
7337243,-0.168360,0.084912,1.147288,-12.390000,-36.259998,75.389999,21.92
7337254,-0.189344,0.059048,1.117032,-18.969999,-40.599998,74.760002,21.92
7337265,-0.088328,0.020984,1.044320,-17.150000,-44.380001,74.339996,21.89
7337276,-0.013176,-0.017080,1.014552,-13.650000,-43.540001,71.190002,21.89
7337287,0.011712,-0.066368,1.008696,0.350000,-40.950001,65.800003,21.89
7337298,0.059536,-0.074664,1.013576,12.460000,-40.110001,60.480000,21.92
7337309,0.067344,-0.058072,1.037000,23.799999,-39.619999,54.599998,21.92
7337320,0.067832,-0.023424,1.045296,32.619999,-39.900002,51.590000,21.89
7337331,0.104920,0.064416,1.043344,31.990000,-42.770000,50.750000,21.89
7337342,0.139568,0.109312,1.025288,22.120001,-43.119999,50.119999,21.89
7337352,0.182512,0.109312,0.994544,11.620000,-41.439999,48.580002,21.86
7337363,0.224968,0.088816,0.993568,3.500000,-39.619999,45.990002,21.86
7337375,0.262056,0.032696,0.969656,0.350000,-37.240002,42.209999,21.85
7337386,0.318176,0.006344,0.935984,3.080000,-35.279999,38.919998,21.85
7337397,0.379176,0.002440,0.921344,4.830000,-31.219999,37.520000,21.89
7337407,0.404064,0.000976,0.927200,7.560000,-26.180000,34.369999,21.91
7337418,0.445056,0.013664,0.958432,6.720000,-22.889999,32.410000,21.91
7337429,0.456768,0.002928,0.980392,4.270000,-19.459999,28.840000,21.89
7337440,0.469456,0.018056,0.983808,3.360000,-17.920000,25.059999,21.89
7337451,0.508984,0.023912,0.999912,0.140000,-16.799999,22.750000,21.89
7337462,0.539728,0.006832,1.017968,-1.120000,-14.700000,19.809999,21.86
7337473,0.578768,0.001464,1.017480,-1.050000,-12.670000,15.680000,21.86
7337484,0.605120,0.005368,1.014552,-1.890000,-10.850000,11.690000,21.86
7337495,0.614392,0.020496,1.015040,-3.710000,-8.750000,9.100000,21.86
7337506,0.616344,0.021472,1.016992,-6.020000,-7.280000,6.090000,21.87
7337517,0.619272,0.011712,1.018944,-6.230000,-5.460000,3.500000,21.87
7337528,0.607072,0.018544,1.026264,-5.250000,-3.570000,0.350000,21.89
7337539,0.594872,0.021472,1.025288,-5.110000,-1.680000,-1.400000,21.85
7337550,0.570960,0.029768,1.021872,-5.320000,0.630000,-4.340000,21.85
7337561,0.552416,0.040504,1.007720,-4.760000,1.820000,-6.720000,21.94
7337572,0.540704,0.041480,1.002352,-3.500000,4.060000,-8.260000,21.94
7337583,0.518256,0.014640,0.985760,2.100000,7.350000,-11.480000,21.88
7337594,0.504592,0.000488,0.956480,8.330000,10.920000,-15.050000,21.89
7337605,0.477264,-0.006344,0.931104,15.470000,13.930000,-18.969999,21.89
7337616,0.452376,-0.010736,0.928664,21.420000,16.940001,-21.980000,21.91
7337627,0.426512,0.005368,0.941840,23.309999,19.950001,-25.830000,21.91
7337638,0.397232,0.055632,0.956480,17.570000,20.719999,-29.049999,21.90
7337649,0.366976,0.079056,0.956968,3.920000,21.280001,-31.780001,21.88
7337660,0.329400,0.092720,0.934520,-13.300000,21.629999,-35.490002,21.88
7337671,0.320128,0.057096,0.920368,-27.580000,22.330000,-39.270000,21.89
7337683,0.296216,-0.000488,0.925736,-43.259998,24.850000,-44.799999,21.89
7337694,0.264496,-0.051240,0.903288,-54.599998,27.510000,-51.310001,21.86
7337705,0.240096,-0.090768,0.890112,-57.540001,31.920000,-56.630001,21.84
7337716,0.210816,-0.120536,0.854976,-49.770000,37.799999,-65.169998,21.84
7337727,0.137128,-0.101992,0.843752,-42.349998,42.070000,-73.010002,21.89
7337738,0.101504,-0.163968,0.874008,-36.400002,45.009998,-82.809998,21.89
7337749,0.049288,-0.239120,0.904752,-21.490000,50.400002,-91.209999,21.91
7337761,-0.025376,-0.207400,0.928176,-5.320000,52.570000,-101.500000,21.87
7337772,-0.074664,-0.165432,0.911584,10.920000,53.060001,-112.769997,21.87
7337783,-0.124928,-0.075640,0.889136,25.410000,53.970001,-122.779999,21.85
7337794,-0.204472,-0.018544,0.944280,26.670000,54.740002,-129.779999,21.85
7337805,-0.354776,-0.033672,1.028216,29.120001,74.059998,-133.630005,21.91
7337816,-0.418216,0.058560,1.166808,31.570000,33.529999,-133.630005,21.91
7337827,-0.467016,0.147376,1.129232,27.650000,38.500000,-124.529999,21.86
7337838,-0.560712,0.260592,1.092632,25.549999,16.100000,-113.540001,21.92
7337849,-0.402600,0.229848,1.118008,21.700001,18.480000,-100.940002,21.92
7337860,-0.366488,0.204960,1.043344,29.400000,15.960000,-79.099998,21.92
7337871,-0.327448,0.262056,0.989176,35.139999,8.330000,-60.549999,21.92
7337882,-0.284016,0.273768,1.005280,37.939999,7.210000,-32.060001,21.91
7337893,-0.280600,0.300608,1.036024,36.470001,-0.490000,-2.170000,21.94
7337904,-0.266936,0.293776,1.065792,25.620001,-5.390000,24.990000,21.94
7337915,-0.263520,0.239608,1.071160,13.020000,-9.870000,39.970001,21.88
7337925,-0.255712,0.196176,1.067256,-0.980000,-16.379999,57.680000,21.88
7337937,-0.257176,0.144448,1.055544,-15.540000,-21.280001,69.720001,21.86
7337948,-0.264008,0.083936,1.036512,-28.629999,-27.650000,74.830002,21.89
7337959,-0.217648,-0.015616,1.016504,-35.910000,-28.770000,77.279999,21.89
7337970,-0.197152,-0.102968,0.995520,-33.740002,-31.290001,78.120003,21.87
7337981,-0.170312,-0.156160,0.981856,-24.500000,-30.870001,75.320000,21.87
7337992,-0.129808,-0.199104,0.979416,-10.010000,-28.700001,72.660004,21.89
7338003,-0.097600,-0.218624,0.977464,6.930000,-26.600000,68.529999,21.87
7338014,-0.101992,-0.166896,1.003328,18.549999,-25.900000,67.059998,21.87
7338025,-0.108824,-0.106384,1.003328,25.549999,-24.010000,64.050003,21.88
7338036,-0.104432,-0.023912,1.023336,26.530001,-23.100000,65.239998,21.88
7338048,-0.127368,-0.007320,1.043832,15.540000,-25.340000,64.750000,21.92
7338059,-0.081008,-0.015616,1.059448,9.800000,-25.200001,65.870003,21.92
7338070,-0.081496,0.000000,1.061888,4.200000,-25.620001,63.490002,21.87
7338081,-0.052216,-0.041480,1.062864,-1.330000,-25.900000,62.020000,21.86
7338092,-0.070760,-0.092720,1.059936,2.730000,-24.430000,56.700001,21.86
7338103,-0.034160,-0.058072,1.056520,-0.420000,-26.389999,58.799999,21.88
7338115,-0.040992,-0.040504,1.052128,-0.140000,-28.629999,56.770000,21.88
7338126,-0.041480,-0.073200,1.011136,8.750000,-28.280001,56.560001,21.85
7338137,-0.040504,-0.030256,1.031632,9.660000,-34.580002,52.990002,21.90
7338148,0.045384,-0.035136,1.005768,18.969999,-34.439999,52.009998,21.90
7338159,0.100528,-0.042944,0.976488,25.760000,-32.410000,47.669998,21.91
7338170,0.107360,-0.008784,0.976488,34.580002,-30.100000,42.349998,21.91
7338181,0.121024,0.028792,0.983808,40.110001,-30.940001,39.410000,21.91
7338192,0.132736,0.076616,0.995520,36.330002,-31.920000,37.590000,21.91
7338202,0.132248,0.158112,0.991128,29.400000,-32.200001,36.189999,21.91
7338213,0.145424,0.170800,0.985760,17.010000,-31.709999,37.099998,21.93
7338224,0.174704,0.172264,0.961848,9.730000,-30.799999,36.820000,21.93
7338235,0.223016,0.171776,0.943792,0.980000,-29.959999,37.169998,21.92
7338246,0.248880,0.157624,0.945256,-5.040000,-26.459999,35.700001,21.89
7338257,0.291336,0.109800,0.944768,-2.170000,-24.080000,33.880001,21.89
7338268,0.296704,0.095648,0.955016,5.460000,-22.049999,31.570000,21.86
7338278,0.318664,0.107848,0.963312,10.360000,-21.000000,30.100000,21.86
7338289,0.349896,0.132248,0.964776,11.270000,-19.180000,29.820000,21.86
7338300,0.379176,0.129808,0.980880,9.800000,-18.549999,28.980000,21.86
7338310,0.397720,0.160552,1.002840,5.950000,-18.270000,29.120001,21.88
7338321,0.427976,0.169336,0.997960,0.070000,-17.709999,29.190001,21.85
7338332,0.461160,0.163968,1.000400,-7.980000,-16.170000,28.700001,21.85
7338343,0.492392,0.182024,1.049688,-15.260000,-19.389999,25.549999,21.85
7338354,0.553880,0.058560,0.986248,-11.550000,-13.720000,23.730000,21.85
7338365,0.572424,0.040992,0.982832,-8.260000,-12.110000,19.180000,21.90
7338377,0.593896,0.020496,0.986736,-6.160000,-10.430000,17.780001,21.88
7338388,0.606096,0.023912,0.988688,-3.500000,-8.750000,14.420000,21.88
7338399,0.609024,0.037576,0.996496,-5.530000,-7.910000,12.180000,21.89
7338410,0.613904,0.021960,0.997472,-7.700000,-7.210000,8.890000,21.89
7338421,0.623664,0.015128,0.987224,-10.990000,-6.090000,7.210000,21.87
7338432,0.621712,0.025376,0.971608,-14.490000,-4.270000,3.920000,21.87
7338443,0.617808,-0.016592,0.969168,-17.150000,-1.050000,-0.140000,21.91
7338454,0.583648,-0.056608,0.979416,-10.850000,2.520000,-3.920000,21.89
7338465,0.555344,-0.077592,0.978440,0.420000,5.180000,-8.190000,21.89
7338476,0.532896,-0.049288,0.961848,7.630000,6.930000,-11.760000,21.91
7338486,0.499712,-0.022936,0.948672,13.090000,9.030000,-14.700000,21.91
7338497,0.476776,-0.006344,0.952576,13.510000,11.480000,-18.129999,21.88
7338508,0.450912,0.002928,0.954040,13.300000,13.370000,-21.910000,21.83
7338519,0.427488,0.012688,0.951600,11.760000,15.050000,-24.709999,21.83
7338530,0.414800,0.018544,0.938912,11.340000,17.010000,-28.910000,21.87
7338541,0.398696,0.017080,0.924760,12.460000,19.320000,-33.669998,21.87
7338552,0.383080,0.023424,0.913048,10.010000,21.840000,-37.520000,21.86
7338563,0.341112,0.020008,0.930616,4.690000,23.870001,-40.810001,21.90
7338574,0.312320,0.026352,0.933056,0.840000,24.500000,-44.799999,21.90
7338585,0.325984,0.036112,0.908168,-5.600000,24.709999,-48.160000,21.86
7338596,0.351848,0.029768,0.874984,-13.580000,27.299999,-51.939999,21.86
7338607,0.369416,0.034648,0.825696,-21.350000,32.410000,-57.470001,21.87
7338617,0.375760,0.011712,0.813008,-33.529999,39.200001,-65.379997,21.87
7338628,0.298656,-0.030256,0.857904,-41.299999,47.810001,-73.360001,21.86
7338639,0.172752,-0.053192,0.902312,-42.770000,52.290001,-82.250000,21.87
7338650,0.095160,-0.099064,0.947696,-34.439999,54.740002,-89.809998,21.87
7338662,-0.010248,-0.119560,0.979904,-15.680000,56.630001,-95.269997,21.89
7338673,-0.126392,-0.134200,1.000400,7.840000,58.029999,-101.919998,21.89
7338684,-0.242536,-0.112728,1.030656,31.010000,57.400002,-106.260002,21.90
7338695,-0.339160,-0.009272,1.094584,41.090000,51.520000,-105.699997,21.91
7338706,-0.414312,0.101016,1.120448,40.389999,44.099998,-101.080002,21.91
7338717,-0.461648,0.291824,1.120936,25.129999,16.590000,-84.489998,21.88
7338728,-0.213744,0.332328,1.115080,9.800000,32.270000,-80.989998,21.88
7338739,-0.361608,0.252784,1.113616,-9.240000,16.940001,-69.650002,21.87
7338750,-0.336232,0.185440,1.118984,-11.060000,9.030000,-59.779999,21.87
7338761,-0.308904,0.140544,1.103368,-5.250000,12.110000,-49.910000,21.87
7338772,-0.322080,0.115168,1.068232,4.060000,4.900000,-34.090000,21.86
7338783,-0.310368,0.078568,1.041392,18.690001,0.980000,-21.350000,21.86
7338794,-0.284016,0.113216,1.046272,28.490000,-2.100000,-12.180000,21.87
7338805,-0.255224,0.114192,1.062376,32.340000,-5.250000,-0.210000,21.88
7338817,-0.254248,0.136640,1.073112,34.439999,-9.380000,11.620000,21.88
7338828,-0.256200,0.185440,1.076528,31.290001,-13.650000,22.610001,21.90
7338839,-0.231800,0.188368,1.056032,24.639999,-18.129999,31.010000,21.90
7338850,-0.204472,0.194224,1.042856,14.140000,-18.830000,40.250000,21.90
7338860,-0.206912,0.173240,1.034072,5.670000,-20.020000,46.970001,21.90
7338872,-0.199104,0.135664,1.036512,-3.710000,-21.350000,52.500000,21.88
7338883,-0.207888,0.099064,1.027240,-9.170000,-22.330000,56.700001,21.88
7338894,-0.212768,0.070272,1.032608,-11.970000,-24.080000,60.970001,21.88
7338905,-0.222040,0.040992,1.031632,-10.500000,-25.830000,64.190002,21.87
7338916,-0.208864,0.059536,1.018456,-9.590000,-28.910000,67.830002,21.87
7338927,-0.161040,0.049288,0.999912,-12.180000,-30.030001,69.160004,21.91
7338938,-0.139568,0.009272,0.988688,-11.480000,-28.840000,69.300003,21.86
7338949,-0.112728,-0.001952,0.988200,-10.780000,-28.629999,68.250000,21.86
7338960,-0.085400,-0.012688,0.983320,-9.590000,-29.120001,65.870003,21.88
7338972,-0.058560,-0.018544,0.982344,-5.460000,-28.629999,62.090000,21.88
7338983,-0.044408,-0.023424,0.976488,1.610000,-29.049999,59.150002,21.91
7338994,-0.003416,0.006832,0.951112,6.720000,-29.260000,56.490002,21.87
7339005,0.080032,-0.003416,0.933544,7.840000,-27.580000,53.270000,21.87
7339016,0.115168,-0.011224,0.942328,9.940000,-25.410000,48.650002,21.87
7339027,0.149328,-0.009760,0.961360,12.040000,-21.980000,45.150002,21.87
7339038,0.158600,0.037576,0.975024,12.740000,-20.930000,41.090000,21.84
7339049,0.166408,0.070760,0.993080,10.010000,-21.350000,37.310001,21.85
7339060,0.184952,0.074176,0.999912,7.350000,-21.209999,35.070000,21.85
7339071,0.226432,0.112240,0.996496,2.800000,-22.610001,33.320000,21.91
7339082,0.257664,0.122976,0.995520,-3.920000,-22.889999,31.150000,21.91
7339093,0.292800,0.092720,0.984296,-5.600000,-22.469999,27.230000,21.88
7339104,0.318176,0.081008,1.008208,-7.630000,-20.930000,24.290001,21.88
7339114,0.309392,0.093208,1.008208,-5.250000,-21.280001,21.139999,21.91
7339125,0.332816,0.118096,0.994056,-3.850000,-20.930000,19.809999,21.86
7339136,0.356240,0.132736,0.984296,-4.270000,-19.530001,18.690001,21.86
7339147,0.370392,0.143472,0.981368,-4.620000,-19.879999,18.129999,21.92
7339158,0.414800,0.139080,0.991616,-6.790000,-18.760000,17.290001,21.92
7339169,0.435296,0.117120,1.013576,-7.210000,-17.150000,16.240000,21.86
7339181,0.452376,0.127856,1.026264,-4.480000,-16.309999,15.540000,21.87
7339192,0.469944,0.130784,1.013576,-2.240000,-15.470000,13.720000,21.87
7339203,0.519232,0.133224,1.006744,-2.170000,-12.530000,12.670000,21.86
7339214,0.508496,0.129808,1.000888,-0.140000,-11.480000,11.830000,21.86
7339225,0.525088,0.138592,1.021872,-1.960000,-9.940000,11.830000,21.92
7339235,0.528992,0.143960,1.027728,-5.320000,-8.750000,11.620000,21.86
7339246,0.538264,0.157136,1.020408,-10.780000,-8.190000,12.600000,21.86
7339257,0.539240,0.142008,1.009672,-15.120000,-7.770000,12.460000,21.91
7339268,0.556808,0.117120,1.011136,-20.230000,-5.040000,12.040000,21.91
7339279,0.548512,0.099552,1.012112,-22.540001,-2.730000,11.480000,21.91
7339290,0.535336,0.073688,1.011136,-22.610001,-0.840000,9.800000,21.91
7339301,0.525576,0.058560,1.011624,-21.629999,-0.140000,8.050000,21.90
7339312,0.527528,0.045384,1.021384,-20.299999,1.820000,6.580000,21.82
7339323,0.507520,0.015128,1.044320,-17.639999,3.500000,3.570000,21.82
7339334,0.490928,0.000000,1.039928,-15.120000,3.500000,0.490000,21.88
7339345,0.488000,-0.031232,1.024312,-11.200000,5.040000,-3.430000,21.88
7339356,0.474336,-0.043432,1.011136,-7.420000,6.930000,-7.070000,21.89
7339367,0.455304,-0.053680,0.992104,-3.710000,8.820000,-11.970000,21.88
7339379,0.423584,-0.042944,0.977952,-2.590000,11.270000,-17.290001,21.88
7339391,0.386984,-0.045384,0.968192,-3.640000,13.510000,-22.610001,21.88
7339403,0.364048,-0.048312,0.933544,-5.250000,16.450001,-27.719999,21.86
7339414,0.346480,-0.077104,0.903776,-4.480000,21.559999,-33.740002,21.86
7339425,0.275232,-0.093696,0.922320,-4.830000,24.780001,-38.849998,21.90
7339436,0.224968,-0.083448,0.931104,-4.130000,26.250000,-44.310001,21.90
7339447,0.182024,-0.058560,0.923296,-5.880000,27.370001,-48.230000,21.84
7339459,0.157624,-0.083448,0.900360,-1.260000,30.870001,-53.689999,21.84
7339470,0.133224,-0.081008,0.899384,5.180000,35.419998,-58.939999,21.83
7339480,0.088328,-0.029280,0.907680,7.140000,38.080002,-63.000000,21.86
7339491,0.024888,0.018544,0.937448,1.330000,39.270000,-64.470001,21.86
7339502,-0.012200,0.039528,0.973072,-3.640000,38.290001,-65.800003,21.88
7339513,-0.021472,0.043920,1.006256,-11.900000,36.680000,-65.940002,21.88
7339524,-0.044408,0.030256,1.014552,-19.320000,35.910000,-66.709999,21.89
7339535,-0.136152,0.025864,0.987224,-23.799999,-0.840000,-62.090000,21.90
7339546,0.004880,0.029280,0.990152,-37.450001,38.500000,-71.330002,21.90
7339557,-0.114680,0.009272,0.971120,-45.779999,34.509998,-71.400002,21.88
7339568,-0.132736,0.014152,0.989664,-51.029999,34.650002,-73.290001,21.88
7339579,-0.163480,-0.008784,1.043832,-51.520000,37.730000,-72.870003,21.90
7339590,-0.247416,-0.047824,1.117032,-38.290001,31.920000,-72.029999,21.89
7339602,-0.276208,-0.043432,1.168272,-18.830000,27.650000,-67.480003,21.89
7339613,-0.325984,-0.046848,1.169248,4.480000,19.180000,-63.770000,21.84
7339624,-0.305488,-0.071248,1.135576,27.930000,11.830000,-54.880001,21.84
7339635,-0.287432,-0.016592,1.100440,42.490002,6.230000,-44.099998,21.86
7339647,-0.276696,0.078568,1.070184,48.299999,-1.120000,-30.100000,21.85
7339658,-0.247416,0.135176,1.049200,43.540001,-5.530000,-14.070000,21.85
7339669,-0.232776,0.166408,1.033584,31.570000,-10.500000,-1.050000,21.89
7339680,-0.213256,0.133224,1.012600,19.320000,-15.610000,14.350000,21.89
7339691,-0.200568,0.100040,0.987224,11.830000,-17.570000,28.280001,21.89
7339702,-0.209840,0.106872,0.981368,2.870000,-20.580000,37.520000,21.93
7339713,-0.196176,0.068808,0.989176,-5.320000,-23.170000,45.779999,21.93
7339724,-0.171776,0.007808,0.996984,-10.430000,-26.110001,51.520000,21.91
7339735,-0.162016,-0.080032,1.000400,-9.520000,-27.930000,53.900002,21.91
7339746,-0.153232,-0.114680,0.977464,-4.270000,-28.420000,55.020000,21.87
7339757,-0.116144,-0.136640,0.956480,4.550000,-28.280001,54.599998,21.85
7339768,-0.122488,-0.121024,0.942328,12.320000,-28.559999,53.549999,21.85
7339780,-0.105896,-0.081984,0.929152,16.799999,-27.650000,53.830002,21.89
7339791,-0.074176,-0.068320,0.932080,16.870001,-26.110001,54.250000,21.89
7339802,-0.073688,-0.044896,0.934032,14.070000,-24.290001,54.250000,21.87
7339813,-0.077592,-0.045384,0.946232,10.780000,-22.260000,55.369999,21.87
7339824,-0.074664,-0.026840,0.974536,7.770000,-20.930000,55.090000,21.89
7339835,-0.104432,-0.019520,0.955504,7.700000,-20.860001,54.740002,21.86
7339846,-0.015616,-0.018544,0.966728,6.020000,-24.150000,55.090000,21.86
7339857,0.023912,-0.081496,0.943304,7.840000,-23.240000,51.380001,21.90
7339868,0.057096,-0.077592,0.952576,8.750000,-21.070000,48.860001,21.90
7339879,0.069296,-0.059536,0.967704,9.800000,-19.879999,45.570000,21.86
7339890,0.068808,-0.045384,0.983320,9.800000,-20.860001,42.279999,21.86
7339901,0.066368,0.004392,0.993568,8.050000,-21.559999,39.340000,21.86
7339912,0.081496,0.030744,1.009672,6.580000,-24.150000,38.080002,21.89
7339923,0.139080,0.012688,0.996008,7.000000,-26.459999,35.980000,21.89
7339934,0.218624,-0.018544,0.985272,9.240000,-25.270000,32.900002,21.87
7339945,0.258152,-0.024888,0.991616,14.980000,-23.100000,28.770000,21.86
7339956,0.285968,0.004880,0.992104,18.690001,-19.879999,25.410000,21.86
7339967,0.299632,0.047336,0.987712,16.590000,-18.200001,23.450001,21.89
7339978,0.305976,0.088816,1.004304,12.950000,-17.990000,21.209999,21.89
7339989,0.359168,0.104920,1.004792,8.470000,-17.990000,21.770000,21.84
7340000,0.399184,0.105896,1.003816,3.570000,-17.360001,19.530001,21.84
7340010,0.433344,0.063440,1.013088,1.890000,-15.820000,16.730000,21.88
7340021,0.446520,0.060024,1.025776,2.800000,-14.210000,13.580000,21.90
7340032,0.482632,0.046848,1.018456,3.920000,-12.950000,10.850000,21.90
7340043,0.506544,0.088816,1.058472,-1.260000,-13.160000,6.300000,21.91
7340054,0.544608,0.077592,1.010160,0.630000,-9.590000,7.070000,21.91
7340065,0.564616,0.093208,1.013088,-4.830000,-8.680000,4.550000,21.86
7340076,0.577792,0.069784,1.034072,-8.820000,-6.300000,1.750000,21.85
7340087,0.575840,0.060024,1.048712,-12.460000,-4.620000,-0.420000,21.85
7340098,0.579744,0.041968,1.049688,-14.280000,-3.500000,-3.220000,21.86
7340109,0.580720,0.020008,1.043832,-14.000000,-1.470000,-6.720000,21.86
7340120,0.574376,0.010248,1.028704,-10.920000,0.350000,-10.220000,21.90
7340131,0.560224,-0.009272,1.034560,-4.690000,2.730000,-13.370000,21.88
7340142,0.547048,-0.002928,1.044320,0.980000,5.040000,-16.030001,21.88
7340153,0.531920,0.029280,1.050664,6.160000,6.370000,-18.480000,21.84
7340163,0.507520,0.046848,1.044808,9.520000,7.840000,-20.719999,21.84
7340174,0.488488,0.051728,1.037976,9.450000,9.450000,-22.750000,21.82
7340185,0.475312,0.045384,1.028216,8.330000,10.640000,-25.690001,21.82
7340196,0.445544,0.040016,1.016992,4.760000,11.690000,-28.209999,21.88
7340207,0.417728,0.040016,1.004792,-2.170000,12.040000,-31.360001,21.87
7340218,0.391864,0.033672,0.982832,-7.700000,12.600000,-35.770000,21.87
7340229,0.389424,0.030256,0.949648,-15.610000,13.580000,-38.570000,21.88
7340240,0.379176,-0.004392,0.937936,-24.639999,16.240000,-43.680000,21.88
7340251,0.339648,-0.027328,0.923784,-30.520000,19.600000,-49.770000,21.87
7340262,0.300608,-0.034648,0.895968,-36.400002,22.469999,-56.349998,21.86
7340273,0.250832,-0.055144,0.750056,-41.790001,26.389999,-61.110001,21.86
7340284,0.204960,-0.068808,0.837896,-45.220001,31.290001,-67.129997,21.87
7340300,0.144448,-0.103944,0.811056,-46.900002,40.250000,-74.620003,21.88
7340311,0.094184,-0.138592,0.919880,-39.480000,49.209999,-77.839996,21.88
7340322,-0.011224,-0.115656,0.884744,-36.400002,50.750000,-85.820000,21.91
7340333,-0.112240,-0.140544,0.948672,-25.410000,53.480000,-90.790001,21.91
7340344,-0.178120,-0.109312,0.965752,-10.150000,54.250000,-94.220001,21.87
7340355,-0.240096,-0.113704,0.951600,5.250000,53.759998,-94.709999,21.83
7340366,-0.273280,-0.089304,0.945744,15.750000,53.830002,-95.410004,21.83
7340377,-0.359168,0.018544,0.946232,10.990000,56.630001,-93.519997,21.87
7340388,-0.307928,0.019032,1.085312,5.950000,28.559999,-89.809998,21.87
7340399,-0.360144,-0.005368,1.067256,11.550000,40.740002,-83.440002,21.87
7340410,-0.348920,0.097112,1.099952,12.810000,25.830000,-71.540001,21.87
7340421,-0.290360,0.100528,1.114592,13.440000,27.790001,-62.230000,21.89
7340432,-0.334768,0.110776,1.077016,20.299999,16.730000,-50.470001,21.89
7340443,-0.298168,0.194712,1.065304,15.960000,8.120000,-39.970001,21.89
7340454,-0.266936,0.147864,1.035536,20.790001,7.490000,-22.959999,21.91
7340465,-0.237656,0.158112,1.057008,16.450001,1.890000,-7.490000,21.91
7340476,-0.235216,0.104920,1.092632,14.490000,-4.760000,4.690000,21.90
7340487,-0.222528,0.050752,1.118984,16.590000,-10.290000,17.570000,21.85
7340498,-0.224968,0.058072,1.118008,19.530001,-14.980000,31.850000,21.85
7340509,-0.213744,0.084912,1.104344,22.330000,-18.830000,41.650002,21.90
7340520,-0.230824,0.122000,1.080920,22.120001,-21.910000,51.099998,21.90
7340531,-0.223992,0.162992,1.070672,15.190000,-24.080000,60.410000,21.86
7340542,-0.232776,0.146888,1.087752,5.740000,-26.809999,66.919998,21.88
7340553,-0.240584,0.116144,1.106784,-2.870000,-30.379999,73.290001,21.88
7340564,-0.247416,0.063440,1.093120,-7.140000,-33.320000,78.260002,21.86
7340576,-0.232288,0.012200,1.065304,-7.000000,-34.860001,81.550003,21.86
7340587,-0.216672,-0.029768,1.041880,-3.640000,-35.560001,84.070000,21.87
7340598,-0.180072,-0.027816,1.039440,1.120000,-35.560001,86.029999,21.84
7340609,-0.172264,-0.034160,1.048224,6.090000,-37.169998,85.750000,21.84
7340620,-0.123464,-0.046848,1.037488,12.250000,-37.240002,84.209999,21.91
7340631,-0.108336,0.009760,1.049688,12.600000,-40.320000,83.650002,21.91
7340642,-0.088816,0.037088,1.027240,10.290000,-40.740002,82.879997,21.91
7340653,-0.041968,0.037576,1.011136,5.460000,-41.020000,81.550003,21.85
7340664,-0.017568,0.024400,1.025776,4.690000,-39.480000,77.279999,21.85
7340675,0.015128,-0.009272,1.011136,8.190000,-38.990002,75.599998,21.85
7340686,0.061976,-0.049776,1.010648,14.420000,-36.820000,73.709999,21.85
7340698,0.074664,-0.079056,0.985760,22.820000,-35.070000,68.389999,21.89
7340709,0.104920,-0.049776,0.975024,28.629999,-33.880001,64.750000,21.89
7340720,0.137616,-0.022936,0.973560,29.610001,-33.040001,61.320000,21.89
7340731,0.166408,0.006344,0.973072,28.840000,-31.850000,58.310001,21.86
7340742,0.238144,0.024888,0.970144,27.299999,-32.200001,55.299999,21.86
7340752,0.264984,0.057096,0.967704,23.379999,-31.150000,51.939999,21.87
7340763,0.289384,0.040992,0.960872,18.830000,-29.469999,48.439999,21.87
7340774,0.320128,0.021472,0.951600,14.140000,-27.440001,44.099998,21.89
7340785,0.331840,0.023912,0.940864,11.480000,-26.740000,40.880001,21.79
7340796,0.378688,0.013176,0.935496,10.640000,-27.370001,38.150002,21.79
7340807,0.469456,-0.006344,0.923296,7.140000,-27.440001,35.840000,21.86
7340818,0.537776,-0.043432,0.943304,11.480000,-23.730000,31.780001,21.86
7340829,0.568032,-0.012200,0.954528,11.130000,-21.910000,26.320000,21.87
7340839,0.589992,0.022448,0.972096,7.070000,-21.139999,21.280001,21.87
7340850,0.603168,0.025864,0.986736,1.260000,-21.490000,15.330000,21.87
7340861,0.615368,0.012688,0.971608,2.450000,-19.040001,12.950000,21.85
7340872,0.632936,-0.008296,0.976488,-1.820000,-17.920000,9.940000,21.85
7340883,0.638792,-0.014640,0.983320,-4.620000,-17.080000,7.280000,21.89
7340894,0.656848,-0.001464,0.989664,-8.750000,-16.309999,3.780000,21.89
7340905,0.674904,-0.020008,0.976488,-10.710000,-14.420000,1.050000,21.86
7340916,0.670024,-0.032208,0.964288,-8.680000,-11.270000,-2.590000,21.80
7340927,0.659776,-0.035624,0.976000,-7.490000,-8.330000,-5.810000,21.80
7340938,0.641232,-0.037088,1.005768,-5.110000,-6.930000,-8.820000,21.88
7340949,0.622688,-0.018056,1.014064,-2.870000,-5.180000,-11.200000,21.88
7340960,0.601216,-0.005856,1.020896,-1.890000,-2.660000,-13.860000,21.86
7340971,0.593408,-0.021960,1.017968,1.960000,-0.280000,-17.150000,21.86
7340982,0.570472,-0.032208,0.987224,8.820000,3.570000,-19.950001,21.86
7340993,0.550952,-0.011224,0.969656,14.070000,7.280000,-22.889999,21.85
7341004,0.531920,0.022448,0.958920,14.210000,10.570000,-25.760000,21.85
7341015,0.505080,0.088328,0.937448,6.230000,13.020000,-27.719999,21.85
7341026,0.471896,0.103944,0.920856,-5.320000,16.379999,-30.450001,21.85
7341037,0.449448,0.101992,0.911096,-16.940001,20.719999,-33.040001,21.83
7341048,0.407968,0.059536,0.916952,-30.730000,23.660000,-36.119999,21.84
7341059,0.379176,0.015616,0.915000,-42.700001,27.860001,-39.340000,21.84
7341070,0.331840,-0.038552,0.920856,-50.470001,33.740002,-44.799999,21.85
7341081,0.276696,-0.112728,0.935008,-52.360001,34.020000,-52.990002,21.85
7341092,0.233264,-0.155184,0.937448,-43.049999,38.080002,-59.849998,21.84
7341103,0.167872,-0.171288,0.915000,-29.260000,41.720001,-68.389999,21.82
7341114,0.112240,-0.175680,0.878888,-15.540000,45.779999,-77.000000,21.82
7341125,0.068808,-0.155672,0.849608,4.550000,50.189999,-84.139999,21.86
7341136,-0.014152,-0.086864,0.874496,16.379999,53.970001,-87.290001,21.86
7341147,-0.074176,-0.016592,0.896944,19.670000,55.020000,-89.949997,21.90
7341158,-0.112728,0.029280,0.974536,14.700000,55.230000,-91.839996,21.85
7341169,-0.213744,0.002928,0.904264,5.600000,17.430000,-89.180000,21.85
7341181,-0.145912,0.068808,1.057984,2.660000,54.180000,-93.519997,21.86
7341192,-0.291824,0.110288,1.041392,-6.370000,37.310001,-90.790001,21.86
7341203,-0.258152,0.111264,1.030168,-16.660000,36.820000,-86.800003,21.90
7341214,-0.278160,0.024888,1.051640,-23.660000,36.259998,-80.500000,21.86
7341225,-0.315248,0.027328,1.076528,-24.500000,28.700001,-78.470001,21.86
7341236,-0.329400,-0.013664,1.110200,-24.570000,24.570000,-73.500000,21.89
7341247,-0.347456,0.004880,1.115568,-15.680000,15.540000,-66.360001,21.89
7341258,-0.295240,0.013176,1.092632,-4.340000,10.150000,-55.790001,21.84
7341269,-0.267912,0.020984,1.088240,4.900000,5.950000,-47.950001,21.90
7341280,-0.291336,0.028792,1.123376,10.080000,-1.120000,-36.680000,21.90
7341291,-0.309880,0.049288,1.141920,19.180000,-7.700000,-24.080000,21.90
7341302,-0.292312,0.086864,1.089216,30.240000,-16.450001,-10.780000,21.90
7341313,-0.234240,0.127368,1.057984,33.669998,-22.190001,6.930000,21.89
7341324,-0.208376,0.129808,1.027240,32.830002,-24.639999,23.309999,21.89
7341335,-0.216672,0.161528,0.999424,27.719999,-24.850000,37.380001,21.82
7341346,-0.221064,0.157624,1.002840,18.200001,-26.740000,46.549999,21.84
7341357,-0.234240,0.112728,1.020896,12.180000,-27.299999,56.070000,21.84
7341368,-0.244976,0.092720,1.027728,10.150000,-29.959999,64.750000,21.87
7341379,-0.250832,0.084912,0.987224,7.350000,-31.290001,70.209999,21.87
7341390,-0.200080,0.048800,0.941840,5.250000,-32.970001,73.570000,21.90
7341401,-0.158112,0.017080,0.921344,6.090000,-30.940001,74.620003,21.87
7341412,-0.124928,0.039528,0.929640,4.970000,-29.750000,76.160004,21.87
7341423,-0.096624,0.002928,0.947208,3.010000,-28.980000,75.459999,21.89
7341434,-0.076616,-0.058072,0.951112,5.250000,-27.020000,73.709999,21.89
7341445,-0.033672,-0.044896,0.937936,9.310000,-26.040001,70.980003,21.86
7341456,-0.015128,-0.025864,0.915488,13.650000,-28.139999,69.230003,21.80
7341467,0.060512,0.017568,0.900360,12.460000,-22.889999,65.519997,21.80
7341478,0.073688,-0.010248,0.928176,12.040000,-18.760000,62.720001,21.87
7341489,0.081496,-0.020496,0.967704,13.160000,-15.890000,59.849998,21.87
7341500,0.068808,0.004880,0.960872,15.610000,-15.960000,57.610001,21.84
7341511,0.236192,0.016104,0.941352,13.440000,-16.379999,56.000000,21.84
7341522,0.173728,0.013176,0.957944,8.470000,-15.120000,52.500000,21.86
7341532,0.213256,0.022448,0.971608,5.320000,-13.580000,49.000000,21.85
7341543,0.239120,0.013176,0.991616,4.200000,-12.740000,44.240002,21.85
7341554,0.239120,-0.003416,1.028216,4.410000,-11.620000,39.830002,21.88
7341565,0.248392,-0.007320,1.013576,8.330000,-11.970000,35.419998,21.88
7341576,0.312320,0.010736,0.983320,10.220000,-12.320000,32.549999,21.84
7341587,0.357704,0.006832,0.972096,10.640000,-11.480000,29.190001,21.86
7341598,0.394304,0.012688,0.979416,10.500000,-8.610000,25.969999,21.86
7341609,0.399184,0.045384,1.001864,10.010000,-7.210000,21.840000,21.86
7341620,0.397232,0.060024,1.027728,8.260000,-7.210000,18.129999,21.86
7341631,0.407968,0.067344,1.038464,5.670000,-7.420000,16.520000,21.87
7341642,0.453840,0.058072,1.018944,5.530000,-8.400000,14.420000,21.87
7341653,0.497760,0.059048,1.004792,3.150000,-7.350000,12.530000,21.86
7341663,0.515328,0.050752,1.015040,-0.700000,-4.480000,10.010000,21.86
7341674,0.517768,0.068808,1.014064,-3.990000,-3.080000,7.420000,21.86
7341685,0.500200,0.101016,1.047248,-18.549999,-6.160000,4.200000,21.85
7341696,0.523624,0.068808,1.037000,-10.780000,-0.210000,4.060000,21.85
7341707,0.534848,0.058072,1.036512,-10.500000,0.140000,0.910000,21.82
7341718,0.558760,0.024400,1.033096,-9.380000,2.590000,-2.170000,21.84
7341729,0.552904,0.021960,1.043832,-7.140000,5.530000,-4.060000,21.84
7341739,0.535336,0.040016,1.047248,-5.390000,7.420000,-7.280000,21.86
7341750,0.531920,0.052216,1.052128,-5.320000,9.100000,-8.890000,21.86
7341761,0.527040,0.057096,1.055056,-6.300000,10.220000,-9.870000,21.86
7341772,0.505568,0.082960,1.072624,-7.560000,9.800000,-12.040000,21.86
7341783,0.494344,0.083448,1.081408,-10.360000,9.240000,-14.700000,21.84
7341794,0.508008,0.040992,1.075552,-12.460000,10.990000,-16.520000,21.86
7341805,0.500200,0.017080,1.066280,-12.810000,11.830000,-20.370001,21.86
7341816,0.479704,0.006344,1.049200,-13.020000,12.950000,-25.410000,21.90
7341827,0.461648,0.007808,1.018944,-15.330000,14.140000,-29.820000,21.90
7341838,0.436272,0.007320,0.990152,-19.250000,15.400000,-34.160000,21.87
7341849,0.413824,-0.011224,0.982344,-24.639999,16.730000,-39.549999,21.87
7341860,0.390888,-0.034160,0.984784,-32.549999,17.430000,-45.779999,21.87
7341871,0.352824,-0.046360,0.976000,-40.599998,17.920000,-51.099998,21.86
7341882,0.327936,-0.068320,0.971608,-49.000000,19.879999,-57.959999,21.86
7341893,0.277184,-0.100040,0.952576,-53.410000,23.590000,-66.430000,21.86
7341904,0.219600,-0.124928,0.952088,-57.259998,27.510000,-74.339996,21.88
7341915,0.157624,-0.151768,0.958432,-64.050003,29.049999,-81.059998,21.88
7341927,0.052216,-0.237656,1.006256,-64.610001,32.270000,-89.250000,21.89
7341938,-0.045384,-0.260104,0.993568,-59.709999,32.900002,-97.160004,21.89
7341949,-0.120048,-0.271328,0.958432,-42.560001,34.860001,-105.000000,21.87
7341960,-0.221064,-0.186416,0.904264,-26.459999,35.840000,-106.540001,21.85
7341971,-0.297192,-0.065880,0.872056,-12.670000,36.889999,-105.349998,21.85
7341982,-0.326960,0.040992,0.873520,-3.010000,38.570000,-102.690002,21.88
7341993,-0.341600,0.067344,0.956480,24.990000,10.010000,-87.500000,21.88
7342004,-0.263032,0.241072,1.064816,-4.900000,38.150002,-87.080002,21.90
7342015,-0.447008,0.125416,1.044320,-3.500000,22.610001,-79.099998,21.85
7342026,-0.374296,0.172264,1.059936,-4.830000,16.520000,-63.560001,21.85
7342037,-0.329400,0.139568,1.045784,-13.510000,17.290001,-45.220001,21.86
7342048,-0.292312,0.079056,1.044320,-17.010000,9.660000,-30.730000,21.86
7342059,-0.223504,0.027816,1.045296,-14.140000,8.890000,-17.920000,21.89
7342070,-0.269376,-0.016592,1.041880,-10.920000,-0.980000,-5.180000,21.89
