timestamp_ms,ax,ay,az,gx,gy,gz,tempC
613267,0.441640,-0.120048,0.740784,2.380000,-76.300003,30.799999,19.75
613278,0.445544,-0.099552,0.679784,2.100000,-74.199997,32.410000,19.75
613290,0.426512,-0.073688,0.671000,-1.540000,-69.860001,33.389999,19.74
613301,0.417728,-0.058072,0.689544,-6.790000,-66.360001,34.160000,19.71
613312,0.405528,-0.061488,0.707112,-8.820000,-60.689999,34.230000,19.71
613323,0.388448,-0.075640,0.713456,-7.420000,-55.790001,33.740002,19.75
613334,0.388936,-0.110776,0.699792,-4.340000,-52.570000,33.110001,19.75
613346,0.391376,-0.147376,0.673928,0.000000,-48.580002,32.480000,19.73
613356,0.384544,-0.160552,0.656360,2.870000,-44.939999,31.920000,19.68
613367,0.386984,-0.149816,0.636352,2.660000,-41.160000,31.430000,19.68
613378,0.385032,-0.134688,0.582184,-1.470000,-37.240002,30.940001,19.75
613389,0.376248,-0.110776,0.544608,-3.710000,-33.250000,30.940001,19.75
613400,0.415288,-0.114192,0.542656,-4.200000,-29.400000,30.799999,19.70
613411,0.412848,-0.151768,0.565592,-5.040000,-25.129999,28.000000,19.72
613422,0.423584,-0.173240,0.607560,-6.580000,-22.190001,25.830000,19.72
613433,0.433832,-0.219600,0.622688,-4.760000,-19.670000,23.520000,19.73
613444,0.435296,-0.223016,0.629520,-1.890000,-17.570000,21.420000,19.73
613455,0.435296,-0.206912,0.610488,-0.910000,-16.379999,18.760000,19.77
613466,0.464576,-0.186904,0.579744,-0.140000,-12.740000,17.920000,19.71
613477,0.481656,-0.213256,0.554856,-2.030000,-6.300000,16.940001,19.71
613488,0.482632,-0.238144,0.549488,-4.200000,-1.540000,16.170000,19.72
613499,0.487024,-0.283040,0.575840,-0.700000,3.290000,14.980000,19.72
613510,0.485560,-0.302072,0.611952,1.890000,7.980000,13.580000,19.72
613521,0.498736,-0.272792,0.648552,3.360000,8.680000,15.330000,19.72
613532,0.555832,-0.240584,0.707600,-4.760000,11.410000,16.520000,19.69
613543,0.565104,-0.234728,0.760792,-13.440000,15.190000,17.780001,19.73
613554,0.589992,-0.265472,0.800808,-21.559999,16.379999,18.340000,19.73
613565,0.626104,-0.392840,0.826672,-30.309999,18.900000,19.250000,19.74
613576,0.629032,-0.423096,0.881328,-41.860001,16.450001,21.070000,19.74
613587,0.682224,-0.443104,0.921832,-50.330002,11.760000,24.570000,19.75
613598,0.711504,-0.464088,0.982832,-59.500000,8.960000,26.110001,19.67
613609,0.740296,-0.457256,1.043832,-61.810001,7.910000,27.230000,19.67
613620,0.740784,-0.465552,1.084824,-56.980000,8.050000,26.389999,19.68
613631,0.718824,-0.447496,1.085800,-51.799999,6.300000,24.290001,19.68
613642,0.726632,-0.441640,1.057496,-43.189999,6.020000,23.030001,19.73
613653,0.701256,-0.458720,1.025776,-27.440001,3.570000,21.209999,19.74
613664,0.710528,-0.468480,0.963312,-12.600000,-8.120000,19.740000,19.74
613675,0.722728,-0.380640,0.953064,-11.830000,-12.320000,21.209999,19.75
613687,0.725656,-0.352336,1.021384,-15.960000,-16.170000,23.379999,19.75
613698,0.700768,-0.291336,1.081408,-26.670000,-23.309999,27.370001,19.74
613709,0.680760,-0.271328,1.095560,-39.549999,-31.150000,30.240000,19.74
613720,0.667096,-0.333304,1.085800,-45.849998,-38.919998,32.759998,19.73
613730,0.630496,-0.334280,1.031144,-51.029999,-46.619999,34.720001,19.71
613742,0.610000,-0.289384,0.937936,-60.200001,-55.299999,36.189999,19.71
613752,0.598288,-0.357704,0.815936,-62.020000,-62.090000,36.330002,19.74
613764,0.581208,-0.369416,0.724680,-55.650002,-67.550003,34.580002,19.74
613775,0.570472,-0.323056,0.681736,-49.840000,-72.800003,33.529999,19.71
613786,0.561688,-0.343064,0.664168,-42.139999,-75.599998,30.030001,19.71
613797,0.553880,-0.387960,0.626104,-31.850000,-77.980003,25.270000,19.71
613808,0.522648,-0.357216,0.551440,-23.660000,-79.309998,22.540001,19.72
613819,0.513864,-0.361608,0.507032,-19.950001,-79.519997,20.299999,19.72
613830,0.495320,-0.411872,0.474336,-13.160000,-78.540001,17.500000,19.73
613841,0.492880,-0.401136,0.448472,-4.970000,-77.980003,15.540000,19.71
613852,0.487512,-0.407480,0.434320,1.960000,-75.320000,13.230000,19.71
613863,0.481656,-0.424072,0.420656,11.760000,-71.680000,11.340000,19.73
613874,0.514352,-0.432368,0.400160,18.690001,-64.330002,9.380000,19.73
613885,0.482632,-0.433832,0.409432,26.180000,-59.779999,7.630000,19.75
613896,0.481168,-0.458232,0.250832,36.259998,-53.410000,5.530000,19.78
613907,0.484584,-0.475312,0.335256,43.540001,-44.939999,2.100000,19.78
613918,0.503128,-0.463112,0.325008,52.360001,-38.430000,-0.420000,19.71
613929,0.522648,-0.445056,0.315736,60.830002,-26.250000,-3.500000,19.71
613940,0.522160,-0.481168,0.328424,68.669998,-17.639999,-4.620000,19.71
613951,0.528992,-0.492880,0.396256,76.300003,-8.540000,-5.320000,19.71
613962,0.525088,-0.467504,0.492880,77.209999,-1.890000,-4.690000,19.70
613973,0.521672,-0.571936,0.569496,78.120003,2.520000,-4.200000,19.69
613984,0.526064,-0.534848,0.616344,75.599998,6.930000,-7.350000,19.69
613995,0.546072,-0.386496,0.663680,60.270000,5.670000,-4.550000,19.75
614006,0.567056,-0.463600,0.587064,56.770000,8.470000,-8.610000,19.75
614017,0.558272,-0.491904,0.573400,53.270000,12.740000,-12.600000,19.70
614027,0.593408,-0.509960,0.497272,46.480000,18.480000,-17.080000,19.73
614038,0.575352,-0.415288,0.495320,29.820000,18.059999,-17.709999,19.73
614049,0.561200,-0.328912,0.585600,8.610000,19.740000,-13.650000,19.70
614060,0.540216,-0.474824,0.749080,-3.500000,15.120000,-16.590000,19.70
614071,0.625128,-0.360144,0.858392,-15.120000,12.110000,-17.010000,19.75
614082,0.887672,-0.242536,0.607560,-23.240000,9.590000,-6.090000,19.75
614093,1.103368,-0.510936,1.064328,-49.419998,24.990000,-6.440000,19.68
614104,0.802760,-0.364536,0.895480,-50.330002,24.010000,-13.020000,19.69
614115,0.721264,-0.366000,0.793000,-65.169998,25.690001,-9.730000,19.69
614127,0.688080,-0.474824,0.723216,-71.470001,28.209999,-5.040000,19.75
614138,0.654896,-0.615856,0.799344,-63.000000,25.200001,-8.120000,19.75
614149,0.646600,-0.389912,0.817400,-60.759998,15.260000,-7.630000,19.75
614160,0.717848,-0.217160,0.813008,-58.450001,15.610000,-9.240000,19.71
614171,0.773968,-0.250832,0.791048,-54.529999,20.160000,-15.120000,19.71
614182,0.758352,-0.409432,0.668560,-45.360001,24.990000,-25.830000,19.67
614193,0.743224,-0.435784,0.676368,-37.799999,23.240000,-30.100000,19.67
614204,0.779824,-0.512400,0.858880,-32.619999,21.490000,-30.940001,19.75
614215,0.736880,-0.605608,0.909144,-10.220000,16.450001,-37.520000,19.71
614226,0.728584,-0.442616,0.978440,-2.940000,8.050000,-38.430000,19.71
614237,0.715408,-0.315736,0.974536,-11.200000,3.990000,-39.200001,19.76
614248,0.707112,-0.374296,0.882792,-21.420000,9.380000,-44.240002,19.76
614259,0.761768,-0.547048,0.727120,-12.250000,12.600000,-53.759998,19.71
614270,0.739320,-0.676856,0.584624,3.990000,17.709999,-60.689999,19.75
614281,0.679784,-0.856440,0.360144,44.169998,36.330002,-71.470001,19.75
614292,0.622200,-0.965752,0.273280,80.849998,60.480000,-56.910000,19.71
614303,0.406016,-0.786168,0.302072,120.680000,67.480003,-73.919998,19.71
614314,0.423096,-0.569984,0.420656,163.100006,53.410000,-76.580002,19.74
614325,0.619272,-0.591456,0.500688,202.020004,49.490002,-66.919998,19.68
614336,0.604144,-0.584624,0.549000,238.630005,52.919998,-80.639999,19.68
614347,0.599264,-0.358192,0.591456,283.359985,53.340000,-82.669998,19.72
614358,0.591456,-0.249368,0.575840,309.190002,55.369999,-62.720001,19.72
614369,0.619760,-0.270840,0.541192,355.529999,62.439999,-57.470001,19.68
614380,0.565104,-0.336720,0.393816,366.450012,70.070000,-120.750000,19.68
614392,0.810568,-0.218136,0.238632,382.619995,54.110001,-51.310001,19.72
614403,0.429928,-0.375272,0.198128,450.239990,70.349998,-59.430000,19.74
614414,0.636352,-0.243512,0.104432,496.160004,65.309998,-47.320000,19.74
614425,0.657824,-0.006832,0.063928,548.030029,68.669998,-51.240002,19.74
614436,0.627080,0.469456,0.130296,552.090027,65.449997,-14.630000,19.74
614447,0.554856,0.827160,0.195688,526.119995,57.889999,-2.240000,19.74
614458,0.535824,0.941840,0.223992,498.750000,50.959999,-0.070000,19.69
614468,0.610000,0.989664,0.339160,472.010010,48.650002,16.450001,19.69
614479,1.088240,1.439600,0.304512,397.880005,88.059998,15.680000,19.74
614490,0.313296,1.159976,0.418216,362.179993,25.620001,18.270000,19.74
614501,0.608048,1.273192,0.483608,308.839996,31.080000,2.520000,19.71
614511,0.511912,1.222440,0.496296,273.700012,29.190001,-11.130000,19.70
614523,0.494344,1.169248,0.382104,229.740005,16.450001,13.440000,19.70
614534,0.497272,1.109224,0.509472,211.470001,8.890000,5.250000,19.74
614545,0.380640,1.250256,0.488488,177.309998,3.850000,13.650000,19.74
614555,0.485560,1.135576,0.541192,144.059998,8.330000,24.570000,19.70
614566,0.447008,1.239032,0.506544,115.150002,7.700000,30.590000,19.70
614577,0.366488,1.201944,0.493368,73.570000,-8.960000,37.380001,19.71
614587,0.444080,1.135088,0.443104,38.849998,-11.900000,38.080002,19.71
614598,0.454816,1.052616,0.393816,-4.270000,-11.410000,50.750000,19.71
614609,0.509472,1.014064,0.383568,-48.369999,-10.710000,45.570000,19.72
614620,0.540216,0.937448,0.410408,-83.650002,-17.709999,44.939999,19.72
614631,0.572912,0.997960,0.397232,-135.869995,-18.760000,56.490002,19.70
614642,0.556808,1.130208,0.371856,-207.199997,-21.910000,58.380001,19.77
614653,0.500200,1.275632,0.311832,-277.200012,-28.770000,59.570000,19.77
614664,0.490928,1.261968,0.309880,-362.040009,-32.970001,54.599998,19.73
614675,0.525088,1.128744,0.366976,-473.970001,-34.299999,46.480000,19.73
614686,0.562176,0.853512,0.316712,-549.919983,-34.509998,35.349998,19.77
614697,0.578768,0.569496,0.241072,-618.799988,-36.820000,29.820000,19.77
614708,0.561688,0.217160,0.123952,-673.679993,-47.529999,15.120000,19.75
614719,0.580232,-0.044408,-0.036112,-713.650024,-68.949997,11.620000,19.73
614731,0.610488,-0.500688,0.105408,-669.340027,-91.349998,8.610000,19.73
614742,0.693936,-0.740784,0.308416,-598.080017,-80.919998,13.160000,19.76
614753,0.722240,-0.587552,0.718824,-520.799988,-67.970001,19.250000,19.76
614764,0.734440,-0.158112,0.972096,-482.440002,-59.360001,69.510002,19.74
614775,0.504592,-0.206912,1.046272,-459.899994,-52.709999,0.840000,19.72
614786,0.735904,-0.289872,0.930128,-405.649994,-55.930000,-19.670000,19.72
614798,0.802760,-0.401624,0.651480,-333.130005,-40.040001,-3.080000,19.75
614809,0.788608,-0.133712,0.467504,-260.190002,-39.619999,35.000000,19.75
614820,0.602680,-0.244488,0.398696,-198.589996,-19.459999,11.760000,19.70
614831,0.763720,-0.304512,0.466528,-142.520004,-15.330000,-8.470000,19.74
614842,0.736880,-0.422608,0.616832,-93.800003,-7.700000,-0.070000,19.74
614854,0.736880,-0.421144,0.687104,-69.510002,-5.600000,-14.840000,19.70
614865,0.746640,-0.477752,0.777384,-55.439999,-4.340000,-14.630000,19.70
614876,0.727608,-0.459696,0.799344,-43.750000,-6.090000,-13.300000,19.70
614887,0.762744,-0.469944,0.666120,-22.750000,-3.010000,-12.950000,19.74
614898,0.745176,-0.333304,0.600240,-6.930000,-3.360000,-14.000000,19.74
614909,0.733952,-0.249856,0.522160,-3.080000,-3.080000,-15.470000,19.75
614920,0.753472,-0.325008,0.524112,4.900000,-1.050000,-18.760000,19.75
614932,0.765672,-0.369416,0.626592,13.720000,-1.260000,-21.139999,19.74
614943,0.792024,-0.434320,0.674904,26.250000,5.390000,-24.990000,19.70
614954,0.849608,-0.677344,0.685640,53.759998,18.620001,-35.630001,19.70
614965,0.856928,-0.844728,0.648064,116.690002,27.860001,-50.470001,19.75
614976,0.853512,-0.896456,0.612928,194.949997,37.660000,-64.610001,19.75
614988,0.821792,-0.897920,0.552904,267.190002,51.169998,-77.699997,19.73
614999,0.773968,-0.930616,0.443592,343.980011,69.860001,-87.919998,19.68
615010,0.713944,-1.015528,0.224480,404.880005,95.550003,-93.730003,19.68
615021,0.630984,-0.952088,0.149816,462.910004,108.779999,-94.360001,19.72
615032,0.543144,-0.671488,0.109800,518.840027,117.669998,-92.260002,19.72
615043,0.409920,-0.420168,0.103944,555.520020,117.949997,-127.820000,19.71
615055,0.549000,-0.275232,0.157136,568.750000,95.339996,-89.879997,19.73
615066,0.389424,-0.078080,0.087352,574.559998,94.849998,-137.690002,19.73
615078,0.600728,-0.047336,0.006344,577.289978,73.150002,-104.370003,19.71
615090,0.685152,0.168848,-0.181536,608.650024,92.750000,-96.389999,19.71
615101,0.962824,0.662216,-0.110288,598.640015,119.279999,-59.220001,19.71
615112,0.157624,0.924760,-0.410408,576.450012,76.019997,-39.410000,19.74
615124,0.438224,1.511336,-0.450424,476.559998,73.080002,-83.720001,19.74
615136,0.492880,1.515240,-0.309880,414.679993,69.019997,-26.809999,19.71
615147,0.484584,1.325408,-0.372344,370.929993,70.839996,-21.559999,19.74
615159,0.512400,1.392264,-0.348920,339.149994,75.739998,-14.910000,19.74
615170,0.487512,1.559648,-0.363560,329.489990,83.230003,-15.330000,19.74
615181,0.447008,1.722152,-0.208376,293.230011,84.629997,-6.230000,19.74
615193,0.416264,1.789984,-0.047824,227.779999,74.129997,0.560000,19.71
615204,0.404064,1.655784,0.037088,183.119995,67.059998,2.940000,19.68
615216,0.404552,1.453752,0.139568,147.279999,58.799999,18.270000,19.68
615227,0.385032,1.437648,0.217648,99.680000,47.669998,31.080000,19.73
615239,0.344528,1.440576,0.239120,43.259998,34.369999,29.469999,19.73
615250,0.369416,1.235128,0.264008,7.490000,29.610001,37.939999,19.72
615262,0.307440,1.184376,0.330376,-33.669998,28.840000,-1.120000,19.70
615273,0.483120,1.133136,0.279136,-52.150002,16.730000,29.610001,19.70
615285,0.465552,1.020896,0.265960,-79.589996,12.600000,52.290001,19.71
615296,0.398208,0.955016,0.270840,-103.320000,6.860000,59.990002,19.73
615307,0.422120,1.000888,0.129320,-133.699997,0.210000,60.970001,19.73
615319,0.407968,1.059936,0.254736,-166.669998,-9.240000,63.840000,19.74
615330,0.449448,1.017968,0.297192,-215.809998,-17.570000,69.089996,19.74
615342,0.438712,1.049688,0.322568,-253.889999,-26.320000,69.370003,19.73
615353,0.485560,0.850584,0.424072,-289.730011,-30.309999,61.110001,19.76
615365,0.504104,0.814472,0.432856,-335.369995,-29.750000,57.680000,19.76
615376,0.489952,0.967216,0.374296,-384.299988,-31.850000,63.419998,19.74
615387,0.461648,1.015528,0.361120,-456.609985,-38.080002,60.759998,19.74
615398,0.597312,0.950624,0.329888,-531.510010,-36.049999,82.389999,19.73
615410,0.531432,0.726632,0.470432,-634.130005,-21.280001,61.740002,19.71
615421,0.502152,0.337696,0.243024,-683.900024,-50.259998,25.549999,19.71
615433,0.519720,-0.033672,0.176656,-689.500000,-69.370003,10.150000,19.74
615444,0.610976,-0.386496,0.265960,-644.419983,-83.160004,6.510000,19.70
615456,0.676368,-0.413336,0.496784,-581.070007,-88.059998,17.360001,19.70
615468,0.654896,-0.167384,0.811544,-535.849976,-94.360001,32.549999,19.73
615479,0.624152,-0.233752,0.998936,-503.859985,-73.500000,18.129999,19.73
615490,0.692960,0.000976,0.990640,-466.480011,-65.870003,31.990000,19.71
615501,0.869128,0.040016,0.852048,-423.570007,-58.660000,75.739998,19.74
615512,0.528016,-0.184952,0.600728,-361.690002,-59.570000,-2.660000,19.74
615524,0.830088,-0.252784,0.463600,-289.450012,-53.130001,-3.430000,19.75
615536,0.815448,-0.288408,0.337208,-222.320007,-36.540001,-1.260000,19.75
615548,0.806664,-0.347456,0.359168,-161.350006,-27.370001,-3.500000,19.75
615559,0.991128,-0.327936,0.490440,-110.180000,-18.690001,10.710000,19.75
615571,0.646112,-0.339160,0.570960,-80.849998,-12.740000,-18.900000,19.75
615583,0.778360,-0.376736,0.667096,-70.839996,-6.230000,-12.740000,19.70
615594,0.748592,-0.428464,0.704184,-55.720001,-4.830000,-14.000000,19.72
615606,0.755424,-0.397720,0.699304,-44.450001,-2.660000,-13.790000,19.72
615618,0.753960,-0.380152,0.601704,-36.189999,-1.050000,-14.840000,19.74
615630,0.756400,-0.358192,0.537776,-28.910000,-0.140000,-15.960000,19.74
615641,0.749080,-0.319152,0.564616,-27.370001,-1.330000,-16.799999,19.70
615653,0.723704,-0.330864,0.648552,-31.290001,0.210000,-18.760000,19.74
615664,0.732000,-0.386008,0.720776,-27.020000,-0.630000,-17.360001,19.74
615676,0.749080,-0.413824,0.737368,-13.930000,-0.140000,-15.190000,19.70
615688,0.890600,-0.361120,0.685640,11.550000,-1.960000,5.740000,19.70
615699,0.702232,-0.368440,0.669536,43.470001,-4.200000,-27.020000,19.70
615711,0.830088,-0.484096,0.670512,79.730003,-0.140000,-29.610001,19.72
615723,0.835456,-0.718336,0.610976,134.610001,6.790000,-51.660000,19.72
615734,0.825696,-0.834968,0.539728,191.169998,20.230000,-60.900002,19.71
615746,0.785192,-0.609512,0.467504,233.520004,29.469999,-66.919998,19.71
615758,0.798856,-0.491904,0.452864,261.309998,46.689999,-65.800003,19.71
615770,0.821792,-0.575840,0.385032,299.600006,67.760002,-69.720001,19.74
615782,0.789584,-0.605120,0.345016,348.670013,90.230003,-70.279999,19.70
615793,0.697352,-0.445544,0.364536,382.480011,97.300003,-66.010002,19.70
615805,0.584624,-0.213256,0.331840,400.540009,99.959999,-57.470001,19.73
615816,0.502640,-0.112240,0.326472,412.579987,87.150002,-55.230000,19.73
615827,0.514352,0.000488,0.322568,428.609985,74.620003,-61.529999,19.71
615838,0.512400,0.090768,0.328912,434.559998,72.449997,-80.849998,19.75
615850,0.660752,0.225456,0.309392,427.420013,76.230003,-46.689999,19.75
615861,0.793976,0.248392,0.213744,433.649994,91.419998,-51.869999,19.75
615873,0.565104,0.455792,0.228872,473.480011,47.389999,-69.790001,19.75
615884,0.750544,0.687104,0.203008,448.000000,64.470001,-63.630001,19.72
615896,0.566080,0.768600,0.141520,430.149994,70.139999,-73.709999,19.73
615907,0.576816,0.848144,0.140056,402.290009,55.090000,-37.590000,19.73
615918,0.508008,0.945256,0.078080,381.010010,64.540001,-49.630001,19.73
615929,0.596336,1.122400,0.093208,333.619995,73.010002,-5.180000,19.73
615941,0.500200,1.234152,0.008784,285.529999,71.820000,5.950000,19.69
615952,0.508984,1.184864,0.134688,249.830002,61.459999,15.540000,19.73
615963,0.552416,1.194136,0.177632,212.380005,59.570000,13.580000,19.73
615974,0.557784,1.167784,0.236192,181.929993,56.770000,17.150000,19.75
615986,0.598288,1.027728,0.192760,174.300003,56.840000,20.790001,19.73
615997,0.455304,1.134112,0.094672,160.369995,57.049999,27.370001,19.73
616008,0.423096,1.201456,0.190808,129.149994,41.439999,27.230000,19.76
616019,0.522160,1.216096,0.277184,100.169998,43.889999,39.970001,19.76
616031,0.462624,1.328336,0.369904,69.019997,37.169998,37.310001,19.68
616043,0.466528,1.323944,0.401136,21.490000,30.170000,34.509998,19.69
616054,0.473848,1.178520,0.416264,-23.309999,21.980000,46.900002,19.69
616066,0.466528,1.079944,0.391864,-52.709999,17.010000,45.360001,19.73
616077,0.484584,0.932080,0.398696,-76.300003,9.170000,48.369999,19.73
616089,0.485560,0.928176,0.382592,-117.110001,6.300000,53.410000,19.74
616101,0.478240,1.002840,0.394792,-178.360001,-2.030000,59.639999,19.69
616113,0.473360,1.124352,0.400648,-247.309998,-11.270000,65.449997,19.69
616124,0.492880,1.199504,0.427488,-333.970001,-19.950001,70.489998,19.72
616136,0.509960,1.168272,0.423096,-421.119995,-16.590000,68.809998,19.73
616147,0.439200,1.135088,0.399672,-518.210022,-17.570000,55.860001,19.73
616159,0.546072,0.848632,0.284016,-633.010010,-19.600000,51.869999,19.72
616170,0.527040,0.300120,0.144448,-698.950012,-28.629999,18.760000,19.72
616182,0.509960,-0.198616,0.031720,-717.080017,-59.360001,22.120001,19.70
616194,0.552416,-0.506544,0.149816,-662.549988,-79.589996,22.540001,19.72
616205,0.610976,-0.484584,0.382104,-594.719971,-95.550003,41.650002,19.72
616217,0.746152,-0.294264,0.688568,-541.450012,-71.820000,51.660000,19.67
616229,0.778848,-0.353312,0.841800,-506.380005,-63.980000,33.669998,19.69
616240,0.810080,-0.466040,0.960384,-439.529999,-61.250000,36.330002,19.69
616251,0.539240,-0.489952,1.014552,-367.010010,-49.980000,8.330000,19.72
616263,0.744200,-0.283040,0.843264,-299.739990,-53.549999,-3.920000,19.72
616275,0.802760,-0.305000,0.614880,-229.809998,-35.419998,6.930000,19.75
616286,0.782264,-0.185440,0.469944,-179.270004,-28.840000,13.510000,19.70
616298,0.777384,-0.254248,0.436272,-142.520004,-10.150000,20.370001,19.70
616309,0.726144,-0.360144,0.452376,-90.790001,-7.910000,-15.190000,19.73
616321,0.772504,-0.516304,0.578768,-70.000000,-2.030000,-12.600000,19.73
616333,0.728096,-0.483120,0.699792,-49.910000,-3.360000,-14.980000,19.73
616345,0.729560,-0.476288,0.747616,-42.279999,-2.170000,-16.379999,19.71
616357,0.740784,-0.472384,0.730048,-31.709999,-1.260000,-15.820000,19.71
616369,0.737368,-0.400648,0.627568,-16.799999,2.100000,-16.870001,19.69
616380,0.742248,-0.365024,0.543144,1.890000,4.480000,-16.870001,19.69
616392,0.727120,-0.347456,0.524112,14.980000,4.620000,-21.700001,19.69
616403,0.748592,-0.480192,0.500688,31.080000,8.260000,-25.620001,19.75
616414,0.728584,-0.519720,0.542168,40.810001,10.290000,-28.490000,19.75
616426,0.711016,-0.474336,0.637816,48.369999,10.220000,-26.950001,19.70
616437,0.713944,-0.431880,0.728584,56.279999,9.660000,-25.549999,19.75
616449,0.742736,-0.397720,0.758352,69.860001,11.900000,-24.850000,19.75
616461,0.737856,-0.461648,0.772504,92.050003,14.070000,-27.090000,19.75
616473,0.742736,-0.523624,0.736392,127.050003,15.190000,-30.799999,19.66
616484,0.776896,-0.732488,0.628056,185.360001,25.620001,-39.689999,19.66
616496,0.791048,-0.989664,0.389912,273.980011,46.830002,-49.770000,19.73
616508,0.687104,-0.616832,0.289384,339.640015,58.799999,-42.700001,19.73
616519,0.645624,-0.209352,0.300120,355.809998,60.830002,-33.740002,19.68
616530,0.699304,0.035136,0.417728,364.279999,64.820000,-23.870001,19.75
616542,0.664168,0.159088,0.519232,361.480011,61.740002,-20.650000,19.75
616554,0.670512,0.201056,0.542656,352.309998,52.570000,-20.580000,19.72
616565,0.706136,0.063928,0.505568,348.600006,49.490002,-13.300000,19.73
616577,0.742248,0.055144,0.458232,358.399994,52.849998,-14.560000,19.73
616588,0.776408,0.051240,0.369416,373.450012,77.070000,-16.940001,19.74
616599,0.680272,0.085400,0.162016,404.600006,34.230000,1.820000,19.74
616611,0.671976,0.508496,0.076128,399.910004,55.369999,-23.379999,19.71
616622,0.789096,0.795928,0.104432,380.450012,38.779999,-6.580000,19.71
616633,0.668072,0.873032,0.126880,366.450012,43.540001,-3.710000,19.71
616645,0.494832,1.043344,0.163968,350.070007,48.509998,-34.650002,19.75
616656,0.713944,1.070184,0.263520,334.390015,48.439999,7.420000,19.75
616667,0.634888,0.966240,0.306464,324.239990,56.770000,10.640000,19.71
616678,0.605120,0.954040,0.388936,300.790009,55.860001,6.720000,19.68
616690,0.595848,1.024800,0.486536,278.809998,53.689999,14.630000,19.68
616701,0.554856,1.004304,0.560224,246.889999,50.400002,17.990000,19.73
616712,0.523136,1.077992,0.601216,218.259995,40.669998,22.680000,19.73
616724,0.543144,1.095560,0.595848,174.020004,40.110001,31.639999,19.72
616735,0.491416,0.923296,0.629520,145.669998,32.759998,31.080000,19.73
616747,0.513376,0.925736,0.617320,111.160004,28.980000,24.990000,19.73
616758,0.468480,0.830088,0.576328,85.610001,21.840000,23.170000,19.75
616769,0.499712,0.720776,0.528992,54.950001,16.379999,17.850000,19.75
616780,0.510936,0.685152,0.533872,59.849998,11.970000,16.799999,19.72
616791,0.437248,0.760304,0.448960,47.320000,6.790000,-4.060000,19.70
616803,0.629520,0.829112,0.460672,28.000000,5.740000,17.500000,19.70
616814,0.562176,0.895480,0.440664,4.830000,3.780000,31.639999,19.71
616825,0.551928,0.943304,0.459696,-24.290001,-5.810000,34.439999,19.68
616836,0.601704,0.902800,0.485560,-49.419998,-5.950000,34.230000,19.68
616848,0.597800,0.678320,0.545096,-60.410000,-8.890000,29.540001,19.68
616859,0.616832,0.649040,0.627568,-77.769997,-10.570000,32.689999,19.68
616871,0.650016,0.713944,0.540704,-66.989998,-14.840000,36.610001,19.70
616883,0.625128,0.825696,0.559736,-78.400002,-18.129999,33.180000,19.74
616895,0.598288,0.999424,0.545584,-123.129997,-22.820000,36.470001,19.74
616906,0.572424,1.165344,0.576816,-220.570007,-27.860001,36.470001,19.71
616918,0.530944,1.159000,0.613416,-309.190002,-30.240000,29.610001,19.71
616929,0.576816,0.998448,0.536312,-413.070007,-30.940001,24.430000,19.71
616940,0.598288,0.539728,0.486048,-472.850006,-33.110001,28.770000,19.71
616951,0.639280,0.151768,0.347456,-491.820007,-30.799999,40.950001,19.71
616963,0.582184,0.213256,0.365512,-500.149994,-30.730000,34.090000,19.72
616974,0.624152,0.310368,0.371856,-490.209991,-43.119999,25.410000,19.72
616985,0.596824,0.383568,0.474824,-486.220001,-47.810001,10.290000,19.71
616996,0.636352,0.402600,0.552416,-499.799988,-58.450001,6.230000,19.68
617008,0.671488,0.219112,0.600728,-507.920013,-68.949997,18.200001,19.68
617019,0.699792,0.142984,0.673928,-516.809998,-68.250000,28.420000,19.74
617031,0.651968,0.140544,0.539240,-499.730011,-67.480003,37.660000,19.68
617042,0.787144,-0.112728,0.526064,-482.089996,-52.009998,12.390000,19.68
617054,0.783240,-0.167384,0.456768,-426.649994,-44.730000,17.639999,19.69
617065,0.650016,-0.390400,0.510448,-377.790009,-32.130001,14.700000,19.69
617076,0.755424,-0.448960,0.345016,-289.940002,-35.700001,-19.670000,19.75
617088,0.884256,-0.476776,0.379176,-201.529999,-18.410000,-9.800000,19.70
617100,0.824232,-0.508496,0.381128,-137.690002,-7.140000,-14.280000,19.70
617112,0.836920,-0.509960,0.441640,-89.599998,0.770000,-12.530000,19.72
617124,0.882792,-0.369416,0.386496,-54.180000,-5.320000,25.410000,19.77
617135,0.606096,-0.338184,0.572424,-36.820000,4.410000,-17.990000,19.77
617147,0.800808,-0.355752,0.635376,-38.990002,10.570000,-17.290001,19.67
617158,0.766160,-0.442128,0.664168,-33.950001,11.060000,-20.440001,19.67
617169,0.760792,-0.420656,0.713944,-35.000000,10.990000,-21.420000,19.72
617181,0.755912,-0.431392,0.749568,-43.470001,9.030000,-21.000000,19.70
617192,0.753472,-0.408456,0.770552,-46.130001,5.530000,-18.900000,19.70
617204,0.781776,-0.386984,0.704672,-39.480000,8.680000,-18.690001,19.73
617216,0.787632,-0.420168,0.612440,-12.740000,12.180000,-20.719999,19.73
617227,0.774456,-0.440664,0.505568,23.590000,14.910000,-28.700001,19.71
617239,0.752496,-0.552416,0.486048,59.570000,16.940001,-35.419998,19.72
617250,0.719800,-0.558272,0.528016,82.599998,13.160000,-38.919998,19.72
617261,0.717360,-0.421144,0.588528,82.040001,13.860000,-34.020000,19.70
617273,0.767624,-0.362584,0.609512,78.330002,19.809999,-27.230000,19.70
617284,0.748104,-0.412848,0.638304,72.870003,24.709999,-28.420000,19.69
617295,0.732000,-0.473848,0.584624,70.070000,30.450001,-28.700001,19.70
617307,0.781776,-0.628056,0.436272,117.739998,47.880001,-21.139999,19.70
617319,0.812032,-0.606584,0.411384,204.259995,57.119999,-24.850000,19.73
617330,0.785680,-0.401624,0.445056,288.679993,61.320000,-32.480000,19.70
617341,0.730536,-0.281088,0.491416,329.839996,65.099998,-38.990002,19.70
617353,0.731024,-0.277184,0.550464,362.109985,68.739998,-39.480000,19.74
617364,0.678320,-0.125904,0.570472,377.440002,71.330002,-38.919998,19.74
617375,0.669536,-0.006832,0.571936,372.190002,64.470001,-36.959999,19.72
617387,0.683200,0.025376,0.551928,362.670013,56.139999,-27.299999,19.72
617398,0.741272,0.028792,0.467016,357.420013,56.070000,-13.300000,19.72
617410,0.650016,-0.075640,0.410408,391.440002,86.730003,-33.669998,19.74
617421,0.459696,-0.117608,0.186904,426.649994,43.610001,-87.430000,19.74
617432,0.762744,0.249368,0.361120,439.179993,36.680000,-43.330002,19.72
617444,0.664168,0.574376,0.276696,412.089996,52.570000,-39.410000,19.76
617455,0.432856,0.804224,0.246440,375.829987,35.490002,-59.360001,19.76
617466,0.640256,0.691496,0.377224,338.170013,28.490000,-23.450001,19.68
617477,0.536800,0.711992,0.315736,315.630005,35.349998,-24.430000,19.68
617488,0.633424,0.506056,0.268888,328.089996,35.700001,-26.530001,19.68
617500,0.731024,0.585112,0.237656,324.730011,48.580002,-7.140000,19.70
617511,0.593896,0.857904,0.222528,290.500000,47.529999,0.490000,19.70
617522,0.589992,0.930616,0.243512,258.790009,38.500000,5.530000,19.73
617533,0.593896,0.898896,0.215696,243.529999,39.689999,5.250000,19.73
617545,0.577792,0.697352,0.144448,247.940002,45.570000,0.490000,19.70
617556,0.521184,0.712480,0.073688,253.960007,44.660000,-22.540001,19.66
617567,0.511424,1.001864,0.108336,244.300003,45.290001,-38.849998,19.66
617579,0.581208,1.272216,0.156160,227.639999,48.790001,1.820000,19.73
617590,0.465064,1.436184,0.223992,193.270004,45.570000,10.710000,19.70
617602,0.449936,1.347856,0.338184,150.429993,33.320000,1.540000,19.70
617613,0.510936,1.109224,0.433832,119.699997,25.059999,-3.290000,19.72
617624,0.512400,1.002352,0.435784,89.739998,0.140000,4.690000,19.72
617635,0.529480,0.933056,0.471896,67.620003,13.300000,9.590000,19.72
617647,0.515328,0.897920,0.415776,55.439999,9.310000,21.910000,19.65
617658,0.455304,0.917440,0.411872,46.830002,1.890000,20.510000,19.65
617669,0.620736,0.885720,0.286456,38.150002,1.260000,16.379999,19.73
617679,0.497272,0.924272,0.319640,34.160000,-5.320000,16.730000,19.73
617691,0.507032,0.943304,0.224480,24.500000,-3.710000,18.200001,19.70
617702,0.503616,0.993080,0.116144,9.450000,-6.580000,19.740000,19.70
617713,0.557296,1.029192,0.083936,-9.450000,-8.260000,24.920000,19.69
617724,0.594384,1.061888,0.139568,-40.110001,-10.150000,25.969999,19.68
617736,0.636352,1.034072,0.193248,-82.529999,-10.780000,32.619999,19.68
617748,0.600240,0.952088,0.306464,-118.650002,-16.660000,33.599998,19.70
617759,0.612928,0.917928,0.346968,-142.660004,-18.830000,32.270000,19.66
617771,0.534848,1.087752,0.301584,-198.869995,-22.400000,34.020000,19.66
617782,0.549976,1.079456,0.332328,-272.440002,-25.760000,30.450001,19.73
617794,0.517280,0.912072,0.234728,-364.070007,-28.490000,25.340000,19.73
617806,0.609512,0.599264,0.256688,-419.440002,-30.520000,24.990000,19.68
617817,0.628544,0.346480,0.333304,-459.829987,-36.610001,36.959999,19.68
617828,0.675392,0.382592,0.338184,-480.970001,-32.060001,50.820000,19.68
617839,0.559248,0.373808,0.442616,-494.760010,-32.060001,26.670000,19.75
617851,0.565104,0.358680,0.550464,-513.729980,-42.349998,3.850000,19.75
617862,0.587064,0.246928,0.739808,-522.200012,-43.889999,-4.620000,19.66
617874,0.500688,0.512400,0.816424,-557.200012,-54.110001,-8.750000,19.70
617885,0.567056,0.479704,0.770064,-593.039978,-62.369999,1.960000,19.70
617896,0.626592,0.250832,0.742736,-610.330017,-65.099998,18.200001,19.71
617907,0.564616,0.097112,0.550952,-578.549988,-74.760002,41.230000,19.71
617919,0.732000,0.011712,0.592920,-562.099976,-69.370003,18.900000,19.68
617930,0.784704,0.132248,0.448472,-525.070007,-65.589996,52.709999,19.73
617942,0.614392,-0.026352,0.488976,-475.720001,-47.459999,22.469999,19.73
617953,0.687104,-0.163480,0.488000,-403.130005,-45.430000,6.300000,19.75
617965,0.850584,-0.419192,0.544120,-303.660004,-19.879999,23.170000,19.65
617976,0.759328,-0.473360,0.576816,-190.190002,-13.580000,4.690000,19.65
617987,0.808616,-0.392352,0.629032,-102.550003,-1.610000,10.920000,19.69
617999,0.945256,-0.326960,0.636840,-37.730000,-6.020000,52.919998,19.69
618010,0.638304,-0.306952,0.734440,-3.850000,-0.210000,-3.640000,19.76
618021,0.807640,-0.318664,0.784216,-1.610000,3.920000,-3.220000,19.70
618033,0.763232,-0.456768,0.775432,-3.780000,0.140000,-12.810000,19.70
618044,0.747616,-0.422608,0.757864,-10.500000,-3.920000,-13.300000,19.69
618055,0.731024,-0.380152,0.670512,-18.760000,-5.740000,-11.690000,19.69
618067,0.734928,-0.367952,0.617320,-19.250000,-3.290000,-8.470000,19.75
618078,0.749568,-0.425048,0.531432,1.330000,0.490000,-10.850000,19.69
618089,0.766160,-0.563640,0.458720,30.730000,8.470000,-17.850000,19.69
618101,0.753960,-0.638304,0.409432,58.520000,17.709999,-27.580000,19.71
618112,0.715896,-0.682224,0.391376,101.849998,23.870001,-38.220001,19.71
618124,0.707112,-0.589992,0.449936,134.399994,26.809999,-37.660000,19.66
618135,0.709064,-0.530456,0.510936,156.800003,28.840000,-35.490002,19.73
618146,0.796904,-0.523624,0.560224,180.039993,38.919998,-40.040001,19.73
618157,0.816424,-0.521184,0.610976,202.089996,47.880001,-44.660000,19.73
618169,0.782264,-0.554368,0.646112,229.110001,57.750000,-50.259998,19.68
618180,0.728096,-0.584624,0.591944,267.890015,69.510002,-52.009998,19.68
618192,0.683200,-0.672952,0.526064,323.119995,75.809998,-52.849998,19.69
618204,0.616344,-0.476776,0.525576,371.700012,84.209999,-52.919998,19.69
618215,0.543144,-0.226432,0.494832,398.160004,79.099998,-57.119999,19.70
618227,0.563152,-0.108336,0.465064,401.309998,66.779999,-59.639999,19.66
618238,0.604144,-0.067344,0.409920,404.459991,61.459999,-54.740002,19.66
618249,0.580720,0.036112,0.248392,406.209991,51.939999,-66.989998,19.73
618264,0.306952,-0.002440,0.167872,413.070007,37.029999,-62.160000,19.66
618276,0.804224,0.251808,0.062952,436.309998,48.439999,-55.580002,19.66
618288,0.580720,0.499224,-0.047824,457.029999,69.790001,-66.639999,19.71
618299,0.522648,0.676856,-0.137616,465.989990,74.970001,-36.259998,19.71
618311,0.366976,1.124840,-0.188368,462.839996,70.489998,-51.660000,19.70
618322,0.562176,1.216584,-0.128344,453.109985,71.889999,-24.780001,19.72
618333,0.589016,1.314184,-0.073200,431.619995,76.930000,-5.810000,19.72
618344,0.555344,1.366888,0.015616,394.380005,80.779999,-4.340000,19.77
618356,0.528992,1.336632,0.123952,362.880005,78.820000,-10.920000,19.67
618367,0.518744,1.405440,0.135176,322.420013,77.559998,-9.800000,19.67
618378,0.485560,1.439600,0.136152,292.109985,74.830002,9.870000,19.69
618390,0.374784,1.368840,0.171776,254.940002,61.320000,19.389999,19.69
618401,0.377224,1.336632,0.212280,222.740005,51.310001,21.559999,19.73
618412,0.439688,1.366400,0.257176,177.869995,50.889999,31.500000,19.70
618423,0.394792,1.324920,0.251320,140.419998,40.320000,33.880001,19.70
618434,0.440176,1.234640,0.308904,104.370003,36.119999,22.540001,19.71
618446,0.334768,1.054080,0.382592,70.839996,24.150000,-13.930000,19.71
618457,0.510936,0.966240,0.389912,45.009998,16.379999,18.690001,19.68
618468,0.473848,0.943792,0.385520,20.790001,13.300000,33.459999,19.70
618479,0.405040,0.996008,0.347944,-1.470000,3.640000,42.070000,19.70
618490,0.409432,1.115080,0.263520,-43.470001,-4.690000,40.180000,19.66
618501,0.419680,1.049200,0.199104,-74.410004,-11.270000,47.389999,19.66
618513,0.445544,0.982832,0.183976,-100.519997,-17.570000,48.790001,19.72
618524,0.522648,0.854488,0.237168,-119.209999,-21.700001,48.299999,19.70
618535,0.557784,0.813008,0.321592,-129.919998,-25.690001,48.720001,19.70
618547,0.526552,1.014064,0.373808,-166.389999,-32.060001,48.720001,19.73
618558,0.485560,1.259528,0.493368,-239.399994,-43.330002,46.130001,19.73
618570,0.454328,1.289296,0.482632,-329.559998,-49.840000,41.020000,19.69
618582,0.481168,1.207800,0.305000,-426.440002,-54.459999,46.689999,19.69
618593,0.507520,1.040416,0.201544,-499.100006,-54.459999,48.299999,19.69
618604,0.632448,0.728096,0.136640,-556.289978,-45.430000,61.250000,19.70
618616,0.630008,0.343552,0.143472,-602.700012,-40.459999,42.770000,19.70
618627,0.573888,-0.015128,0.282552,-603.469971,-45.220001,26.950001,19.71
618639,0.577304,0.031720,0.367464,-586.880005,-53.549999,16.730000,19.68
618650,0.610488,0.017080,0.395768,-558.739990,-63.490002,4.060000,19.68
618662,0.631472,0.080520,0.509960,-532.559998,-67.550003,-0.210000,19.68
618673,0.599264,0.068808,0.579744,-511.209991,-76.650002,2.100000,19.69
618684,0.583160,0.016104,0.549976,-492.029999,-83.440002,-12.320000,19.69
618695,0.795928,-0.141032,0.507520,-446.880005,-43.820000,17.290001,19.71
618707,0.702720,-0.192760,0.497272,-380.170013,-28.350000,-10.780000,19.71
618718,0.673440,-0.069784,0.448472,-316.540009,-19.389999,-17.570000,19.70
618729,0.784216,-0.157136,0.487512,-257.880005,3.570000,-12.740000,19.68
618741,0.951112,-0.059048,0.445544,-198.029999,18.270000,31.500000,19.68
618752,0.620248,-0.263032,0.578768,-143.570007,40.389999,-26.110001,19.68
618763,0.797880,-0.243024,0.716384,-110.389999,54.180000,-26.320000,19.68
618775,0.740784,-0.370880,0.762744,-69.440002,62.720001,-26.459999,19.69
618786,0.706624,-0.218624,0.858880,-56.209999,61.950001,-23.170000,19.73
618797,0.766160,-0.406992,0.897920,-43.119999,64.050003,-23.870001,19.73
618809,0.748104,-0.350384,0.929152,-24.360001,62.299999,-25.200001,19.73
618821,0.736880,-0.274744,0.961360,-19.180000,60.480000,-26.600000,19.73
618832,0.789096,-0.376248,0.955016,-2.310000,66.150002,-31.780001,19.71
618844,0.750544,-0.316224,1.027240,20.230000,67.900002,-37.730000,19.73
618855,0.706136,-0.114680,1.117032,27.299999,59.080002,-34.790001,19.73
618867,0.694424,0.092232,1.093608,11.130000,46.200001,-30.309999,19.71
618879,0.783240,0.058560,0.964776,4.830000,43.189999,-27.860001,19.67
618890,0.818864,-0.170312,0.896456,35.560001,49.490002,-44.310001,19.67
618902,0.773480,-0.299144,0.816424,84.000000,56.910000,-56.279999,19.69
618913,0.648064,-0.336720,0.882304,115.430000,54.320000,-65.940002,19.69
618925,0.528992,-0.310368,0.841312,128.309998,54.180000,-63.770000,19.69
618936,0.504104,-0.353800,0.811056,158.339996,54.529999,-49.840000,19.70
618948,0.513864,-0.368928,0.727120,207.479996,56.139999,-37.869999,19.70
618959,0.540216,-0.321592,0.588528,258.369995,56.000000,-26.950001,19.71
618971,0.535824,-0.181536,0.349896,299.600006,69.510002,-10.010000,19.71
618982,0.518744,-0.143472,0.235216,353.709991,68.320000,-0.770000,19.68
618993,0.485560,-0.045872,0.170312,366.660004,66.709999,9.030000,19.73
619004,0.367464,-0.070272,0.106872,400.260010,61.599998,9.870000,19.73
619016,0.328424,-0.055632,0.026352,450.940002,63.980000,4.550000,19.68
619027,0.281088,0.015128,-0.063928,518.070007,66.220001,-6.440000,19.70
619039,0.488488,0.462624,-0.113704,562.940002,56.209999,9.100000,19.70
619050,0.321104,0.735904,-0.116632,568.609985,56.139999,21.559999,19.70
619061,0.338672,1.078968,-0.075640,546.559998,51.310001,31.430000,19.70
619072,0.451888,1.206336,-0.031232,502.390015,49.980000,44.240002,19.74
619084,0.382104,1.326384,0.005856,446.950012,56.700001,61.320000,19.71
619095,0.405528,1.466440,0.194712,422.869995,33.880001,35.070000,19.71
619106,0.563152,1.751432,0.295240,361.970001,57.540001,19.600000,19.66
619117,0.465064,1.518656,0.342088,305.130005,65.379997,49.910000,19.66
619128,0.264496,1.373720,0.373320,271.880005,22.680000,55.650002,19.66
619140,0.504592,1.408368,0.463600,233.169998,18.830000,61.250000,19.69
619151,0.528504,1.426912,0.471896,179.970001,22.120001,67.900002,19.69
619161,0.512400,1.302960,0.519720,136.220001,13.580000,64.610001,19.68
619172,0.514840,1.207800,0.447984,83.790001,8.680000,59.009998,19.68
619183,0.417728,0.904752,0.410408,67.480003,-0.070000,36.119999,19.70
619195,0.547048,0.850096,0.378200,50.470001,-3.640000,35.980000,19.70
619206,0.566080,0.904752,0.301096,26.879999,-5.180000,46.060001,19.69
619217,0.528016,0.876448,0.267912,4.550000,-10.500000,47.529999,19.68
619228,0.515816,0.865712,0.303536,-9.870000,-18.200001,44.869999,19.68
619240,0.539728,0.994544,0.319640,-35.490002,-19.600000,56.630001,19.70
619251,0.513864,1.215608,0.319152,-82.949997,-20.020000,47.389999,19.70
619262,0.471408,1.242936,0.297680,-129.289993,-29.260000,49.840000,19.69
619274,0.469456,1.274656,0.272304,-203.139999,-36.540001,48.650002,19.71
619285,0.391376,1.179984,0.251320,-270.829987,-54.529999,43.540001,19.71
619297,0.508008,1.122400,0.263032,-341.529999,-52.639999,38.430000,19.66
619308,0.416752,1.063840,0.238144,-413.630005,-59.150002,36.680000,19.68
619319,0.457744,0.953552,0.215208,-491.609985,-60.130001,33.529999,19.68
619331,0.506056,0.715408,0.245952,-564.900024,-53.410000,30.940001,19.66
619342,0.542656,0.392352,0.223992,-632.520020,-54.880001,30.450001,19.66
619354,0.475800,0.194712,0.220088,-654.989990,-51.380001,20.930000,19.72
619365,0.446032,0.106872,0.280112,-648.340027,-55.580002,-8.050000,19.64
619377,0.546560,0.269864,0.398208,-646.799988,-60.340000,-9.450000,19.64
619389,0.595360,0.367952,0.548024,-640.219971,-69.650002,13.090000,19.71
619400,0.574376,0.335744,0.652944,-626.359985,-76.860001,22.049999,19.71
619411,0.569008,0.132736,0.730048,-581.770020,-56.910000,21.209999,19.68
619422,0.693448,-0.029280,0.725168,-506.380005,-59.430000,10.080000,19.68
619434,0.776408,-0.203984,0.762744,-410.410004,-50.680000,20.719999,19.68
619445,0.902312,-0.328912,0.661240,-304.989990,-35.000000,51.869999,19.68
619457,0.598288,-0.434808,0.649040,-184.729996,-14.840000,16.030001,19.66
619468,0.809592,-0.332816,0.668560,-101.500000,-10.780000,1.050000,19.66
619479,0.781288,-0.377224,0.698816,-29.049999,-7.910000,-2.310000,19.67
619491,0.743712,-0.215696,0.839360,-0.350000,-14.490000,-7.980000,19.67
619503,0.760792,-0.146400,0.962336,5.320000,-19.320000,-5.180000,19.74
619514,0.772504,-0.289872,0.972096,9.450000,-21.559999,-9.170000,19.68
619526,0.784216,-0.520696,0.886696,34.930000,-17.850000,-17.290001,19.68
619537,0.815936,-0.626592,0.727120,87.220001,-10.430000,-27.580000,19.68
619548,0.796416,-0.551928,0.555344,140.070007,2.240000,-33.110001,19.68
619560,0.805688,-0.582672,0.520208,189.279999,23.379999,-40.529999,19.71
619571,0.724680,-0.475312,0.495808,228.830002,31.990000,-43.119999,19.68
619583,0.707112,-0.458232,0.473360,260.260010,42.070000,-46.060001,19.68
619594,0.677344,-0.490440,0.424560,294.769989,55.439999,-50.470001,19.69
619605,0.661728,-0.465552,0.396744,325.500000,68.040001,-54.180000,19.69
619616,0.600240,-0.273280,0.394304,336.980011,69.300003,-56.560001,19.68
619627,0.604632,-0.011224,0.348920,334.250000,68.320000,-45.360001,19.66
619639,0.598776,-0.051728,0.296704,333.410004,67.690002,-31.010000,19.66
619650,0.656848,-0.140544,0.191296,357.980011,71.889999,-20.440001,19.71
619661,0.639280,-0.229360,0.080520,415.100006,86.940002,-21.490000,19.71
619672,0.550952,-0.139080,-0.089792,472.149994,129.080002,-67.199997,19.71
619683,0.373808,0.022448,-0.223992,531.440002,83.650002,-32.970001,19.65
619695,0.545096,0.360144,-0.158112,561.539978,82.599998,-67.900002,19.65
619706,0.405528,0.807640,-0.132248,562.940002,104.089996,-100.029999,19.69
619718,0.542656,0.978928,-0.075152,544.739990,102.830002,-34.930000,19.67
619729,0.405528,1.261968,-0.078080,526.609985,89.879997,-29.260000,19.67
619740,0.470432,1.471808,-0.025376,487.899994,85.750000,-11.480000,19.66
619752,0.515816,1.636752,0.008296,442.609985,85.400002,-0.560000,19.66
619763,0.513864,1.668960,0.033184,383.459991,83.370003,1.330000,19.75
619774,0.483120,1.702144,0.079544,310.309998,67.480003,5.740000,19.69
619785,0.491416,1.654320,0.153232,234.220001,50.680000,4.550000,19.69
619797,0.397232,1.450336,0.159576,165.830002,45.430000,-30.170000,19.73
619808,0.493368,1.386896,0.229360,117.739998,28.700001,-9.800000,19.73
619819,0.523624,1.046760,0.218136,82.529999,25.690001,24.290001,19.69
619831,0.406016,0.898896,0.211792,80.919998,18.969999,20.299999,19.72
619842,0.460672,0.762256,0.100040,82.739998,17.290001,19.110001,19.72
619854,0.523624,0.808616,-0.017568,86.800003,20.090000,22.540001,19.72
619865,0.502640,0.955992,-0.046848,79.800003,22.400000,32.830002,19.72
619876,0.480192,1.160464,-0.038552,57.119999,16.590000,45.009998,19.78
619888,0.513864,1.360056,-0.084912,5.950000,15.470000,49.139999,19.70
619900,0.500200,1.386408,0.223992,-44.169998,2.730000,55.650002,19.70
619911,0.480192,1.281000,0.471408,-108.709999,-5.040000,44.029999,19.73
619922,0.425048,0.987712,0.597800,-150.570007,-17.219999,40.810001,19.73
619934,0.345992,0.887184,0.602192,-188.160004,-25.549999,35.490002,19.69
619945,0.300120,1.215120,0.436272,-259.000000,-33.110001,28.910000,19.70
619957,0.334280,1.121424,0.289384,-351.190002,-42.490002,20.020000,19.70
619968,0.456768,0.874008,0.188856,-430.989990,-46.689999,21.770000,19.70
619980,0.515328,0.830576,0.149816,-506.029999,-47.040001,42.770000,19.67
619991,0.527040,0.701256,0.224480,-558.809998,-43.470001,39.270000,19.67
620002,0.480192,0.564616,0.340136,-589.539978,-33.110001,19.740000,19.75
620013,0.500200,0.542168,0.431880,-601.440002,-28.770000,13.090000,19.75
620025,0.498736,0.476288,0.473848,-599.619995,-34.930000,1.610000,19.69
620036,0.495320,0.609024,0.497760,-601.020020,-47.320000,6.720000,19.74
620048,0.597800,0.674904,0.556808,-606.130005,-54.459999,21.980000,19.74
620059,0.611464,0.612928,0.527040,-616.140015,-60.689999,31.010000,19.71
620070,0.579256,0.467992,0.607560,-605.289978,-57.330002,57.959999,19.71
620082,0.673928,0.160064,0.443104,-555.380005,-59.919998,19.600000,19.74
620093,0.820328,0.005856,0.505568,-474.459991,-51.380001,38.150002,19.70
620105,0.721752,-0.282064,0.652944,-379.750000,-28.070000,57.750000,19.70
620116,0.670024,-0.214720,0.662216,-291.829987,-32.619999,13.930000,19.71
620128,0.768112,-0.322080,0.732000,-185.360001,-16.309999,22.889999,19.71
620140,0.722240,-0.334768,0.778848,-111.230003,-11.620000,21.559999,19.71
620151,0.696864,-0.288896,0.826184,-72.730003,-8.330000,11.060000,19.68
620162,0.691496,-0.347944,0.856440,-44.660000,-12.110000,7.210000,19.68
620174,0.693448,-0.377224,0.848632,-17.570000,-16.870001,5.250000,19.68
620186,0.772504,-0.244488,0.815448,-12.250000,-27.510000,43.049999,19.69
620197,0.432368,-0.284504,0.771528,1.050000,-23.799999,1.400000,19.69
620209,0.711992,-0.385032,0.689056,5.950000,-15.890000,0.350000,19.68
620220,0.702232,-0.494344,0.571936,28.280001,-8.960000,-6.580000,19.68
620231,0.698328,-0.476288,0.560224,66.570000,2.030000,-7.840000,19.73
620243,0.687104,-0.468968,0.597800,96.320000,10.360000,-14.000000,19.70
620254,0.708576,-0.613904,0.636352,141.889999,20.510000,-23.870001,19.70
620265,0.673928,-0.581208,0.622688,174.369995,27.930000,-37.450001,19.71
620277,0.627080,-0.579744,0.638304,204.190002,34.790001,-45.990002,19.71
620288,0.618784,-0.655384,0.599752,230.089996,42.910000,-52.290001,19.73
620299,0.651968,-0.663680,0.647576,263.410004,51.520000,-52.080002,19.67
620310,0.649040,-0.592432,0.549976,309.260010,65.099998,-48.090000,19.67
620322,0.616832,-0.586576,0.532408,367.429993,76.790001,-49.910000,19.68
620333,0.581208,-0.386984,0.471896,396.480011,74.690002,-52.990002,19.68
620344,0.565104,-0.290848,0.408944,432.320007,69.720001,-52.570000,19.73
620356,0.557784,-0.185928,0.340624,454.649994,64.050003,-61.180000,19.69
620367,0.545584,-0.007808,0.274744,456.890015,59.709999,-70.349998,19.69
620378,0.449448,0.142008,0.363072,447.230011,54.810001,-94.290001,19.67
620389,0.944768,0.307928,0.410408,449.119995,117.809998,-72.379997,19.67
620400,0.299144,0.128344,-0.017080,496.929993,52.849998,-38.990002,19.70
620412,0.349408,0.644648,-0.093696,532.489990,53.830002,-109.550003,19.68
620423,0.621712,0.954040,-0.148840,517.580017,86.589996,-56.700001,19.68
620435,0.309880,1.333704,-0.256688,512.400024,82.949997,-34.790001,19.72
620446,0.361608,1.428376,-0.240096,490.070007,77.769997,-15.260000,19.66
620457,0.398208,1.625528,-0.217160,445.339996,71.050003,1.680000,19.66
620469,0.451888,1.707512,-0.123464,399.559998,63.980000,13.090000,19.72
620480,0.613904,1.743624,0.014152,354.480011,58.240002,9.310000,19.72
620492,0.479216,1.577216,0.028304,303.869995,52.500000,9.800000,19.71
620503,0.432368,1.410808,0.063440,272.929993,49.209999,-1.750000,19.69
620514,0.312808,1.403000,0.119560,225.190002,37.240002,-22.889999,19.69
620526,0.459208,1.277584,0.030256,179.899994,28.700001,16.660000,19.68
620537,0.377712,1.143384,-0.036600,147.979996,27.860001,38.709999,19.68
620548,0.393816,1.166320,-0.075152,108.919998,23.730000,46.410000,19.71
620561,0.388936,1.194624,-0.049288,62.509998,17.219999,39.549999,19.73
620572,0.430904,1.204384,-0.026840,16.520000,14.280000,48.790001,19.73
620584,0.437248,1.256112,0.023912,-33.180000,5.180000,56.910000,19.68
620595,0.447984,1.264896,0.067344,-91.559998,-2.030000,56.139999,19.70
620607,0.430416,1.207312,0.054656,-153.580002,-9.660000,65.169998,19.70
620619,0.399184,1.123864,0.013176,-216.160004,-21.490000,68.320000,19.70
620630,0.401624,1.128256,0.018056,-281.329987,-26.670000,69.160004,19.70
620641,0.398208,1.133624,-0.019520,-362.320007,-33.810001,60.970001,19.66
620653,0.447984,1.226832,-0.044408,-456.049988,-40.740002,54.599998,19.64
620664,0.560712,0.922808,-0.037088,-531.859985,-38.150002,46.480000,19.64
620676,0.617320,0.352336,0.124928,-585.200012,-36.330002,47.599998,19.70
620688,0.587552,-0.027816,0.201544,-593.669983,-35.770000,49.279999,19.70
620699,0.543632,-0.114192,0.478728,-603.049988,-22.400000,44.590000,19.68
620711,0.338672,-0.200568,0.681248,-619.429993,-38.639999,-19.320000,19.74
620723,0.505080,-0.097112,0.829112,-626.429993,-62.230000,-29.120001,19.74
620734,0.514840,0.058072,0.963312,-646.729980,-69.650002,-16.240000,19.69
620747,0.524112,0.338672,1.081408,-671.580017,-86.449997,28.559999,19.68
620759,0.517280,0.689056,0.931592,-702.799988,-69.019997,93.099998,19.68
620771,0.531920,0.548024,0.653432,-696.010010,-80.010002,39.480000,19.67
620783,0.827160,0.204960,0.516304,-649.109985,-58.380001,66.430000,19.67
620794,0.749080,-0.200568,0.414800,-552.510010,-39.270000,42.700001,19.67
620806,0.860344,-0.362096,0.401136,-409.010010,-51.939999,85.959999,19.70
620818,0.610488,-0.488488,0.571936,-233.729996,-16.590000,13.650000,19.70
620829,0.791048,-0.355264,0.707600,-97.160004,-4.830000,14.210000,19.68
620841,0.742248,-0.317200,0.779824,-4.550000,0.980000,7.700000,19.66
620853,0.735904,-0.371368,0.802272,43.680000,1.820000,1.540000,19.66
620864,0.720288,-0.411872,0.834968,57.820000,-0.070000,-5.390000,19.68
620875,0.699304,-0.310856,0.890112,38.430000,-5.810000,-7.000000,19.68
620887,0.691496,-0.359656,0.868152,13.720000,-5.530000,-9.800000,19.68
620899,0.671488,-0.377224,0.823256,-1.820000,-9.730000,-4.970000,19.69
620910,0.752008,-0.353800,0.740296,-10.010000,-9.870000,19.040001,19.69
620922,0.652456,-0.418216,0.690032,6.300000,-2.450000,-10.640000,19.68
620933,0.738344,-0.580232,0.644648,47.810001,7.280000,-11.480000,19.69
620945,0.736392,-0.800808,0.633424,113.889999,12.530000,-28.000000,19.69
620956,0.726632,-0.881328,0.625616,180.880005,19.250000,-39.759998,19.71
620968,0.664656,-0.863272,0.628056,240.449997,23.940001,-52.150002,19.71
620979,0.666608,-0.791536,0.565104,279.230011,32.340000,-63.980000,19.70
620990,0.636352,-0.732000,0.529480,311.570007,42.560001,-69.650002,19.68
621001,0.611464,-0.539728,0.495320,333.549988,53.480000,-70.349998,19.68
621013,0.591944,-0.292800,0.464088,342.720001,59.919998,-69.650002,19.73
621024,0.612928,-0.241072,0.434808,370.579987,64.680000,-69.930000,19.70
621036,0.571936,-0.035136,0.419192,394.170013,68.459999,-63.349998,19.70
621047,0.461648,0.241560,0.378688,405.019989,63.279999,-56.490002,19.65
621058,0.465064,0.312808,0.385520,408.450012,56.490002,-54.459999,19.65
621070,0.487512,0.292312,0.355752,413.140015,65.029999,-63.279999,19.66
621081,0.562176,0.417728,0.507520,421.190002,91.279999,-55.230000,19.67
621092,0.345992,0.217648,0.290360,426.649994,47.950001,-5.040000,19.67
621103,0.458232,0.388448,0.289872,447.579987,51.099998,-81.129997,19.68
621115,0.912560,0.434320,0.209352,437.079987,58.590000,-22.750000,19.68
621126,0.531432,0.563152,0.056120,455.350006,60.060001,-46.060001,19.71
621138,0.642696,0.590968,-0.006832,444.010010,63.910000,-5.530000,19.71
621149,0.526552,0.837896,-0.044408,415.029999,73.150002,-20.440001,19.71
621161,0.609512,0.928664,-0.073200,383.809998,68.180000,25.549999,19.68
621172,0.534360,0.892064,-0.149816,376.529999,69.440002,7.910000,19.68
621183,0.516304,1.149240,-0.225944,378.279999,72.730003,15.120000,19.68
621195,0.425536,1.606008,-0.127368,341.670013,70.000000,9.870000,19.65
621206,0.471896,1.678720,0.025376,286.579987,59.709999,14.000000,19.65
621217,0.446032,1.597712,0.146400,227.429993,43.259998,13.230000,19.69
621229,0.456768,1.433744,0.200080,190.679993,38.709999,3.710000,19.69
621240,0.399672,1.491328,0.258152,135.100006,26.320000,-14.980000,19.68
621251,0.482632,1.398608,0.263032,86.589996,19.389999,17.360001,19.69
621262,0.378688,1.131672,0.233752,52.779999,18.410000,34.020000,19.69
621276,0.356240,1.097512,0.182024,2.030000,6.440000,36.189999,19.67
621287,0.407968,0.958920,0.142496,-35.000000,-0.210000,34.160000,19.64
621298,0.437736,0.791536,0.144936,-49.070000,-4.900000,39.060001,19.64
621309,0.480680,0.793000,0.155672,-63.000000,-5.530000,37.799999,19.75
621321,0.485072,0.898408,0.187392,-94.709999,-12.320000,44.660000,19.75
621333,0.481168,1.195600,0.196176,-139.089996,-24.219999,53.759998,19.67
621344,0.505568,1.325408,0.265472,-225.399994,-29.469999,51.590000,19.67
621356,0.477264,1.149728,0.294752,-305.269989,-42.070000,47.810001,19.67
621368,0.518744,0.991128,0.366488,-368.130005,-38.779999,38.849998,19.75
621380,0.479704,0.871568,0.282064,-422.450012,-33.740002,25.760000,19.67
621392,0.564616,0.519232,0.181048,-411.809998,-26.740000,22.049999,19.67
621403,0.522160,0.182024,0.244000,-386.959991,-32.200001,10.010000,19.70
621414,0.632936,0.388448,0.378688,-367.920013,-28.139999,36.540001,19.70
621426,0.618296,0.663680,0.531432,-381.429993,-24.430000,34.930000,19.69
621438,0.467992,0.709064,0.630496,-430.779999,-26.250000,-1.960000,19.67
621449,0.453840,0.614880,0.852048,-479.709991,-39.340000,-22.959999,19.67
621461,0.477752,0.430904,0.848144,-520.590027,-51.240002,-32.200001,19.71
621472,0.525088,0.382592,0.817400,-544.460022,-59.990002,-29.120001,19.73
621485,0.575840,0.369416,0.711016,-557.270020,-63.490002,0.210000,19.73
621497,0.603656,0.361608,0.586088,-547.049988,-51.869999,86.029999,19.71
621508,0.586088,0.244488,0.445544,-519.960022,-62.160000,6.090000,19.71
621519,0.741760,0.203496,0.450912,-481.600006,-56.000000,12.320000,19.70
621531,1.051640,-0.015616,0.441640,-417.410004,-41.930000,75.599998,19.63
621542,0.595360,-0.114192,0.570960,-360.850006,-23.309999,19.389999,19.63
621554,0.648064,-0.277184,0.658312,-294.910004,-27.650000,3.990000,19.68
621565,0.723704,-0.354288,0.779824,-221.899994,-15.260000,9.800000,19.64
621577,0.976488,-0.149328,0.795440,-162.050003,-12.810000,77.629997,19.64
621588,0.633912,-0.191296,0.870104,-105.559998,-7.630000,0.910000,19.70
621600,0.754936,-0.258152,0.781288,-61.250000,0.700000,2.450000,19.70
621612,0.710040,-0.303536,0.737368,-30.730000,-2.170000,-4.340000,19.70
621623,0.670024,-0.258640,0.718824,-25.270000,-5.530000,-7.840000,19.69
621635,0.674904,-0.325008,0.746640,-27.510000,-8.470000,-7.980000,19.69
621647,0.679296,-0.398696,0.826184,-20.020000,-8.190000,-8.120000,19.71
621658,0.694424,-0.388448,0.827160,-8.890000,-4.690000,-6.440000,19.71
621669,0.712968,-0.427976,0.780312,6.370000,0.770000,-9.170000,19.64
621681,0.726632,-0.499712,0.726632,37.380001,8.400000,-13.860000,19.69
621692,0.725168,-0.639280,0.638304,80.709999,17.570000,-26.600000,19.69
621703,0.703208,-0.831552,0.575352,145.389999,24.920000,-42.840000,19.70
621715,0.695400,-0.914024,0.543632,207.830002,34.580002,-52.570000,19.68
621726,0.602680,-0.829600,0.546072,259.209991,40.040001,-57.470001,19.68
621738,0.571448,-0.663192,0.553392,294.000000,47.459999,-60.410000,19.70
621749,0.601216,-0.622688,0.565104,337.609985,59.150002,-58.029999,19.70
621760,0.603656,-0.392840,0.557784,364.910004,60.270000,-55.790001,19.72
621771,0.568520,-0.159088,0.606584,383.880005,59.009998,-61.669998,19.69
621783,0.518744,-0.145424,0.581696,408.799988,58.310001,-77.139999,19.69
621795,0.580232,-0.070272,0.534360,434.070007,58.869999,-49.209999,19.69
621806,0.512888,-0.047336,0.377224,450.170013,55.650002,-42.840000,19.69
621818,0.541192,0.068808,0.173728,462.910004,57.889999,-43.470001,19.70
621829,0.863760,0.305488,0.029280,453.950012,57.820000,12.040000,19.70
621840,0.420168,0.289872,0.051240,476.000000,21.209999,-18.900000,19.70
621852,0.671488,0.405040,-0.103944,494.339996,22.120001,-91.910004,19.71
621863,0.650016,0.552416,-0.334768,528.919983,63.279999,-80.430000,19.71
621875,0.469456,1.206824,-0.421632,518.210022,62.720001,-20.090000,19.64
621887,0.390888,1.627968,-0.345504,458.709991,52.570000,-4.620000,19.71
621898,0.554368,1.826096,-0.158600,381.640015,49.490002,14.280000,19.71
621910,0.624640,1.738744,-0.050264,331.660004,54.110001,25.549999,19.72
621922,0.600240,1.495232,0.061976,276.779999,57.610001,26.110001,19.66
621933,0.528016,1.377136,0.174216,246.119995,56.770000,18.129999,19.66
621944,0.532408,1.232688,0.190808,212.660004,44.169998,28.209999,19.66
621956,0.490928,1.109712,0.129808,176.470001,42.490002,20.930000,19.66
621968,0.432368,1.096536,0.150304,130.270004,36.330002,-3.290000,19.70
621979,0.539240,1.028216,0.097112,112.349998,38.570000,27.510000,19.71
621990,0.467504,0.884744,0.155184,107.660004,38.009998,34.650002,19.71
622002,0.450912,0.948184,0.211304,97.440002,33.599998,25.760000,19.69
622014,0.464576,0.914024,0.245464,72.099998,27.930000,18.690001,19.67
622025,0.463600,0.849120,0.198128,59.430000,22.750000,22.540001,19.67
622036,0.461160,0.916952,0.132248,47.669998,17.920000,34.790001,19.68
622047,0.490440,1.019432,0.084912,23.170000,15.540000,32.830002,19.68
622059,0.492880,1.043832,0.121024,-8.680000,10.570000,35.630001,19.68
622070,0.472872,1.056032,0.289872,-50.889999,7.280000,32.830002,19.67
622081,0.454816,1.180960,0.288408,-95.690002,-1.680000,34.369999,19.67
622093,0.464576,1.230736,0.292312,-154.070007,-9.590000,31.219999,19.68
622105,0.475312,1.057496,0.369904,-224.839996,-14.560000,32.480000,19.68
622116,0.503128,1.073600,0.416264,-305.549988,-18.620001,21.700001,19.67
622128,0.553392,0.775920,0.387472,-356.299988,-32.410000,12.810000,19.65
622139,0.543632,0.721752,0.358680,-435.609985,-40.250000,18.969999,19.65
622150,0.562664,0.610488,0.357216,-493.570007,-40.529999,33.669998,19.68
622162,0.579744,0.475800,0.368928,-530.039978,-33.180000,40.180000,19.68
622176,0.527040,0.525576,0.516792,-598.710022,-29.540001,18.969999,19.64
622188,0.489464,0.542656,0.594384,-625.309998,-36.049999,-1.610000,19.69
622199,0.496784,0.466528,0.628544,-639.030029,-51.869999,-11.340000,19.69
622211,0.570472,0.430416,0.698328,-635.530029,-60.480000,-6.720000,19.69
622222,0.652944,0.427488,0.650504,-628.880005,-52.220001,46.200001,19.65
622237,0.393816,0.120048,0.606096,-586.739990,-70.000000,16.520000,19.65
622248,0.743224,0.126880,0.530944,-554.539978,-60.200001,10.010000,19.68
622259,0.811056,0.006344,0.458720,-504.070007,-48.790001,74.900002,19.73
622270,0.560712,-0.117120,0.481168,-432.529999,-26.459999,55.299999,19.73
622281,0.698816,-0.132248,0.516792,-360.920013,-30.100000,11.340000,19.69
622292,0.817400,-0.313296,0.598776,-301.209991,-27.020000,40.110001,19.69
622303,0.520696,-0.443592,0.741272,-206.639999,-2.590000,19.530001,19.71
622315,0.689056,-0.308904,0.829600,-129.009995,-2.240000,7.000000,19.67
622327,0.696864,-0.328424,0.828136,-73.360001,1.120000,8.330000,19.67
622338,0.706136,-0.336232,0.813008,-36.750000,2.940000,6.230000,19.66
622349,0.697352,-0.267424,0.795440,-19.530001,3.220000,1.610000,19.68
622361,0.675392,-0.305488,0.783728,-17.290001,1.470000,-4.270000,19.68
622373,0.668560,-0.496784,0.803248,-22.469999,-0.980000,-4.270000,19.72
622384,0.780312,-0.428952,0.800320,-24.430000,-3.990000,0.490000,19.72
622396,0.636840,-0.447984,0.782752,-16.240000,-4.130000,-10.360000,19.70
622408,0.702720,-0.467016,0.775432,0.840000,-1.190000,-8.330000,19.72
622420,0.695400,-0.520208,0.750544,30.030001,1.750000,-15.120000,19.72
622431,0.730048,-0.707600,0.711016,75.949997,7.210000,-25.900000,19.68
622443,0.733464,-0.924760,0.571448,152.039993,14.770000,-42.910000,19.69
622454,0.718336,-1.022848,0.469944,226.380005,26.670000,-52.080002,19.69
622466,0.666120,-0.846680,0.396744,282.730011,38.430000,-56.490002,19.64
622477,0.602680,-0.738344,0.405528,326.829987,50.680000,-59.430000,19.64
622489,0.600240,-0.496296,0.436760,356.929993,59.290001,-58.869999,19.71
622500,0.566568,-0.313296,0.528504,376.040009,63.910000,-59.919998,19.66
622512,0.531432,-0.038064,0.554856,394.660004,63.419998,-53.759998,19.66
622524,0.519232,0.185440,0.533872,404.739990,54.320000,-47.950001,19.68
622535,0.548024,0.199104,0.534848,421.329987,44.099998,-56.490002,19.68
622546,0.539240,0.435296,0.536312,420.630005,38.779999,-65.519997,19.70
622557,0.704672,0.444568,0.467992,399.350006,48.580002,-30.870001,19.68
622569,0.932568,0.606584,0.307928,367.850006,87.360001,-28.840000,19.68
622580,0.360632,0.339648,0.365512,369.459991,27.719999,-22.750000,19.68
622592,0.452376,0.400648,0.363560,357.140015,48.020000,-58.380001,19.65
622603,0.793000,0.609512,0.341600,322.769989,52.220001,3.640000,19.65
622615,0.492392,0.552416,0.263032,323.049988,37.730000,-37.380001,19.71
622626,0.707600,0.650504,0.293288,318.850006,25.270000,-19.670000,19.71
622638,0.659288,0.711504,0.143960,320.600006,48.090000,-19.250000,19.68
622649,0.463112,1.040904,0.083936,319.130005,54.389999,-23.870001,19.71
622660,0.505080,1.185840,0.036600,306.600006,56.490002,-2.380000,19.71
622672,0.477264,1.204872,0.120536,265.579987,60.480000,1.610000,19.69
622683,0.456768,1.156560,0.170800,232.960007,53.970001,7.980000,19.69
622695,0.432368,0.923296,0.252784,239.679993,44.939999,0.420000,19.68
622706,0.534848,0.883768,0.262544,234.710007,45.779999,10.570000,19.68
622717,0.494344,0.874984,0.252784,228.619995,50.540001,24.080000,19.68
622729,0.475312,1.026752,0.216184,209.229996,51.380001,20.580000,19.69
622740,0.451400,1.233664,0.166896,187.740005,50.680000,27.230000,19.69
622751,0.396744,1.269776,0.148352,158.970001,41.299999,27.860001,19.71
622762,0.415288,1.259040,0.179584,120.540001,32.340000,30.379999,19.64
622774,0.446520,1.157536,0.212280,94.150002,27.230000,20.580000,19.64
622785,0.522648,1.011624,0.301584,76.510002,16.309999,20.090000,19.70
622797,0.492880,0.935496,0.268400,60.410000,13.790000,-9.240000,19.67
622808,0.575352,0.965264,0.217648,56.980000,15.050000,38.220001,19.67
622819,0.483120,0.957944,0.232776,43.330002,11.200000,43.400002,19.64
622830,0.491416,1.042368,0.216672,24.150000,6.020000,43.959999,19.64
622841,0.453840,1.271728,0.433344,-25.410000,-4.690000,47.459999,19.68
622853,0.426512,1.324432,0.493368,-98.559998,-15.050000,44.310001,19.70
622864,0.430416,1.302472,0.512400,-192.639999,-27.090000,44.799999,19.70
622876,0.408944,1.271728,0.475312,-300.649994,-42.279999,41.860001,19.66
622887,0.452864,1.220488,0.380640,-435.609985,-47.180000,39.619999,19.66
622899,0.489952,0.979416,0.290848,-527.380005,-46.759998,40.180000,19.71
622910,0.424072,0.441640,0.069296,-584.780029,-41.020000,27.020000,19.66
622922,0.569008,0.208376,0.073200,-628.809998,-42.279999,45.220001,19.66
622934,0.522648,0.225456,0.133224,-636.859985,-32.619999,31.219999,19.68
622945,0.520208,0.258640,0.301096,-623.909973,-44.169998,10.010000,19.68
622957,0.531920,0.113704,0.590480,-601.229980,-56.770000,-9.730000,19.66
622969,0.586088,-0.003904,0.755424,-572.739990,-63.980000,-15.540000,19.68
622981,0.589504,0.104920,0.906216,-544.880005,-72.239998,-6.370000,19.68
622992,0.502640,0.363072,0.947208,-537.530029,-76.720001,73.500000,19.63
623003,0.622200,0.105408,0.839360,-522.409973,-49.279999,27.930000,19.68
623015,0.618296,0.242536,0.649528,-495.459991,-55.790001,12.110000,19.68
623026,0.825208,-0.190320,0.484096,-442.190002,-33.040001,37.730000,19.67
623038,0.766160,-0.296216,0.504104,-364.489990,-14.490000,38.990002,19.67
623049,0.680760,-0.273280,0.437248,-278.179993,-21.559999,-2.940000,19.68
623061,0.759328,-0.288896,0.525576,-207.550003,-10.360000,0.070000,19.65
623073,0.724192,-0.301096,0.705648,-139.440002,-5.810000,13.580000,19.65
623084,0.693936,-0.356240,0.918416,-77.980003,2.240000,12.810000,19.66
623096,0.647576,-0.220088,0.905728,-38.360001,3.290000,-7.980000,19.68
623107,0.735904,-0.331352,0.865224,-11.130000,10.220000,-7.140000,19.68
623119,0.723216,-0.397720,0.781288,12.110000,11.410000,-10.920000,19.68
623130,0.700768,-0.372344,0.742248,22.540001,10.570000,-13.300000,19.68
623141,0.653920,-0.308904,0.763720,17.639999,10.430000,-13.720000,19.66
623153,0.621224,-0.318664,0.856928,7.630000,9.450000,-13.020000,19.64
623164,0.607072,-0.312320,0.966728,4.550000,5.670000,-11.200000,19.64
623175,0.626104,-0.285480,1.030656,2.520000,1.750000,-10.010000,19.68
623187,0.666608,-0.368440,1.006256,17.639999,0.630000,-10.710000,19.68
623198,0.691984,-0.428464,0.952576,47.320000,-1.890000,-14.000000,19.70
623210,0.708576,-0.536800,0.835944,90.089996,-0.560000,-21.350000,19.67
623221,0.722240,-0.661728,0.765672,140.000000,1.190000,-31.360001,19.67
623233,0.715408,-0.709552,0.734440,184.520004,3.570000,-41.790001,19.64
623244,0.700768,-0.780312,0.706136,229.110001,8.400000,-56.000000,19.64
623256,0.728096,-0.905728,0.502640,293.510010,25.410000,-71.680000,19.64
623268,0.656360,-0.611952,0.419680,324.799988,42.349998,-72.870003,19.62
623279,0.472872,-0.198616,0.488000,304.570007,41.860001,-69.440002,19.62
623291,0.487024,-0.041968,0.547048,284.619995,37.240002,-56.279999,19.68
623302,0.480680,0.099064,0.634400,263.130005,23.170000,-42.419998,19.68
623313,0.550464,0.226432,0.615856,262.149994,19.040001,-29.610001,19.68
623325,0.705160,0.199104,0.569008,281.470001,30.590000,-26.180000,19.72
623336,0.973072,0.285480,0.386496,294.769989,64.959999,-12.810000,19.72
623347,0.488488,0.260104,0.447984,303.730011,30.520000,-3.430000,19.70
623359,0.663192,0.236192,0.420168,309.119995,43.889999,-23.030001,19.66
623370,0.655384,-0.053192,0.180560,352.940002,40.180000,-52.150002,19.66
623381,0.677832,-0.066856,0.040016,423.989990,67.550003,-45.430000,19.69
623393,0.515816,0.206912,-0.109800,492.730011,71.680000,-82.879997,19.69
623404,0.717360,0.528504,-0.006832,514.289978,64.889999,-36.959999,19.64
623416,0.561688,0.739808,0.064416,517.090027,69.860001,-40.599998,19.67
623427,0.537288,0.843264,0.151768,500.570007,74.269997,-60.619999,19.67
623438,0.660264,1.199016,0.210816,468.019989,75.949997,-3.080000,19.65
623450,0.471896,1.316624,0.183976,448.209991,74.830002,7.630000,19.66
623461,0.446032,1.466440,0.250344,413.559998,58.380001,14.070000,19.66
623473,0.464576,1.614792,0.293288,349.510010,43.889999,30.309999,19.71
623484,0.427976,1.503040,0.254248,309.959991,30.240000,31.360001,19.71
623495,0.463112,1.368352,0.190808,252.559998,24.570000,38.849998,19.66
623506,0.443592,1.166808,0.164944,207.759995,16.590000,36.750000,19.67
623517,0.437736,0.962336,0.092232,162.539993,11.550000,21.490000,19.67
623528,0.300608,0.973072,0.068808,139.020004,6.580000,-10.570000,19.68
623540,0.565104,0.769088,0.006344,117.599998,5.880000,27.090000,19.68
623551,0.523136,0.788120,-0.020008,98.910004,4.410000,33.810001,19.67
623562,0.510448,0.910608,-0.013176,72.379997,-1.540000,33.320000,19.68
623574,0.537288,0.964776,-0.062952,44.169998,-2.730000,31.010000,19.68
623585,0.584136,1.068720,-0.055144,15.890000,-4.410000,23.660000,19.67
623596,0.537776,1.136552,-0.060512,-30.730000,-12.180000,52.430000,19.67
623607,0.609024,1.170224,-0.070272,-71.610001,-21.000000,54.669998,19.69
623619,0.545096,1.054080,0.036112,-134.259995,-26.459999,53.060001,19.65
623631,0.630496,0.944768,0.071736,-176.190002,-32.480000,58.029999,19.65
623642,0.551928,1.039440,0.134200,-235.199997,-36.750000,52.500000,19.68
623654,0.550464,1.151192,0.142008,-313.320007,-41.509998,45.009998,19.68
623667,0.509960,1.097512,0.160064,-427.070007,-54.529999,35.980000,19.64
623678,0.569008,0.953064,0.110288,-525.280029,-47.180000,22.330000,19.70
623690,0.546072,0.514840,-0.030256,-589.400024,-51.869999,3.150000,19.70
623701,0.634400,0.289384,-0.025376,-619.500000,-44.869999,30.170000,19.65
623713,0.673928,0.183000,0.138592,-658.280029,-32.549999,57.049999,19.64
623724,0.512888,0.174704,0.431880,-667.169983,-21.000000,26.950001,19.64
623736,0.458720,0.178608,0.495808,-662.969971,-45.220001,-17.780001,19.68
623747,0.591456,0.206912,0.668560,-644.489990,-55.509998,12.110000,19.68
623759,0.676368,0.252296,0.774944,-637.979980,-54.529999,5.530000,19.65
623770,0.502152,0.355752,0.833016,-634.969971,-77.769997,0.980000,19.65
623782,0.715408,0.339648,0.678320,-623.140015,-58.240002,94.360001,19.65
623793,0.667096,0.038552,0.483120,-571.969971,-47.810001,56.000000,19.68
623804,1.026752,0.136152,0.539728,-506.309998,-49.419998,108.639999,19.68
623816,0.718824,-0.125416,0.475800,-419.369995,-25.830000,38.709999,19.68
623827,0.881816,-0.324520,0.563640,-317.869995,-30.309999,64.680000,19.70
623840,0.567544,-0.432368,0.701256,-183.050003,-4.480000,26.250000,19.70
623851,0.773968,-0.361608,0.806664,-86.239998,5.250000,17.709999,19.64
623862,0.755424,-0.421632,0.812520,-22.260000,12.460000,13.650000,19.66
623874,0.735904,-0.414312,0.856928,30.520000,8.960000,10.220000,19.66
623885,0.727608,-0.348432,0.898408,42.209999,2.940000,5.460000,19.68
623897,0.702720,-0.362096,0.962824,28.000000,-1.190000,1.400000,19.68
623908,0.697840,-0.427976,0.943792,11.760000,-3.220000,-1.960000,19.65
623919,0.721264,-0.460184,0.836920,13.300000,-2.940000,-3.360000,19.62
623931,0.769576,-0.555832,0.657824,38.220001,3.920000,-5.810000,19.62
623943,0.784704,-0.848144,0.558272,94.220001,15.680000,-21.139999,19.70
623954,0.799832,-0.877424,0.534360,167.229996,22.330000,-35.560001,19.68
623966,0.748104,-0.889624,0.516304,232.750000,28.700001,-48.020000,19.68
623978,0.712968,-0.911584,0.543632,286.510010,37.169998,-66.010002,19.66
623989,0.650992,-0.860832,0.565104,321.510010,49.070000,-74.760002,19.66
624001,0.602680,-0.713944,0.503128,344.540009,64.260002,-78.610001,19.66
624012,0.627080,-0.716384,0.376736,392.980011,79.730003,-84.769997,19.70
624024,0.563152,-0.425536,0.315248,429.730011,88.059998,-91.559998,19.70
624036,0.461648,-0.046360,0.284992,433.720001,83.650002,-96.949997,19.64
624047,0.477752,0.128832,0.207888,426.160004,79.099998,-81.550003,19.70
624058,0.604632,0.137616,0.096624,436.450012,83.580002,-48.020000,19.70
624069,0.569984,0.025864,-0.053680,467.880005,92.889999,-40.040001,19.65
624081,0.389424,0.048312,-0.248880,498.119995,121.379997,-90.300003,19.65
624093,0.598776,0.008296,-0.337208,536.619995,107.449997,-11.130000,19.66
624104,0.436760,0.262544,-0.367952,592.340027,106.610001,-70.839996,19.67
624117,0.822768,0.641232,-0.418704,615.510010,123.760002,-48.790001,19.67
624129,0.362584,0.903288,-0.441152,610.119995,126.769997,-76.860001,19.64
624140,0.555832,1.174616,-0.440664,596.260010,125.440002,-30.379999,19.71
624152,0.445056,1.462048,-0.387960,582.960022,122.430000,-1.750000,19.71
624163,0.327936,1.835856,-0.377712,547.890015,96.599998,3.220000,19.66
624174,0.351848,1.917352,-0.345992,478.100006,82.879997,-8.050000,19.66
624185,0.355752,1.886608,-0.253272,409.290009,73.709999,-14.840000,19.71
624196,0.284992,1.688968,-0.181536,371.350006,67.690002,-42.139999,19.71
624207,0.212768,2.120360,-0.142008,267.820007,49.630001,-26.110001,19.64
624219,0.314272,1.870992,-0.106872,185.850006,37.240002,14.910000,19.66
624230,0.177632,1.669448,-0.011224,123.059998,16.520000,35.000000,19.66
624242,0.328424,1.717760,-0.014640,44.240002,14.490000,52.360001,19.68
624254,0.267424,1.432280,-0.020008,-48.720001,3.430000,36.259998,19.66
624266,0.275720,1.052128,-0.107848,-96.809998,-5.740000,39.060001,19.66
624277,0.371368,0.800320,-0.127368,-124.669998,-7.840000,43.889999,19.71
624292,0.474824,0.632448,-0.187880,-125.930000,-11.410000,51.099998,19.60
624303,0.445544,0.713456,-0.274256,-128.449997,-8.960000,60.130001,19.60
624315,0.451888,1.061400,-0.299144,-155.330002,-14.700000,67.690002,19.67
624326,0.444568,1.372744,-0.170800,-228.759995,-23.590000,66.430000,19.67
624338,0.483608,1.666032,0.112728,-358.190002,-30.730000,67.690002,19.66
624350,0.345016,1.726056,0.296704,-543.969971,-54.250000,52.220001,19.70
624361,0.422608,1.226832,0.286944,-698.809998,-65.239998,25.830000,19.70
624373,0.397720,0.399184,0.053680,-814.520020,-70.629997,2.730000,19.67
624385,0.548024,-0.241072,-0.099064,-816.830017,-72.519997,42.279999,19.61
624396,0.566080,-0.421144,0.070272,-801.429993,-39.900002,66.639999,19.61
624408,0.354288,-0.362096,0.324032,-742.630005,-54.740002,-25.830000,19.66
624420,0.545096,0.049288,0.698816,-700.000000,-70.559998,-29.260000,19.66
624431,0.676856,0.358680,0.881328,-730.239990,-77.839996,0.910000,19.68
624443,0.331352,0.437736,1.016504,-740.109985,-100.519997,-27.090000,19.64
624455,0.677344,0.291336,0.844240,-711.479980,-67.830002,42.209999,19.64
624466,0.565104,0.031232,0.730536,-633.150024,-59.150002,39.830002,19.65
624477,0.883768,-0.099552,0.685152,-527.659973,-45.220001,35.700001,19.67
624489,0.709552,-0.276696,0.472872,-400.399994,-23.030001,34.230000,19.67
624500,0.826672,-0.488976,0.437736,-252.699997,-23.520000,39.619999,19.66
624512,0.605608,-0.407968,0.667096,-98.910004,2.030000,1.680000,19.66
624524,0.677832,-0.206424,0.921344,-10.570000,1.820000,-3.010000,19.68
624535,0.665144,-0.172264,1.119472,22.400000,3.850000,-2.870000,19.64
624546,0.654408,-0.182512,1.194136,23.240000,-1.330000,-2.590000,19.64
624558,0.652944,-0.192760,1.234152,-0.840000,-5.110000,-2.240000,19.68
624570,0.633912,-0.159088,1.136552,-35.700001,-9.240000,-0.910000,19.65
624582,0.644648,-0.188856,0.984296,-61.459999,-11.340000,0.350000,19.65
624594,0.674416,-0.229360,0.880352,-59.500000,-14.070000,6.230000,19.66
624605,0.699304,-0.330864,0.766648,-30.730000,-12.180000,2.030000,19.66
624617,0.724680,-0.490440,0.643672,13.230000,-8.470000,-8.750000,19.68
624629,0.715408,-0.858392,0.590480,70.980003,-2.940000,-16.030001,19.66
624641,0.609024,-0.816424,0.635376,131.740005,-1.750000,-37.520000,19.66
624652,0.629032,-0.789584,0.591944,174.929993,3.150000,-42.070000,19.64
624664,0.607560,-0.822280,0.607560,214.199997,11.830000,-51.660000,19.66
624676,0.589992,-0.670024,0.566568,241.919998,21.490000,-55.930000,19.66
624687,0.624640,-0.811056,0.523136,289.660004,42.980000,-62.509998,19.70
624699,0.633424,-0.693448,0.423096,356.369995,64.120003,-62.790001,19.70
624711,0.562664,-0.479704,0.376248,410.130005,89.110001,-63.980000,19.68
624722,0.537776,-0.314272,0.357216,448.559998,74.900002,-70.980003,19.65
624734,0.529480,-0.158600,0.250344,475.299988,76.650002,-68.250000,19.65
624746,0.425048,-0.016104,0.141520,507.290009,78.120003,-61.529999,19.67
624757,0.550952,0.066368,-0.040504,516.809998,83.370003,-35.419998,19.64
624769,0.375760,0.333792,0.064904,525.419983,139.509995,-98.769997,19.64
624781,0.459208,0.292800,-0.212768,539.419983,63.209999,-26.320000,19.67
624792,0.545096,0.512888,-0.186416,563.710022,80.570000,-65.029999,19.67
624803,0.698816,0.912072,-0.171288,571.619995,92.400002,-27.020000,19.64
624815,0.503128,1.078968,-0.202032,551.320007,98.139999,-34.020000,19.66
624826,0.413336,1.477664,-0.163968,520.869995,84.279999,-38.290001,19.66
624838,0.561688,1.603080,-0.107848,476.489990,90.160004,11.830000,19.68
624849,0.445056,1.732888,-0.097112,443.589996,87.150002,17.500000,19.68
624860,0.395280,1.794376,-0.043920,374.429993,76.019997,17.150000,19.66
624872,0.372832,1.776808,0.011712,296.940002,70.629997,13.860000,19.62
624883,0.316712,1.649440,0.069784,232.750000,60.270000,14.980000,19.62
624894,0.281576,1.382016,0.132248,199.850006,48.230000,20.299999,19.67
624906,0.232288,1.387384,0.257664,163.380005,32.410000,13.230000,19.65
624917,0.409920,1.393728,0.249368,118.650002,26.740000,44.660000,19.65
624928,0.393816,1.235616,0.212280,72.589996,20.719999,51.730000,19.66
624940,0.382592,1.077992,0.166896,39.970001,14.630000,40.250000,19.66
624951,0.374296,0.817400,0.062464,22.540001,10.990000,36.540001,19.64
624962,0.409920,0.805688,-0.047336,18.760000,12.110000,47.880001,19.62
624973,0.415288,0.909144,-0.134200,4.970000,13.510000,55.650002,19.62
624985,0.424072,1.101416,-0.161040,-24.709999,8.890000,58.380001,19.66
624996,0.465552,1.125816,-0.097112,-44.169998,1.610000,58.799999,19.66
625008,0.540216,1.120936,-0.026840,-99.959999,-1.890000,65.239998,19.64
625019,0.511424,1.037976,0.089792,-128.169998,-8.750000,64.120003,19.61
625030,0.511912,1.123864,0.187392,-185.710007,-12.740000,67.480003,19.61
625041,0.482144,1.306864,0.180072,-297.640015,-23.660000,69.510002,19.67
625052,0.427488,1.448384,0.194224,-440.440002,-43.540001,62.369999,19.67
625064,0.451400,1.243424,0.167384,-579.320007,-48.230000,48.860001,19.64
625076,0.510936,0.572912,-0.001952,-669.760010,-42.419998,30.379999,19.65
625087,0.658800,-0.372344,-0.093208,-662.130005,-40.880001,37.029999,19.65
625099,0.628056,-0.640744,0.152256,-610.049988,-37.029999,49.000000,19.66
625110,0.525088,-0.500200,0.501664,-589.469971,-43.259998,-0.910000,19.66
625122,0.562664,-0.289384,0.814960,-565.109985,-59.080002,-25.410000,19.63
625133,0.585600,-0.009272,1.089216,-561.190002,-60.900002,-25.480000,19.67
625145,0.482632,0.274744,1.200480,-578.619995,-65.029999,-12.320000,19.67
625157,0.470920,0.413336,1.172664,-592.479980,-78.050003,0.980000,19.68
625168,0.543632,0.462136,0.955016,-592.059998,-65.940002,14.630000,19.65
625180,0.711504,0.338184,0.713944,-585.619995,-50.259998,51.450001,19.65
625191,0.617320,0.122488,0.452864,-526.260010,-50.400002,9.240000,19.65
625203,0.997472,-0.154208,0.264008,-435.399994,-40.740002,70.980003,19.65
625215,0.617808,-0.361120,0.294752,-318.010010,-20.020000,10.360000,19.66
625226,0.772992,-0.336232,0.451400,-208.460007,-10.920000,-10.990000,19.70
625237,0.725168,-0.292312,0.625128,-117.809998,0.210000,-12.810000,19.70
625249,0.676368,-0.225944,0.829600,-50.889999,6.300000,-11.480000,19.67
625260,0.666120,-0.140544,0.992104,-9.100000,11.690000,-8.960000,19.67
625272,0.660264,-0.216184,1.029192,15.890000,15.260000,-8.890000,19.67
625284,0.688568,-0.186904,1.004304,20.510000,14.420000,-7.560000,19.64
625295,0.694912,-0.128344,0.964288,5.740000,12.670000,-5.740000,19.64
625307,0.773968,-0.170800,0.925248,-14.140000,8.890000,12.460000,19.67
625318,0.555832,-0.223016,0.955992,-14.560000,8.260000,5.740000,19.64
625330,0.678808,-0.233264,0.971120,-9.870000,6.720000,-4.060000,19.64
625342,0.687104,-0.288408,0.974536,11.690000,1.400000,-3.710000,19.67
625353,0.692960,-0.335744,0.963800,44.240002,-1.890000,-9.030000,19.67
625364,0.728584,-0.466040,0.902312,77.699997,-0.140000,-14.070000,19.70
625375,0.753472,-0.694912,0.792024,140.979996,2.100000,-26.530001,19.64
625387,0.816912,-1.096536,0.631960,232.050003,18.129999,-52.360001,19.64
625398,0.813008,-1.177056,0.376248,315.070007,44.310001,-66.500000,19.67
625409,0.611952,-0.681248,0.338184,347.410004,54.880001,-65.029999,19.67
625420,0.480680,-0.251320,0.410408,337.540009,51.029999,-56.910000,19.65
625432,0.443592,-0.066368,0.506544,305.339996,47.320000,-53.759998,19.65
625443,0.474824,-0.057096,0.550464,297.640015,44.869999,-45.639999,19.65
625455,0.533384,0.057096,0.583160,307.720001,45.150002,-44.029999,19.67
625466,0.518744,0.145912,0.624640,321.089996,45.150002,-42.560001,19.67
625477,0.480192,0.211792,0.600240,330.750000,40.389999,-45.150002,19.67
625489,0.416752,0.159576,0.524112,338.519989,42.419998,-19.879999,19.66
625500,0.539240,0.174704,0.447496,365.820007,38.360001,-35.980000,19.66
625511,0.670024,0.052704,0.321104,391.160004,65.309998,-69.720001,19.67
625522,0.855464,-0.062952,0.161040,416.920013,66.430000,-35.070000,19.68
625533,0.589016,-0.166408,0.058072,436.869995,71.889999,-69.860001,19.68
625545,0.689056,0.019520,-0.034160,448.420013,67.269997,-31.920000,19.69
625556,0.507032,0.138592,-0.166408,466.480011,70.559998,-77.629997,19.69
625567,0.697840,0.531920,-0.300120,485.660004,84.980003,-41.439999,19.64
625579,0.435784,1.095072,-0.326960,493.709991,97.300003,-19.879999,19.62
625590,0.322568,1.626504,-0.319152,486.779999,91.000000,-18.549999,19.62
625601,0.376736,1.874408,-0.107360,442.750000,81.480003,-3.430000,19.64
625613,0.381128,2.112064,0.008784,373.730011,67.760002,6.300000,19.64
625624,0.427976,1.979816,0.177144,308.209991,53.340000,10.010000,19.65
625635,0.402112,1.885632,0.250832,257.880005,43.189999,16.379999,19.66
625646,0.380152,1.796816,0.308904,192.149994,30.170000,15.820000,19.66
625658,0.402112,1.629920,0.227896,127.330002,23.799999,36.189999,19.67
625669,0.273280,1.384456,0.202032,72.800003,14.700000,23.379999,19.67
625680,0.409920,1.123864,0.165432,44.590000,7.560000,53.619999,19.67
625692,0.345016,0.980392,0.152744,23.170000,1.890000,50.610001,19.68
625703,0.406504,0.839360,0.028304,6.580000,-3.500000,46.200001,19.68
625714,0.442128,0.746152,-0.073688,-10.430000,-4.480000,50.680000,19.63
625726,0.455304,0.743224,-0.145912,-17.430000,-6.930000,52.779999,19.63
625737,0.539240,0.811544,-0.172264,-25.969999,-5.740000,60.060001,19.65
625749,0.577792,0.948672,-0.136152,-39.480000,-4.200000,66.150002,19.64
625761,0.584136,1.140456,-0.000976,-70.419998,-11.620000,76.650002,19.64
625773,0.535824,1.343464,0.256688,-168.910004,-22.680000,81.199997,19.64
625784,0.525088,1.449848,0.349408,-269.010010,-35.700001,76.370003,19.68
625796,0.450424,1.364448,0.374296,-392.839996,-44.799999,67.199997,19.68
625807,0.406992,1.123376,0.279624,-526.679993,-51.099998,52.500000,19.70
625818,0.509960,0.690032,0.060512,-638.609985,-44.240002,49.419998,19.70
625830,0.545096,-0.129808,0.135176,-627.340027,-46.130001,33.669998,19.66
625841,0.580720,-0.058072,0.189832,-641.760010,-45.430000,65.730003,19.62
625852,0.494832,0.188856,0.467016,-645.119995,-35.630001,51.939999,19.62
625864,0.454816,0.220576,0.474824,-647.219971,-58.660000,-5.670000,19.66
625875,0.635864,-0.033184,0.665632,-628.669983,-65.309998,-11.620000,19.66
625886,0.579256,0.161528,0.806176,-590.169983,-59.009998,-2.170000,19.63
625898,0.482144,0.188368,0.946720,-544.950012,-78.470001,-6.580000,19.64
625910,0.658800,0.347944,0.863272,-517.719971,-71.330002,20.440001,19.64
625921,0.628544,0.465064,0.720776,-500.920013,-33.599998,109.970001,19.68
625933,0.542656,0.187392,0.459696,-444.220001,-46.689999,24.360001,19.63
625944,0.822768,0.089792,0.382592,-385.209991,-35.980000,28.980000,19.63
625955,1.091168,-0.172752,0.293288,-311.079987,-14.980000,97.019997,19.68
625966,0.694424,-0.217648,0.347456,-218.470001,-14.700000,-4.060000,19.68
625978,0.846680,-0.260592,0.516304,-144.550003,1.820000,-1.400000,19.68
625989,0.742248,-0.313784,0.665632,-87.919998,6.370000,-3.360000,19.65
626000,0.724680,-0.231800,0.842776,-43.119999,9.240000,-2.100000,19.65
626012,0.719312,-0.260104,0.858880,-19.459999,14.980000,-3.570000,19.64
626023,0.726144,-0.346480,0.811544,3.570000,15.400000,-4.340000,19.64
626034,0.707600,-0.142496,0.820328,-2.240000,10.780000,-1.680000,19.68
626046,0.856928,-0.026840,0.843752,-40.320000,1.050000,46.619999,19.65
626058,0.491904,-0.256688,0.896944,-34.160000,6.650000,0.700000,19.65
626069,0.673928,-0.269864,0.979416,-36.119999,3.290000,5.740000,19.66
626080,0.681736,-0.345504,1.019920,-32.900002,0.350000,5.740000,19.66
626092,0.688568,-0.427488,0.971120,-8.330000,-1.540000,1.750000,19.63
626103,0.736880,-0.520208,0.865712,36.189999,-2.100000,-4.130000,19.61
626114,0.769576,-0.696376,0.723704,99.610001,0.350000,-21.420000,19.61
626125,0.808616,-0.984296,0.649040,182.419998,11.900000,-41.439999,19.68
626137,0.776896,-0.987224,0.585112,247.100006,21.280001,-60.619999,19.68
626148,0.715896,-0.615368,0.505080,278.600006,29.610001,-64.750000,19.61
626159,0.682712,-0.502152,0.522160,291.480011,37.730000,-70.070000,19.62
626170,0.607560,-0.421632,0.565592,277.619995,43.470001,-72.169998,19.62
626182,0.605608,-0.464088,0.328424,303.660004,65.379997,-66.919998,19.66
626193,0.585112,-0.502152,0.274256,360.779999,82.459999,-64.540001,19.63
626204,0.492392,-0.149328,0.253272,394.309998,84.629997,-58.660000,19.63
626216,0.407480,0.203496,0.267424,392.279999,78.260002,-52.080002,19.66
626226,0.384544,0.308904,0.310856,373.450012,71.750000,-47.669998,19.66
626238,0.506056,0.253272,0.364048,364.559998,71.610001,-43.259998,19.67
626249,0.825696,0.342576,0.288408,357.279999,107.800003,-39.340000,19.64
626260,0.381128,0.186416,0.327936,380.660004,52.500000,-30.379999,19.64
626272,0.459208,0.141032,0.236192,410.829987,58.380001,-119.419998,19.68
626283,0.907192,0.263032,0.300120,425.600006,72.519997,-39.060001,19.68
626294,0.594384,0.315736,0.155672,461.440002,78.120003,-78.190002,19.62
626306,0.771528,0.614392,0.130784,461.720001,80.220001,-27.370001,19.62
626317,0.496296,0.828136,0.035624,452.410004,81.269997,-53.900002,19.62
626329,0.553880,1.133624,-0.037088,424.829987,81.410004,-22.400000,19.68
626340,0.434320,1.362984,-0.101992,397.670013,81.129997,0.770000,19.68
626351,0.345992,1.511336,-0.090280,376.529999,73.639999,-0.210000,19.61
626362,0.333304,1.682624,-0.090280,338.660004,59.500000,5.530000,19.61
626374,0.395280,1.541592,-0.027328,285.109985,54.599998,9.030000,19.61
626385,0.408456,1.470344,0.009272,236.110001,49.630001,13.370000,19.62
626396,0.397720,1.438136,0.066368,191.729996,39.830002,19.530001,19.62
626407,0.438712,1.477176,0.122976,137.899994,33.810001,17.850000,19.64
626418,0.427976,1.480592,0.094672,76.650002,27.020000,32.130001,19.62
626429,0.376248,1.301496,0.114680,20.930000,23.100000,17.850000,19.62
626440,0.438224,1.142408,0.064416,-2.030000,20.930000,45.430000,19.67
626451,0.418216,1.035536,0.054656,-22.469999,16.170000,50.959999,19.67
626462,0.432368,1.070672,0.114192,-45.709999,11.970000,52.709999,19.63
626473,0.474336,1.104832,0.200080,-77.980003,9.030000,61.389999,19.64
626485,0.407480,1.353224,0.222528,-135.309998,5.390000,69.510002,19.64
626496,0.303536,1.794864,0.337208,-232.050003,-17.219999,71.120003,19.68
626508,0.328912,1.863672,0.447984,-389.339996,-41.160000,66.709999,19.68
626519,0.402112,1.632360,0.345016,-556.640015,-55.369999,58.310001,19.66
626530,0.447496,1.027728,0.121024,-688.869995,-56.490002,47.250000,19.67
626542,0.535824,0.260592,-0.103456,-793.309998,-51.869999,73.220001,19.67
626553,0.424072,-0.498736,-0.183976,-793.729980,-40.180000,31.290001,19.67
626565,0.436272,-0.709552,0.018544,-734.299988,-45.919998,2.240000,19.67
626576,0.509960,-0.795440,0.417240,-658.070007,-58.099998,-9.870000,19.65
626588,0.490928,-0.374296,0.796904,-614.460022,-80.709999,-7.420000,19.61
626599,0.562176,0.065880,0.927200,-616.000000,-95.410004,0.770000,19.61
626610,0.567056,0.231312,0.996008,-632.869995,-73.500000,47.459999,19.64
626622,0.528016,-0.021472,0.933544,-604.729980,-67.900002,14.910000,19.64
626633,0.653432,-0.090280,0.883768,-529.409973,-59.500000,15.120000,19.63
626644,0.743224,-0.278160,0.910608,-422.380005,-32.970001,29.610001,19.64
626656,0.683200,-0.166408,0.695888,-288.959991,-24.360001,13.930000,19.64
626667,0.817400,-0.273768,0.636352,-161.139999,-6.440000,9.590000,19.68
626678,0.777872,-0.327448,0.654896,-51.169998,1.260000,3.710000,19.62
626690,0.755912,-0.355752,0.677832,11.130000,5.600000,-5.600000,19.62
626701,0.718336,-0.424560,0.796416,38.080002,4.480000,-12.950000,19.64
626713,0.670512,-0.431392,0.944768,41.160000,-3.640000,-17.290001,19.64
626724,0.663192,-0.338672,1.060424,29.469999,-9.870000,-16.240000,19.65
626735,0.692960,-0.424560,1.015040,25.200001,-9.170000,-18.410000,19.61
626747,0.722240,-0.358192,0.877424,42.209999,-10.360000,-12.810000,19.61
626758,0.758840,-0.325496,0.725656,63.910000,-8.820000,-5.950000,19.68
626770,0.739808,-0.469944,0.607072,105.349998,-2.380000,-31.639999,19.68
626782,0.737368,-0.727608,0.556808,156.380005,6.650000,-46.480000,19.65
626793,0.725168,-0.650992,0.520208,193.339996,16.309999,-56.070000,19.67
626805,0.662216,-0.479216,0.484096,215.110001,27.160000,-62.790001,19.67
626816,0.653432,-0.442616,0.480680,226.100006,39.410000,-69.089996,19.62
626827,0.574376,-0.407480,0.533384,227.149994,47.810001,-69.019997,19.62
626838,0.545584,-0.340136,0.463112,235.690002,58.730000,-64.260002,19.72
626850,0.547048,-0.281576,0.460184,264.179993,66.080002,-60.900002,19.61
626862,0.514352,-0.083448,0.490928,282.170013,69.580002,-56.840000,19.61
626873,0.468968,0.085888,0.525576,277.130005,67.199997,-49.070000,19.64
626885,0.494344,0.096624,0.532408,273.910004,62.650002,-36.540001,19.62
626896,0.628056,0.047824,0.497272,282.660004,68.599998,-25.200001,19.62
626908,0.868640,-0.048312,0.306952,307.929993,100.940002,-16.730000,19.68
626919,0.369904,-0.031232,0.386008,352.239990,55.090000,-23.240000,19.68
626930,0.598288,-0.014152,0.334768,399.839996,68.809998,-65.800003,19.64
626941,0.792024,0.039528,0.196176,450.589996,73.010002,-33.389999,19.64
626953,0.561688,0.288408,0.143960,488.179993,79.379997,-42.349998,19.64
626964,0.564128,0.732488,0.142008,507.709991,65.169998,-35.279999,19.67
626976,0.585112,0.967216,0.058072,494.410004,78.050003,-25.059999,19.67
626987,0.377224,1.346880,-0.009272,477.190002,72.309998,-23.870001,19.64
626999,0.460672,1.518656,-0.020984,450.799988,66.779999,0.140000,19.61
627011,0.473360,1.541592,0.007808,412.720001,63.700001,8.190000,19.61
627022,0.528992,1.455216,0.019032,385.769989,63.490002,12.950000,19.65
627033,0.511424,1.479616,0.062464,338.029999,58.029999,20.230000,19.64
627045,0.503128,1.497184,0.104920,294.980011,53.130001,23.030001,19.64
627056,0.475312,1.341512,0.120048,255.850006,45.639999,22.680000,19.69
627067,0.334768,1.367376,0.088328,214.479996,38.150002,5.880000,19.69
627078,0.432856,1.298080,0.081496,181.509995,32.549999,21.280001,19.63
627090,0.435784,1.174616,0.011712,150.710007,33.880001,37.099998,19.64
627101,0.395768,1.207312,-0.008296,115.919998,29.190001,47.250000,19.64
627112,0.385032,1.266848,-0.025864,66.430000,20.719999,53.480000,19.62
627123,0.416264,1.310768,0.030256,6.300000,12.390000,61.110001,19.62
627134,0.444568,1.280024,0.098088,-49.700001,8.540000,69.230003,19.61
627146,0.418216,1.188280,0.204960,-105.349998,0.280000,69.230003,19.61
627157,0.428952,1.180472,0.338184,-148.610001,-6.510000,70.139999,19.61
627168,0.399184,1.125328,0.457744,-203.350006,-22.120001,61.880001,19.68
627180,0.339648,1.108248,0.476288,-262.220001,-29.820000,57.959999,19.68
627191,0.365512,1.054080,0.432856,-336.209991,-40.810001,48.580002,19.67
627203,0.417240,0.805688,0.385520,-396.899994,-46.619999,32.480000,19.61
627214,0.452864,0.599752,0.294752,-443.239990,-46.759998,26.250000,19.61
627225,0.473360,0.373320,0.211304,-459.130005,-51.799999,11.130000,19.68
627237,0.551928,0.446032,0.258152,-497.209991,-51.450001,29.540001,19.68
627248,0.555832,0.519232,0.379664,-541.030029,-47.250000,25.690001,19.67
627259,0.568032,0.418216,0.521184,-579.880005,-42.910000,27.650000,19.64
627271,0.418704,0.148840,0.735416,-590.450012,-55.580002,-36.330002,19.64
627282,0.507032,0.193736,0.687592,-585.479980,-69.930000,-43.119999,19.63
627294,0.647088,0.317688,0.657336,-591.289978,-68.599998,-11.550000,19.63
627307,0.544608,0.351848,0.645624,-585.270020,-68.459999,-20.370001,19.66
627319,0.609024,0.459696,0.549488,-576.520020,-56.209999,40.180000,19.66
627331,0.640256,0.114680,0.516792,-520.380005,-56.630001,-4.760000,19.62
627343,0.772992,-0.081496,0.600240,-444.920013,-47.459999,-7.490000,19.62
627355,0.810080,-0.205936,0.665632,-357.209991,-34.860001,13.090000,19.61
627366,0.510936,-0.272304,0.792024,-255.710007,-17.639999,14.420000,19.61
627378,0.727120,-0.101992,0.989664,-174.369995,-19.600000,-9.730000,19.69
627390,0.765672,-0.136640,0.941352,-95.970001,-7.980000,-4.340000,19.64
627402,0.742248,-0.214720,1.010648,-18.620001,-3.430000,-10.570000,19.64
627414,0.756888,-0.245952,1.024800,39.130001,-1.190000,-14.770000,19.64
627426,0.741760,-0.323544,0.974048,80.220001,-0.980000,-24.709999,19.65
627437,0.735416,-0.420168,0.940864,118.650002,0.350000,-31.010000,19.65
627448,0.707112,-0.369416,0.822768,149.869995,-4.270000,-32.900002,19.66
627460,0.725168,-0.378688,0.723704,173.880005,-0.630000,-35.490002,19.66
627471,0.716872,-0.192760,0.549488,186.479996,3.640000,-35.560001,19.62
627483,0.727608,-0.069784,0.536800,190.119995,12.040000,-41.930000,19.62
627494,0.639280,-0.049288,0.569008,178.149994,18.340000,-45.290001,19.62
627506,0.565104,-0.003904,0.567056,156.589996,22.680000,-42.349998,19.60
627517,0.521672,-0.045384,0.493856,149.380005,32.270000,-34.930000,19.60
627529,0.535824,-0.036112,0.534848,162.050003,38.919998,-30.309999,19.67
627540,0.546560,-0.055632,0.570472,169.330002,44.450001,-23.590000,19.64
627552,0.604144,-0.137616,0.549976,182.210007,46.619999,-19.320000,19.64
627563,0.705160,-0.096624,0.451400,208.460007,59.570000,-5.180000,19.62
627575,0.744688,-0.182024,0.336720,230.229996,54.599998,11.340000,19.63
627586,0.510448,-0.106872,0.346480,276.850006,55.020000,-0.980000,19.63
627597,0.632936,-0.036112,0.286456,331.029999,72.309998,-7.000000,19.63
627609,0.608048,0.208376,0.203496,380.660004,81.269997,19.180000,19.63
627619,0.496296,0.490928,0.185928,414.190002,76.860001,15.680000,19.67
627631,0.572912,0.609512,0.270840,439.809998,63.840000,7.280000,19.59
627642,0.803736,0.885720,0.335744,453.040009,54.110001,44.029999,19.59
627653,0.774456,0.862296,0.370392,450.100006,67.550003,37.939999,19.67
627664,0.686128,1.031632,0.399672,439.950012,64.400002,22.820000,19.67
627675,0.587552,1.068232,0.385520,414.959991,67.129997,-37.169998,19.61
627686,0.799344,1.149240,0.406504,387.730011,76.860001,9.730000,19.66
627698,0.514352,1.095072,0.341112,367.290009,71.050003,10.220000,19.66
627709,0.495808,1.174616,0.324520,328.510010,61.250000,29.680000,19.61
627720,0.497272,1.252696,0.334768,307.089996,50.330002,33.459999,19.61
627732,0.511424,1.190232,0.384544,262.429993,43.610001,38.639999,19.64
627743,0.484096,1.216584,0.389424,241.289993,35.560001,39.200001,19.61
627754,0.461648,1.240984,0.469456,198.029999,26.389999,38.919998,19.61
627765,0.431392,1.215608,0.465552,147.000000,17.219999,32.200001,19.65
627777,0.404064,1.169736,0.403576,105.139999,6.300000,47.110001,19.65
627789,0.415288,0.954040,0.316712,70.419998,2.170000,49.840000,19.66
627800,0.417728,0.853512,0.266448,45.639999,-3.010000,44.869999,19.65
627811,0.443592,0.739808,0.246928,33.459999,-8.540000,34.020000,19.65
627822,0.522160,0.730048,0.195688,17.639999,-11.200000,41.299999,19.66
627833,0.530456,0.732000,0.108824,1.400000,-11.690000,40.459999,19.66
627844,0.563152,0.710528,0.061000,-10.570000,-17.780001,23.240000,19.66
627856,0.634888,0.630008,0.086376,2.030000,-15.470000,38.430000,19.66
627867,0.573888,0.816424,0.104432,3.360000,-15.050000,41.090000,19.66
627878,0.602192,0.928176,0.176168,8.400000,-16.240000,37.029999,19.66
627890,0.600240,1.116056,0.165432,-0.910000,-14.000000,34.930000,19.66
627901,0.595848,1.240008,0.193248,-39.970001,-17.920000,32.689999,19.64
627912,0.640744,1.072624,0.238632,-78.959999,-19.040001,26.110001,19.63
627923,0.560712,0.900848,0.325008,-125.370003,-35.840000,17.780001,19.63
627936,0.565592,0.674416,0.391864,-186.830002,-45.779999,3.150000,19.64
627947,0.560712,0.504104,0.501176,-226.380005,-64.330002,-8.960000,19.63
627958,0.599264,0.383080,0.588040,-258.089996,-63.139999,-19.389999,19.63
627970,0.595848,0.340624,0.687104,-285.529999,-69.160004,-18.760000,19.66
627982,0.538264,0.334768,0.800320,-314.720001,-67.339996,-21.209999,19.66
627993,0.549000,0.318664,0.873032,-340.690002,-61.880001,-25.410000,19.62
628005,0.958920,0.621224,1.204872,-444.920013,-12.250000,-3.640000,19.61
628016,0.408456,0.923784,0.665632,-478.660004,-35.910000,-18.410000,19.61
628028,0.438712,1.114592,0.410408,-562.099976,-71.680000,-60.689999,19.65
628040,0.717848,0.625128,0.241560,-597.869995,-61.669998,-53.340000,19.65
628051,0.658312,0.570472,0.103456,-590.659973,-51.730000,0.070000,19.66
628063,0.631472,0.424560,0.175680,-540.049988,-58.169998,-42.490002,19.67
628075,0.744200,0.381128,0.340624,-484.190002,-45.150002,-36.959999,19.67
628086,0.694424,0.302560,0.535336,-448.209991,-37.450001,-26.809999,19.62
628098,0.584624,0.372344,0.716872,-413.839996,-29.260000,8.260000,19.68
628109,0.628056,0.278160,0.868640,-376.809998,-33.669998,-22.680000,19.68
628120,0.632448,0.452864,0.953552,-348.809998,-42.770000,-22.750000,19.61
628132,0.716384,0.426024,0.920856,-308.140015,-40.459999,-3.850000,19.61
628143,1.058960,0.359168,0.779336,-235.199997,-36.540001,71.610001,19.64
628155,0.683200,0.158600,0.852536,-168.839996,-24.430000,-9.590000,19.64
628166,0.844728,-0.090768,0.878888,-91.489998,-9.520000,-5.950000,19.64
628178,0.798368,-0.306952,0.846192,-27.020000,-2.170000,-10.220000,19.66
628189,0.742736,-0.201056,0.755424,0.490000,-0.280000,-13.860000,19.66
628201,0.733464,-0.132736,0.562664,25.340000,4.200000,-15.330000,19.68
628212,0.717360,-0.171776,0.497760,39.270000,14.070000,-21.209999,19.62
628224,0.658800,-0.241560,0.520696,53.830002,24.780001,-24.219999,19.62
628235,0.597800,-0.199104,0.521184,65.239998,29.610001,-24.080000,19.62
628247,0.587552,-0.228384,0.553880,81.410004,34.160000,-21.629999,19.62
628258,0.632936,-0.278648,0.545584,118.930000,44.169998,-19.600000,19.62
628270,0.654408,-0.222528,0.590968,156.660004,54.180000,-21.490000,19.64
628281,0.610488,-0.103456,0.651968,178.080002,60.200001,-22.330000,19.64
628292,0.621712,-0.123464,0.702720,199.850006,62.160000,-23.520000,19.66
628304,0.633912,-0.033184,0.725168,212.800003,61.740002,-16.100000,19.63
628316,0.665144,0.040992,0.701256,221.690002,64.330002,-7.840000,19.63
628327,0.767624,0.024400,0.603656,243.250000,74.760002,5.460000,19.65
628339,0.558760,0.060512,0.538264,281.329987,58.099998,0.350000,19.67
628350,0.650504,0.113216,0.502640,297.850006,71.190002,-4.130000,19.67
628361,0.543632,0.188368,0.423584,326.339996,66.360001,-1.610000,19.64
628373,0.593896,0.362584,0.405528,349.859985,65.239998,7.980000,19.64
628384,0.570472,0.530456,0.390400,365.540009,61.740002,7.770000,19.63
628395,0.576816,0.793488,0.405528,369.390015,57.889999,14.000000,19.65
628406,0.559248,0.935008,0.428952,363.230011,59.500000,10.150000,19.65
628418,0.591944,1.107760,0.470920,352.170013,47.320000,8.050000,19.64
628429,0.599264,0.832040,0.420168,338.589996,62.509998,15.260000,19.64
628441,0.448472,0.826184,0.349896,330.260010,62.930000,-25.410000,19.63
628452,0.650992,0.874008,0.357704,308.769989,62.090000,17.639999,19.58
628463,0.483120,0.856928,0.307928,292.529999,58.939999,12.740000,19.58
628474,0.489952,0.948184,0.340136,271.600006,51.520000,12.530000,19.62
628486,0.515816,0.974048,0.375272,253.960007,51.310001,22.959999,19.62
628497,0.496296,0.962824,0.396256,236.039993,52.080002,25.969999,19.63
628508,0.468480,0.915976,0.373320,224.000000,49.139999,19.879999,19.62
628520,0.455304,0.872544,0.277184,218.539993,49.840000,11.830000,19.62
628531,0.426512,0.827160,0.238632,212.240005,47.740002,-2.170000,19.59
628543,0.424560,0.945744,0.152744,190.679993,43.470001,17.150000,19.59
628554,0.435296,0.967216,0.190808,170.309998,42.139999,27.790001,19.63
628565,0.410896,1.197064,0.222040,145.389999,35.419998,35.139999,19.61
628576,0.429440,1.367376,0.235216,114.029999,26.809999,35.209999,19.61
628587,0.460184,1.328824,0.252296,71.610001,21.980000,31.920000,19.60
628598,0.500688,1.241960,0.227408,28.070000,15.400000,38.360001,19.60
628609,0.529968,1.211216,0.230824,-5.810000,8.680000,48.509998,19.62
628620,0.535336,1.125816,0.306952,-37.660000,-3.710000,54.880001,19.59
628631,0.562664,0.969656,0.413824,-62.299999,-6.370000,44.939999,19.59
628643,0.498736,1.111176,0.545584,-81.900002,-12.740000,45.919998,19.64
628655,0.438712,1.324432,0.700768,-132.300003,-20.930000,49.279999,19.64
628666,0.408456,1.386408,0.807640,-231.910004,-33.599998,41.090000,19.63
628677,0.423096,1.068720,0.647576,-344.190002,-43.959999,28.770000,19.66
628689,0.443104,0.403576,0.534848,-390.459991,-53.549999,8.960000,19.66
628701,0.439200,0.235704,0.422608,-427.839996,-55.020000,9.100000,19.65
628712,0.482144,0.449936,0.350872,-465.920013,-63.000000,16.030001,19.59
628723,0.544608,0.552416,0.387960,-520.520020,-58.450001,20.370001,19.59
628735,0.546560,0.404064,0.497272,-548.450012,-57.610001,25.270000,19.67
628746,0.482144,0.227896,0.656360,-561.190002,-57.610001,-21.350000,19.67
628757,0.420168,0.259128,0.768600,-549.150024,-70.699997,-44.310001,19.61
628769,0.535824,0.391864,0.829600,-551.250000,-67.690002,-18.129999,19.66
628780,0.598288,0.377712,0.743712,-553.559998,-62.299999,-17.639999,19.66
628792,0.521184,0.469456,0.595848,-543.270020,-73.709999,-22.190001,19.60
628803,0.659288,0.462624,0.534848,-525.909973,-43.540001,46.830002,19.60
628815,0.586088,0.242048,0.464576,-468.230011,-50.189999,-1.680000,19.66
628827,0.769088,0.121024,0.537776,-406.559998,-38.919998,-9.240000,19.62
628839,0.788120,-0.175192,0.635376,-317.869995,-18.690001,8.540000,19.62
628851,0.999424,-0.298656,0.672464,-211.399994,-18.900000,46.900002,19.61
628864,0.671488,-0.165920,0.837896,-109.480003,-7.560000,-14.840000,19.63
628876,0.779336,-0.074176,0.901824,-58.450001,2.100000,-3.010000,19.63
628887,0.732488,-0.135176,0.940376,-20.650000,1.540000,-8.470000,19.63
628898,0.743224,-0.162992,0.957456,0.770000,-0.490000,-12.390000,19.63
628910,0.725168,-0.136152,0.964776,14.070000,-7.000000,-12.810000,19.61
628921,0.703208,-0.115168,0.933056,17.990000,-10.990000,-12.950000,19.68
628933,0.710040,-0.125416,0.866200,20.650000,-13.230000,-10.850000,19.68
628944,0.726144,-0.189832,0.736392,29.049999,-13.440000,-8.890000,19.64
628956,0.728096,-0.266936,0.556808,46.900002,-7.070000,-11.270000,19.64
628967,0.760304,-0.389912,0.491904,85.400002,4.550000,-22.750000,19.64
628978,0.761280,-0.434320,0.488976,122.080002,16.590000,-31.570000,19.65
628990,0.654896,-0.427976,0.541192,144.479996,23.660000,-37.029999,19.65
629001,0.587552,-0.367952,0.577792,152.320007,26.459999,-37.310001,19.61
629012,0.607072,-0.333304,0.553880,159.949997,37.590000,-35.279999,19.63
629024,0.632448,-0.388936,0.570472,187.460007,48.369999,-36.189999,19.63
629035,0.613904,-0.336232,0.621224,216.020004,57.259998,-36.680000,19.62
629047,0.576816,-0.169824,0.629032,225.820007,60.830002,-30.940001,19.62
629058,0.584136,-0.140544,0.575352,228.690002,55.509998,-26.180000,19.67
629070,0.658800,-0.158112,0.461160,252.490005,59.430000,-16.450001,19.64
629081,0.685152,-0.194224,0.437736,295.329987,75.250000,-13.160000,19.64
629092,0.685640,-0.125904,0.327936,306.880005,82.529999,-6.230000,19.62
629103,0.485560,-0.115656,0.283040,345.309998,68.180000,-21.840000,19.62
629115,0.701256,-0.102968,0.186904,393.959991,84.980003,-22.049999,19.65
629129,0.508008,0.001952,0.061976,465.709991,84.629997,-41.299999,19.63
629141,0.444080,0.264984,0.125416,512.119995,63.209999,-77.980003,19.63
629154,0.533872,0.714432,0.172264,511.559998,82.110001,-57.820000,19.61
629165,0.480680,1.000400,0.198128,498.820007,72.029999,-41.369999,19.66
629177,0.514352,1.229760,0.154696,477.119995,69.510002,-20.299999,19.66
629189,0.452376,1.372256,0.159576,443.940002,66.080002,-10.920000,19.65
629201,0.445056,1.501576,0.123464,391.859985,59.709999,-21.910000,19.61
629214,0.404064,1.440576,0.136152,339.989990,55.020000,-10.500000,19.61
629226,0.382104,1.259040,0.188856,308.209991,43.680000,-12.810000,19.64
629237,0.419680,1.360544,0.192760,271.109985,35.209999,-8.190000,19.61
629248,0.391864,1.439112,0.164456,230.509995,28.490000,-14.420000,19.61
629259,0.423584,1.378600,0.140056,185.500000,24.850000,7.280000,19.64
629271,0.368440,1.248304,0.140544,158.130005,17.709999,10.850000,19.64
629281,0.383568,1.228296,0.115168,136.779999,14.140000,14.000000,19.62
629292,0.379664,1.226832,0.103456,105.769997,12.320000,26.530001,19.58
629304,0.364536,1.221464,0.013176,64.470001,9.940000,31.850000,19.58
629315,0.351360,1.187304,-0.078568,28.559999,8.260000,33.040001,19.64
629326,0.388448,1.092632,-0.064416,-0.210000,1.120000,30.590000,19.64
629337,0.495808,1.052616,-0.070272,-34.720001,3.150000,37.660000,19.62
629348,0.541192,0.883768,-0.040992,-31.990000,2.520000,47.740002,19.61
629359,0.532896,0.755912,-0.005856,-21.770000,-2.940000,46.200001,19.61
629370,0.539728,0.841800,0.082472,-5.670000,0.560000,53.410000,19.62
629381,0.538264,0.869616,0.200080,17.430000,-2.660000,49.209999,19.62
629392,0.527040,0.919880,0.413824,30.730000,-4.410000,40.599998,19.66
629403,0.444080,1.061888,0.546072,44.869999,-5.600000,35.209999,19.63
629414,0.396256,0.992104,0.625128,39.970001,-19.389999,26.180000,19.63
629425,0.339648,0.746640,0.513864,42.700001,-20.090000,14.910000,19.62
629436,0.313784,0.898408,0.382592,32.970001,-30.379999,13.860000,19.62
629447,0.421632,0.854488,0.244488,6.650000,-32.270000,13.090000,19.65
629458,0.443592,0.566080,0.153720,16.660000,-32.060001,10.920000,19.65
629469,0.407968,0.907192,0.110288,19.459999,-27.510000,12.530000,19.64
629480,0.454816,1.027240,-0.005368,-7.070000,-24.080000,9.940000,19.61
629491,0.526552,0.939888,-0.077104,-31.010000,-16.100000,8.680000,19.61
629502,0.549000,0.792512,-0.095160,-40.320000,-8.120000,10.710000,19.60
629514,0.549976,0.915488,-0.155184,-56.560001,-1.470000,15.050000,19.60
629525,0.584136,0.873520,-0.130784,-71.820000,6.440000,16.660000,19.61
629536,0.567544,0.848632,-0.091744,-70.000000,13.510000,19.040001,19.65
629547,0.585600,0.882792,-0.033184,-63.560001,18.900000,21.700001,19.65
629559,0.586088,0.871568,0.055632,-51.939999,23.940001,21.000000,19.66
629570,0.596336,0.845704,0.203984,-45.360001,28.350000,21.280001,19.66
629581,0.590968,0.741760,0.301584,-29.120001,29.889999,21.280001,19.62
629592,0.571936,0.747616,0.386984,-12.740000,30.730000,19.809999,19.60
629604,0.555832,0.804224,0.440176,-6.930000,28.420000,16.309999,19.60
629615,0.552416,0.792512,0.439200,-2.030000,26.600000,11.760000,19.62
629626,0.544120,0.798368,0.448960,-3.220000,23.170000,6.650000,19.62
629637,0.534848,0.757376,0.445056,0.140000,0.980000,1.540000,19.64
629648,0.531920,0.775920,0.421632,-2.940000,10.920000,-1.330000,19.66
629660,0.528016,0.839360,0.379664,-12.950000,2.660000,-3.080000,19.66
629671,0.531920,0.924760,0.345992,-33.459999,-1.890000,-4.410000,19.60
629682,0.519720,1.017968,0.275232,-51.660000,-7.420000,-5.810000,19.60
629693,0.518744,0.985760,0.193736,-64.260002,-13.370000,-13.020000,19.61
629705,0.506056,0.909144,0.117120,-57.259998,-16.520000,-19.950001,19.61
629716,0.528016,0.968192,0.071248,-71.750000,-17.500000,-18.969999,19.61
629727,0.521184,1.016992,-0.001952,-101.989998,-19.040001,-16.870001,19.65
629739,0.530944,1.031632,-0.038552,-156.029999,-16.730000,-11.970000,19.60
629750,0.490440,0.952088,-0.078080,-175.000000,-12.460000,-11.340000,19.60
629762,0.502152,0.958920,0.035624,-200.899994,-12.460000,-12.670000,19.62
629774,0.512400,0.962336,0.112240,-240.660004,-22.469999,-26.110001,19.62
629785,0.637816,1.101416,0.138592,-288.679993,-24.990000,-12.810000,19.66
629796,0.597312,1.260016,0.114680,-345.940002,-27.230000,26.250000,19.63
629808,0.233752,1.086776,0.073200,-388.220001,-30.030001,-9.240000,19.63
629819,0.372344,1.108248,0.040992,-430.850006,-51.310001,-9.380000,19.66
629831,0.477264,0.945744,0.034160,-482.019989,-53.340000,28.209999,19.66
629843,0.493856,0.737856,0.028792,-517.719971,-55.650002,31.219999,19.64
629854,0.732000,0.489952,-0.001952,-541.659973,-49.139999,27.930000,19.60
629866,0.860344,0.076128,0.050264,-543.130005,-35.840000,33.389999,19.60
629877,0.762744,-0.136640,0.154208,-496.859985,-28.770000,46.900002,19.64
629888,0.663680,-0.197640,0.292312,-469.910004,-34.090000,24.360001,19.59
629900,0.763232,-0.158600,0.415776,-455.839996,-27.790001,63.910000,19.59
629911,0.703696,-0.461160,0.573888,-406.000000,-34.509998,4.550000,19.63
629923,0.807152,-0.515816,0.675392,-351.399994,-34.509998,3.920000,19.63
629934,0.850584,-0.610000,0.772504,-301.209991,-13.370000,40.389999,19.64
629946,0.593408,-0.509960,0.774944,-247.100006,-29.750000,-14.210000,19.59
629957,0.748592,-0.716384,0.822280,-201.880005,-17.990000,-6.370000,19.59
629969,0.621712,-0.771528,0.766160,-114.169998,-8.960000,-4.200000,19.61
629980,0.561688,-0.514840,0.652944,-76.650002,-4.410000,-2.380000,19.61
629992,0.534360,-0.275232,0.614392,-43.259998,-5.740000,0.910000,19.65
630003,0.563640,-0.068320,0.645136,-22.680000,-5.530000,3.290000,19.62
630015,0.648064,0.065392,0.690520,-14.140000,-2.590000,6.090000,19.62
630026,0.673440,0.190808,0.700768,-18.830000,-1.400000,7.770000,19.63
630037,0.677344,0.091744,0.688568,-31.850000,0.840000,10.500000,19.63
630049,0.633912,-0.085888,0.802760,-40.110001,-2.590000,14.000000,19.63
630060,0.677344,-0.232776,0.991616,-35.349998,-8.120000,19.809999,19.66
630072,0.790072,-0.476288,1.072624,-2.660000,-9.870000,19.530001,19.66
630083,0.748592,-0.354776,0.888648,19.110001,-16.030001,20.230000,19.66
630094,0.648064,-0.094184,0.869128,11.620000,-22.820000,29.889999,19.65
630105,0.627568,-0.061000,0.883280,-15.540000,-28.490000,34.580002,19.65
630116,0.669048,-0.101992,0.886208,-27.790001,-38.430000,43.889999,19.65
630128,0.680272,-0.128344,0.939400,-23.940001,-48.720001,57.259998,19.65
630139,0.634888,0.111752,1.016504,-13.930000,-57.680000,73.639999,19.65
630150,0.542656,0.384544,0.978928,-23.309999,-54.669998,77.629997,19.63
630161,0.596336,0.177144,0.906216,-32.270000,-38.009998,68.040001,19.63
630172,0.567056,-0.048312,0.822280,-27.930000,-24.780001,60.830002,19.65
630184,0.547048,-0.061976,0.822280,-23.170000,-21.070000,56.700001,19.65
630196,0.587064,-0.177632,0.777384,-17.010000,-15.470000,53.549999,19.62
630207,0.573400,-0.120536,0.718336,-18.340000,-12.180000,52.150002,19.62
630218,0.583160,-0.123464,0.623664,-30.309999,-7.140000,50.330002,19.62
630229,0.607560,-0.314272,0.488976,-30.730000,-0.350000,46.830002,19.67
630241,0.585112,-0.317200,0.415776,-41.090000,1.750000,46.340000,19.67
630252,0.611952,-0.319152,0.452376,-53.270000,5.670000,46.130001,19.67
630263,0.607072,-0.386008,0.525088,-56.770000,9.520000,44.939999,19.61
630275,0.613904,-0.443104,0.642208,-56.349998,10.710000,41.369999,19.61
630286,0.635376,-0.577792,0.734928,-54.740002,9.870000,33.180000,19.66
630297,0.643672,-0.654896,0.755424,-54.320000,9.730000,23.590000,19.66
630308,0.659288,-0.689056,0.735416,-56.139999,9.590000,14.210000,19.64
630320,0.637816,-0.717360,0.700280,-52.009998,10.290000,5.530000,19.59
630331,0.615368,-0.685640,0.645136,-46.549999,12.810000,-4.900000,19.59
630342,0.607560,-0.650016,0.624640,-42.490002,17.570000,-16.379999,19.59
630354,0.584136,-0.539728,0.664656,-36.610001,23.309999,-27.790001,19.55
630366,0.568520,-0.529968,0.745176,-27.719999,29.400000,-38.570000,19.55
630377,0.577792,-0.619760,0.785680,-9.800000,32.200001,-46.619999,19.62
630388,0.584624,-0.549976,0.813984,15.890000,32.759998,-51.029999,19.62
630400,0.602192,-0.492880,0.864248,29.959999,32.480000,-53.689999,19.62
630411,0.589992,-0.456280,0.918416,31.219999,29.469999,-54.810001,19.59
630422,0.615856,-0.439688,0.925736,24.500000,25.410000,-52.639999,19.59
630433,0.609512,-0.409920,0.939888,22.820000,20.370001,-49.000000,19.64
630444,0.590480,-0.272792,0.996984,13.020000,16.590000,-42.700001,19.64
630456,0.584136,-0.297680,1.041392,-2.380000,17.430000,-38.290001,19.62
630467,0.583648,-0.409920,1.058472,-1.260000,13.580000,-37.099998,19.59
630479,0.593896,-0.421632,1.019920,6.720000,8.750000,-36.540001,19.59
630490,0.618296,-0.397232,0.943792,22.959999,4.690000,-36.540001,19.62
630501,0.647088,-0.413336,0.865224,40.459999,1.190000,-35.700001,19.62
630513,0.636840,-0.393816,0.802272,57.889999,-2.870000,-35.560001,19.64
630524,0.627568,-0.378200,0.808128,63.700001,-6.650000,-40.040001,19.61
630536,0.656360,-0.480680,0.770064,82.599998,-3.010000,-45.150002,19.61
630547,0.663680,-0.464576,0.650992,107.870003,-0.770000,-46.830002,19.68
630557,0.664656,-0.489952,0.558272,142.240005,8.330000,-52.150002,19.68
630569,0.690520,-0.568032,0.519720,178.080002,18.900000,-60.340000,19.63
630580,0.635376,-0.632448,0.492392,208.039993,31.150000,-68.529999,19.61
630591,0.596824,-0.686128,0.489464,248.639999,42.700001,-73.919998,19.61
630602,0.555832,-0.754448,0.527528,303.799988,57.820000,-75.879997,19.62
630613,0.523136,-0.543144,0.504592,359.029999,66.010002,-68.459999,19.62
630624,0.494832,-0.216184,0.490440,394.029999,63.910000,-58.660000,19.67
630635,0.473848,0.056120,0.510448,411.880005,57.400002,-54.459999,19.63
630647,0.522648,0.166896,0.531432,407.820007,51.590000,-52.430000,19.63
630658,0.719312,0.261568,0.460184,393.399994,63.910000,-51.029999,19.63
630669,0.451400,0.142984,0.471896,397.320007,27.719999,-47.250000,19.63
630680,0.661240,0.059048,0.397232,412.019989,53.200001,-57.750000,19.62
630691,0.660752,0.123464,0.287432,443.309998,47.389999,-63.980000,19.64
630702,0.517280,0.130784,0.121512,468.230011,50.889999,-72.730003,19.64
630713,0.592920,0.446032,-0.005856,458.079987,45.360001,-59.220001,19.65
630724,0.403576,0.686616,-0.050752,440.859985,56.630001,-55.720001,19.65
630736,0.476776,0.899872,-0.102480,420.000000,51.520000,-16.309999,19.64
630747,0.437248,0.987712,-0.133712,388.570007,45.150002,-17.080000,19.63
630758,0.496296,1.049688,-0.174216,397.880005,47.880001,-30.309999,19.63
630769,0.489464,1.281000,-0.177632,384.720001,58.310001,-16.100000,19.59
630781,0.443592,1.537200,-0.064416,351.609985,58.240002,-9.520000,19.59
630792,0.418704,1.666032,0.032208,300.929993,46.270000,-1.610000,19.63
630803,0.411384,1.665544,0.102968,245.419998,38.290001,5.250000,19.64
630813,0.383080,1.622600,0.142984,197.750000,33.110001,9.940000,19.64
630825,0.345016,1.491816,0.193248,148.050003,21.420000,-10.010000,19.64
630836,0.403088,1.449360,0.158600,91.489998,17.290001,21.209999,19.64
630847,0.370880,1.311744,0.125416,46.830002,14.350000,31.780001,19.66
630858,0.383568,1.220000,0.088328,3.010000,10.220000,35.070000,19.66
630868,0.424560,1.228784,0.037576,-39.549999,7.070000,44.869999,19.68
630879,0.439688,1.231224,-0.031720,-100.660004,1.330000,56.560001,19.60
630890,0.447008,1.017480,-0.029768,-147.279999,-4.410000,58.310001,19.60
630902,0.519232,0.756888,0.034160,-161.910004,-5.740000,61.180000,19.62
630912,0.534360,0.686128,0.181536,-160.509995,-7.210000,62.790001,19.62
630924,0.508008,0.863760,0.351360,-164.429993,-9.730000,56.560001,19.62
630935,0.475800,1.190720,0.389424,-214.830002,-16.730000,56.910000,19.62
630946,0.463112,1.302472,0.431880,-282.309998,-15.260000,48.020000,19.62
630957,0.434320,1.062864,0.561688,-361.760010,-22.959999,28.139999,19.67
630968,0.443104,0.566568,0.578280,-415.100006,-31.150000,9.100000,19.67
630980,0.452376,-0.007320,0.634888,-422.519989,-29.959999,3.570000,19.61
630991,0.516304,-0.043920,0.724680,-400.260010,-38.919998,26.110001,19.62
631002,0.435296,0.037576,0.737856,-391.579987,-38.990002,20.299999,19.62
631013,0.374296,0.109312,0.832040,-386.190002,-42.980000,-11.480000,19.63
631025,0.485560,0.223992,0.881816,-378.000000,-46.549999,-12.810000,19.63
631036,0.452376,0.488000,0.915488,-394.589996,-44.799999,-10.010000,19.61
631047,0.407968,0.840336,0.912560,-439.950012,-46.480000,-10.360000,19.61
631059,0.465064,0.730048,0.827160,-472.079987,-47.389999,-6.860000,19.61
631070,0.489464,0.515328,0.776408,-481.600006,-49.349998,-2.450000,19.64
631081,0.480192,0.513376,0.725656,-479.709991,-58.660000,7.560000,19.64
631093,0.596824,0.385032,0.708088,-458.429993,-34.860001,69.930000,19.61
631104,0.614392,0.092232,0.664656,-412.929993,-41.860001,8.890000,19.65
631116,0.681736,0.105896,0.663680,-356.510010,-38.639999,3.010000,19.65
631127,0.732000,-0.016592,0.612440,-285.390015,-24.080000,10.710000,19.62
631138,0.732000,-0.060512,0.652944,-204.539993,-16.590000,12.390000,19.65
631150,0.718824,-0.137128,0.724680,-120.610001,-8.260000,13.510000,19.65
631161,0.684176,-0.286944,0.924760,-40.389999,6.230000,24.430000,19.68
631172,0.712968,-0.209840,0.957944,16.520000,2.730000,-6.300000,19.68
631184,0.698328,-0.288408,1.042856,60.619999,4.270000,-8.190000,19.58
631195,0.675880,-0.337208,1.100440,90.790001,0.350000,-16.590000,19.63
631206,0.665144,-0.274744,1.138016,108.010002,-3.010000,-17.219999,19.63
631217,0.684176,-0.348432,1.078968,131.880005,-2.940000,-22.400000,19.62
631229,0.712968,-0.685640,0.842776,204.050003,3.990000,-33.040001,19.62
631240,0.737368,-0.980392,0.622688,295.959991,24.080000,-40.320000,19.65
631252,0.639280,-0.820328,0.607560,368.829987,33.110001,-49.910000,19.67
631263,0.526552,-0.534848,0.579256,409.079987,32.900002,-63.000000,19.67
631274,0.482632,-0.414800,0.532896,427.769989,30.030001,-65.379997,19.61
631285,0.457256,-0.211792,0.481656,439.109985,24.360001,-60.270000,19.61
631296,0.484584,-0.203496,0.321104,462.209991,29.889999,-60.689999,19.63
631307,0.542656,-0.302560,0.142008,485.450012,39.689999,-72.099998,19.61
631318,0.481168,-0.084912,-0.071248,508.059998,63.700001,-26.600000,19.61
631330,0.312320,0.261568,-0.160552,527.520020,49.910000,-46.970001,19.63
631341,0.404552,0.376248,-0.288408,536.479980,64.050003,-90.930000,19.63
631352,0.689056,0.621224,-0.367464,500.079987,75.250000,-29.469999,19.63
631363,0.450912,0.760792,-0.195200,469.489990,60.410000,-44.590000,19.62
631375,0.691496,0.872544,-0.317688,434.350006,65.730003,-22.260000,19.62
631386,0.669536,0.895480,-0.378688,452.899994,80.220001,-21.420000,19.58
631397,0.582672,1.347368,-0.462136,442.750000,98.980003,3.780000,19.58
631408,0.431880,1.831464,-0.284992,410.059998,79.940002,2.310000,19.61
631419,0.456768,1.934432,-0.110288,334.880005,65.099998,4.970000,19.62
631430,0.497272,1.834392,0.010736,265.019989,62.230000,-13.020000,19.62
631442,0.337208,1.816336,0.144448,203.699997,46.200001,4.480000,19.63
631453,0.413336,1.817800,0.214720,120.889999,37.730000,27.580000,19.63
631464,0.340136,1.654808,0.259616,38.779999,20.090000,38.500000,19.59
631475,0.404552,1.301496,0.270352,-7.840000,11.480000,53.830002,19.63
631486,0.462136,1.150704,0.253272,-68.110001,7.630000,56.490002,19.63
631497,0.452864,0.969656,0.183488,-101.500000,0.420000,52.150002,19.64
631508,0.471896,0.660264,0.171776,-114.449997,-0.770000,45.990002,19.64
631519,0.472384,0.557784,0.087840,-108.500000,-3.990000,51.799999,19.62
631530,0.488488,0.636352,-0.012688,-107.730003,1.890000,54.669998,19.61
631542,0.503128,0.607560,0.005368,-108.849998,1.680000,52.150002,19.61
631553,0.538752,0.627568,0.089792,-103.250000,-2.170000,52.009998,19.62
631564,0.554856,0.766648,0.272304,-94.709999,-2.520000,49.980000,19.62
631575,0.529968,0.923296,0.379664,-96.949997,-4.480000,41.160000,19.65
631586,0.517280,1.047248,0.412360,-130.410004,-8.330000,41.090000,19.63
631597,0.451888,1.264896,0.421144,-203.770004,-19.459999,35.490002,19.63
631608,0.463112,1.234640,0.480192,-272.230011,-26.809999,26.320000,19.62
631619,0.505568,1.107272,0.475312,-379.750000,-25.059999,16.240000,19.62
631630,0.445056,0.800808,0.438712,-465.779999,-30.170000,6.020000,19.62
631641,0.555832,0.342088,0.306464,-522.340027,-32.480000,10.850000,19.62
631652,0.602680,-0.017568,0.330376,-519.330017,-30.030001,25.059999,19.63
631664,0.571936,-0.066368,0.426024,-510.019989,-29.190001,5.810000,19.65
631675,0.543632,0.090280,0.600240,-506.170013,-39.830002,-13.650000,19.65
631686,0.602192,0.276208,0.713456,-516.390015,-42.070000,-16.660000,19.64
631697,0.511912,0.350384,0.808128,-524.789978,-47.810001,-28.980000,19.64
631709,0.557784,0.325984,0.842776,-535.080017,-46.759998,-30.450001,19.60
631720,0.549976,0.349896,0.814472,-532.979980,-51.310001,-10.430000,19.64
631731,0.646112,0.244488,0.655872,-515.479980,-38.849998,39.970001,19.64
631743,0.561200,0.116632,0.612928,-457.380005,-39.270000,-15.050000,19.62
631754,0.758840,0.054656,0.626104,-391.510010,-28.910000,-6.300000,19.65
631765,0.774456,-0.149816,0.634888,-312.970001,-14.910000,7.490000,19.65
631777,0.772504,-0.220576,0.697352,-235.059998,-10.570000,-0.980000,19.67
631788,0.670024,-0.324520,0.852048,-164.710007,9.450000,10.430000,19.67
631800,0.682712,-0.202032,0.818864,-113.750000,8.680000,-19.670000,19.64
631811,0.686616,-0.222040,0.858880,-63.209999,10.570000,-14.280000,19.64
631822,0.659288,-0.243512,0.842288,-18.620001,12.530000,-16.799999,19.64
631833,0.663680,-0.204960,0.846680,12.460000,11.760000,-17.920000,19.64
631845,0.631472,-0.084912,0.882792,23.379999,7.140000,-15.960000,19.64
631856,0.631960,-0.078568,0.944280,22.610001,5.810000,-15.890000,19.61
631867,0.629032,-0.098088,0.993568,26.950001,2.240000,-12.600000,19.60
631878,0.648064,-0.096624,1.013576,36.610001,0.560000,-10.080000,19.60
631890,0.675880,-0.217160,0.958920,60.619999,2.940000,-11.970000,19.68
631901,0.727120,-0.415288,0.889624,110.529999,9.940000,-17.990000,19.68
631912,0.747616,-0.546560,0.860832,161.770004,15.680000,-29.750000,19.65
631923,0.720776,-0.525576,0.714920,217.630005,25.270000,-41.439999,19.61
631935,0.647088,-0.502152,0.628544,252.630005,33.810001,-55.720001,19.61
631946,0.572424,-0.409920,0.548024,268.170013,40.669998,-57.400002,19.61
631957,0.463600,-0.267424,0.561688,262.429993,42.980000,-56.209999,19.61
631968,0.479216,-0.232288,0.470432,287.630005,46.759998,-48.230000,19.66
631979,0.555344,-0.166408,0.433344,323.820007,45.779999,-43.119999,19.64
631990,0.597800,0.186416,0.427488,338.100006,54.250000,-38.709999,19.64
632001,0.545096,0.531920,0.366000,318.570007,61.389999,-23.100000,19.64
632012,0.370880,0.623664,0.491904,305.480011,39.549999,-29.959999,19.64
632023,0.547536,0.622200,0.588040,280.630005,42.560001,-24.080000,19.65
632034,0.502152,0.576328,0.695400,262.920013,38.779999,-25.480000,19.59
632046,0.580720,0.330376,0.777384,274.679993,30.309999,-27.440001,19.59
632057,0.683200,0.259616,0.740784,296.029999,33.180000,-17.290001,19.63
632068,0.644160,0.348432,0.639768,303.799988,32.340000,-16.240000,19.63
632079,0.649040,0.475312,0.458720,318.290009,35.000000,-15.890000,19.61
632090,0.609024,0.491416,0.346968,343.000000,45.919998,-21.700001,19.62
632101,0.662704,0.723216,0.314272,335.160004,47.599998,-12.740000,19.62
632113,0.493856,0.667584,0.203496,327.600006,54.040001,-3.710000,19.64
632124,0.329888,0.840824,0.191784,306.739990,46.340000,-19.950001,19.64
632135,0.486048,0.902800,0.161528,297.010010,41.369999,10.780000,19.62
632147,0.461160,0.869616,0.105408,287.910004,39.970001,15.190000,19.61
632158,0.459208,1.029192,0.050264,276.220001,39.549999,15.890000,19.61
632169,0.455304,1.129720,0.060024,268.589996,44.450001,17.360001,19.60
