timestamp_ms,ax,ay,az,gx,gy,gz,tempC
222154,0.482632,0.023912,0.951600,-33.880001,-0.630000,-2.380000,20.72
222165,0.489952,-0.003416,0.940376,-33.040001,1.050000,-1.890000,20.72
222176,0.504592,-0.045872,0.904264,-26.180000,3.080000,-2.450000,20.73
222187,0.514352,-0.021472,0.869616,-17.990000,5.040000,-0.840000,20.73
222198,0.532896,-0.029280,0.854488,-11.620000,8.260000,0.350000,20.75
222209,0.536312,-0.073200,0.858392,-5.460000,11.830000,0.840000,20.75
222220,0.540704,-0.030744,0.837408,-1.540000,14.070000,2.240000,20.71
222230,0.534360,0.011712,0.822768,-1.750000,15.890000,2.450000,20.73
222241,0.529480,0.033184,0.809592,-5.040000,17.430000,3.220000,20.73
222252,0.528992,0.022936,0.829600,-12.250000,18.830000,4.060000,20.72
222263,0.518744,0.011224,0.859368,-19.180000,20.299999,4.550000,20.72
222273,0.507520,0.011224,0.894016,-26.530001,20.860001,5.320000,20.73
222284,0.483120,-0.008296,0.896944,-23.799999,21.770000,3.850000,20.72
222295,0.470432,-0.008784,0.886208,-20.090000,21.350000,2.100000,20.72
222306,0.460672,-0.027816,0.853024,-15.680000,21.420000,0.910000,20.71
222317,0.458232,-0.083936,0.819840,-5.810000,24.010000,-1.890000,20.71
222328,0.434808,-0.053192,0.822280,2.730000,25.059999,-4.200000,20.76
222338,0.414312,-0.027816,0.832528,8.960000,25.830000,-5.320000,20.76
222349,0.400160,-0.008296,0.849608,13.440000,27.090000,-6.300000,20.75
222360,0.375272,0.044896,0.861808,14.630000,27.930000,-6.230000,20.70
222370,0.368440,0.109800,0.868640,8.540000,25.129999,-6.370000,20.70
222381,0.368928,0.171288,0.891088,-3.010000,25.969999,-5.180000,20.72
222392,0.349896,0.152256,0.903776,-16.660000,24.500000,-4.340000,20.72
222403,0.353312,0.101016,0.905728,-24.780001,23.870001,-3.080000,20.67
222413,0.347944,0.073688,0.926224,-33.180000,22.889999,-1.960000,20.67
222424,0.328912,0.077592,0.937936,-37.169998,22.190001,-1.400000,20.71
222435,0.325984,0.046848,0.949648,-36.750000,20.020000,-1.610000,20.72
222446,0.332328,0.035136,0.952576,-37.029999,18.760000,-0.840000,20.72
222457,0.330864,0.010736,0.959408,-37.029999,17.639999,-0.210000,20.72
222468,0.330864,-0.030744,0.942328,-34.930000,16.590000,-1.120000,20.72
222479,0.319640,-0.019032,0.942816,-33.040001,15.050000,-0.980000,20.75
222490,0.311832,0.012688,0.951112,-34.509998,13.300000,-1.470000,20.71
222500,0.309880,0.015616,0.946720,-36.680000,11.270000,-1.330000,20.71
222511,0.318176,0.035624,0.952576,-43.330002,10.080000,-0.350000,20.73
222522,0.307928,0.058072,0.938424,-52.080002,9.100000,-0.280000,20.73
222533,0.310368,0.000000,0.924272,-56.209999,8.400000,-0.840000,20.71
222544,0.304512,-0.044408,0.931104,-57.119999,7.700000,-0.420000,20.71
222555,0.290360,-0.040504,0.933544,-57.680000,6.090000,-0.630000,20.73
222566,0.289384,-0.076128,0.914024,-56.490002,4.760000,-1.540000,20.79
222576,0.306952,-0.122976,0.898896,-52.220001,5.040000,-2.730000,20.79
222587,0.297680,-0.139568,0.903776,-45.080002,5.600000,-4.970000,20.73
222598,0.301584,-0.123464,0.927200,-39.759998,5.110000,-6.090000,20.73
222609,0.294752,-0.095648,0.944768,-35.070000,4.480000,-6.790000,20.74
222620,0.291824,-0.100528,0.950136,-32.130001,4.200000,-7.280000,20.70
222631,0.297680,-0.101992,0.936472,-30.660000,4.130000,-6.300000,20.70
222642,0.299632,-0.113704,0.925248,-28.840000,4.060000,-6.160000,20.74
222653,0.305000,-0.146400,0.927200,-26.670000,4.830000,-5.250000,20.74
222664,0.303536,-0.177144,0.932568,-20.790001,5.810000,-5.670000,20.75
222675,0.298656,-0.154696,0.946232,-13.440000,6.160000,-6.230000,20.75
222686,0.290848,-0.155184,0.949160,-9.520000,5.040000,-5.880000,20.74
222697,0.290848,-0.165920,0.947208,-7.980000,5.110000,-5.740000,20.65
222708,0.281088,-0.173240,0.945256,-7.280000,4.900000,-5.110000,20.65
222719,0.283528,-0.166896,0.951112,-8.610000,4.410000,-3.640000,20.74
222730,0.284992,-0.163968,0.958920,-11.200000,4.270000,-2.940000,20.74
222741,0.283040,-0.170800,0.956968,-13.440000,4.410000,-1.540000,20.78
222752,0.289384,-0.186416,0.965752,-15.750000,4.550000,-0.630000,20.69
222763,0.287432,-0.197152,0.972096,-15.540000,4.200000,-0.350000,20.69
222774,0.282552,-0.248392,0.977464,-11.760000,4.130000,-0.490000,20.73
222785,0.280600,-0.241072,0.972584,-5.250000,3.500000,-0.420000,20.73
222795,0.280600,-0.189832,0.976976,-3.920000,2.730000,0.700000,20.73
222806,0.281576,-0.172264,0.993080,-6.370000,1.260000,2.310000,20.73
222817,0.297680,-0.212280,0.985272,-9.590000,1.610000,3.570000,20.72
222828,0.293288,-0.256200,0.968192,-6.370000,2.170000,3.360000,20.72
222839,0.296216,-0.253760,0.936472,-3.010000,2.450000,3.010000,20.72
222850,0.292800,-0.254248,0.928176,0.210000,2.170000,2.660000,20.73
222861,0.287920,-0.249856,0.923784,2.100000,1.260000,3.500000,20.73
222871,0.319152,-0.222040,0.923296,2.030000,2.870000,2.380000,20.73
222882,0.296216,-0.185440,0.928176,-1.470000,1.190000,2.870000,20.74
222893,0.317688,-0.184952,0.934032,-5.110000,1.120000,2.940000,20.74
222904,0.319152,-0.185928,0.940864,-9.100000,0.910000,3.710000,20.70
222914,0.323056,-0.185440,0.948672,-12.810000,0.000000,3.500000,20.70
222925,0.329400,-0.200568,0.952576,-14.910000,-0.700000,3.990000,20.76
222936,0.329400,-0.200568,0.955504,-14.700000,-1.120000,3.850000,20.76
222947,0.327448,-0.201056,0.967216,-14.910000,-1.750000,4.200000,20.77
222958,0.323056,-0.211304,0.961848,-14.280000,-1.890000,4.480000,20.73
222969,0.311832,-0.206424,0.968192,-12.320000,-2.100000,4.620000,20.73
222980,0.300608,-0.204472,0.960872,-11.480000,-2.800000,4.830000,20.69
222991,0.295728,-0.238632,0.953552,-7.700000,-2.660000,3.780000,20.69
223002,0.285968,-0.220576,0.953552,-5.250000,-3.570000,3.290000,20.72
223013,0.289384,-0.222040,0.959408,-3.640000,-4.410000,2.940000,20.78
223024,0.283528,-0.223992,0.965752,-1.820000,-4.480000,2.030000,20.78
223035,0.283528,-0.209840,0.968680,-2.450000,-6.020000,2.660000,20.74
223046,0.290360,-0.212768,0.966728,-5.250000,-6.160000,2.520000,20.74
223057,0.286944,-0.222040,0.965264,-7.980000,-6.580000,2.660000,20.75
223068,0.293776,-0.231800,0.955992,-10.780000,-6.650000,2.870000,20.71
223079,0.295240,-0.247904,0.959896,-11.410000,-7.000000,3.010000,20.71
223090,0.299632,-0.254248,0.954040,-11.200000,-6.930000,2.240000,20.71
223101,0.305976,-0.289872,0.949160,-7.910000,-6.720000,1.330000,20.71
223112,0.316712,-0.281088,0.944768,-5.110000,-6.020000,0.280000,20.74
223123,0.319640,-0.268888,0.949648,-5.530000,-5.950000,0.700000,20.74
223134,0.327448,-0.267912,0.952088,-5.460000,-5.250000,0.700000,20.73
223145,0.325984,-0.243512,0.957944,-7.490000,-4.550000,1.610000,20.73
223156,0.330376,-0.241560,0.967216,-10.850000,-4.480000,2.450000,20.73
223167,0.321104,-0.255224,0.965752,-13.160000,-4.200000,2.590000,20.71
223178,0.318176,-0.278648,0.951112,-12.180000,-3.920000,2.030000,20.71
223189,0.315248,-0.277672,0.935008,-10.780000,-3.780000,1.820000,20.75
223200,0.314760,-0.290848,0.934520,-9.170000,-3.710000,1.190000,20.73
223211,0.312320,-0.284992,0.936960,-8.120000,-3.010000,1.050000,20.73
223222,0.305976,-0.284992,0.947208,-6.930000,-3.010000,0.560000,20.75
223233,0.303536,-0.274744,0.949160,-6.020000,-3.500000,0.560000,20.75
223244,0.304512,-0.269864,0.957456,-4.900000,-3.780000,0.420000,20.73
223255,0.304512,-0.255712,0.959896,-4.620000,-4.270000,0.210000,20.75
223266,0.305976,-0.249856,0.964776,-5.880000,-4.690000,0.560000,20.75
223277,0.304512,-0.255224,0.959896,-6.720000,-4.760000,0.770000,20.73
223288,0.299632,-0.276208,0.954528,-5.530000,-5.110000,0.630000,20.73
223299,0.293288,-0.277184,0.945744,-3.010000,-5.600000,0.000000,20.71
223310,0.294264,-0.274256,0.937936,-0.910000,-6.020000,-0.630000,20.71
223321,0.299144,-0.262056,0.933056,0.210000,-6.440000,-0.560000,20.68
223333,0.305976,-0.258640,0.935984,-0.770000,-6.370000,-0.140000,20.69
223344,0.311344,-0.253760,0.941840,-2.730000,-6.300000,0.490000,20.69
223355,0.314272,-0.262056,0.938424,-4.060000,-5.810000,0.770000,20.72
223366,0.311832,-0.280112,0.924760,-4.200000,-5.460000,0.700000,20.72
223377,0.311832,-0.295728,0.923784,-2.520000,-5.180000,0.420000,20.78
223388,0.309880,-0.276696,0.921832,-1.400000,-5.180000,0.070000,20.75
223399,0.316712,-0.279136,0.926224,-1.050000,-4.900000,0.070000,20.75
223410,0.320616,-0.281576,0.926712,-0.840000,-4.550000,-0.210000,20.76
223421,0.320128,-0.287920,0.921344,0.350000,-3.990000,-0.420000,20.76
223432,0.321592,-0.291336,0.911096,2.240000,-3.570000,-0.770000,20.73
223443,0.313784,-0.273768,0.906704,2.170000,-3.220000,-0.490000,20.71
223454,0.315248,-0.273768,0.919392,1.470000,-2.940000,-0.210000,20.71
223465,0.313784,-0.260592,0.924272,0.630000,-2.800000,-0.140000,20.76
223476,0.312808,-0.269864,0.922320,-0.210000,-2.730000,-0.140000,20.76
223487,0.320128,-0.294752,0.931592,0.490000,-2.380000,-0.350000,20.71
223498,0.317688,-0.284016,0.931104,0.840000,-2.310000,0.000000,20.70
223509,0.320616,-0.279624,0.928664,0.770000,-2.240000,0.070000,20.70
223520,0.319640,-0.274744,0.919880,0.490000,-2.030000,0.070000,20.73
223531,0.316224,-0.277672,0.919880,0.420000,-1.400000,-0.140000,20.73
223542,0.310856,-0.284992,0.917928,1.260000,-1.400000,-0.280000,20.74
223553,0.311344,-0.286944,0.917928,2.520000,-1.540000,-0.490000,20.76
223564,0.312808,-0.284504,0.918904,3.220000,-1.400000,-0.560000,20.76
223575,0.313784,-0.281088,0.920368,3.570000,-1.120000,-0.770000,20.74
223586,0.313784,-0.281088,0.916464,3.570000,-1.050000,-0.840000,20.74
223597,0.312808,-0.277184,0.915000,3.080000,-0.910000,-0.910000,20.79
223608,0.313784,-0.282552,0.925248,2.730000,-0.770000,-0.840000,20.79
223619,0.315736,-0.282064,0.926712,2.380000,-0.770000,-0.910000,20.74
223630,0.313296,-0.277184,0.936960,1.890000,-0.770000,-0.910000,20.72
223641,0.315736,-0.274744,0.934520,1.540000,-1.050000,-0.910000,20.72
223652,0.318664,-0.283040,0.934520,1.120000,-0.980000,-0.840000,20.75
223663,0.319152,-0.291824,0.939400,1.890000,-0.840000,-0.980000,20.75
223674,0.315736,-0.281088,0.936960,2.730000,-1.120000,-1.190000,20.75
223685,0.319152,-0.272792,0.935008,3.010000,-1.260000,-1.400000,20.66
223696,0.317688,-0.274744,0.940376,2.030000,-1.330000,-1.470000,20.66
223707,0.324520,-0.286456,0.945256,1.820000,-1.470000,-1.260000,20.72
223718,0.327448,-0.282552,0.950624,2.450000,-1.470000,-1.120000,20.72
223729,0.325496,-0.284504,0.945256,2.940000,-1.400000,-0.770000,20.76
223740,0.321104,-0.287432,0.946232,3.990000,-1.190000,-1.120000,20.75
223751,0.318176,-0.279136,0.938912,4.340000,-1.120000,-0.630000,20.75
223762,0.309880,-0.261568,0.935008,3.920000,-1.330000,-0.700000,20.75
223773,0.317200,-0.253760,0.932080,2.030000,-1.470000,-0.420000,20.75
223784,0.309392,-0.261568,0.936960,0.420000,-1.470000,-0.140000,20.68
223795,0.313296,-0.268888,0.937936,-0.210000,-1.470000,-0.420000,20.68
223806,0.311344,-0.270352,0.942328,-0.280000,-1.680000,0.070000,20.79
223817,0.320128,-0.277672,0.948672,0.070000,-1.540000,0.420000,20.71
223828,0.314272,-0.281576,0.948184,0.700000,-1.330000,0.560000,20.71
223839,0.312808,-0.274256,0.947696,1.330000,-1.680000,0.770000,20.73
223850,0.316712,-0.274256,0.945744,0.770000,-1.960000,0.840000,20.73
223861,0.316224,-0.283040,0.950136,0.700000,-1.960000,0.630000,20.75
223872,0.314760,-0.284016,0.952088,1.050000,-2.450000,0.350000,20.71
223883,0.312320,-0.282552,0.946232,1.330000,-2.870000,0.140000,20.71
223895,0.315736,-0.285480,0.947696,1.750000,-3.080000,-0.490000,20.75
223906,0.311344,-0.285968,0.948672,2.310000,-3.290000,-0.630000,20.75
223917,0.314272,-0.279624,0.945256,2.240000,-3.290000,-0.910000,20.73
223928,0.313296,-0.282064,0.949160,2.380000,-3.500000,-1.120000,20.73
223939,0.313296,-0.276208,0.948184,2.100000,-3.640000,-1.190000,20.73
223950,0.314760,-0.277184,0.944768,1.890000,-3.570000,-1.050000,20.75
223961,0.313296,-0.276696,0.949648,2.100000,-3.780000,-1.120000,20.75
223972,0.314272,-0.261080,0.943792,1.470000,-3.850000,-0.630000,20.70
223983,0.316224,-0.265960,0.938912,0.840000,-3.710000,-0.630000,20.72
223994,0.312808,-0.265472,0.934520,0.420000,-3.360000,-0.280000,20.72
224005,0.315736,-0.271816,0.932080,0.210000,-3.150000,-0.070000,20.73
224016,0.314272,-0.272304,0.931592,0.350000,-2.800000,0.000000,20.73
224027,0.311344,-0.278160,0.938424,0.630000,-2.660000,0.210000,20.75
224037,0.311344,-0.284016,0.941352,0.910000,-2.870000,0.280000,20.75
224048,0.309392,-0.284992,0.945256,1.400000,-3.010000,0.000000,20.76
224059,0.313784,-0.278648,0.946232,1.540000,-3.430000,-0.210000,20.73
224070,0.312320,-0.282552,0.947696,1.330000,-3.570000,-0.350000,20.73
224081,0.313296,-0.278160,0.940864,1.680000,-3.710000,-0.490000,20.71
224092,0.317200,-0.276208,0.938912,1.470000,-3.710000,-0.560000,20.71
224103,0.319152,-0.272304,0.935496,0.840000,-3.780000,-0.560000,20.73
224114,0.318176,-0.278648,0.931592,0.140000,-3.780000,-0.630000,20.71
224125,0.321104,-0.291824,0.926712,0.280000,-3.780000,-0.770000,20.71
224136,0.318664,-0.292312,0.927200,1.190000,-3.710000,-1.330000,20.73
224147,0.321592,-0.271328,0.929152,1.050000,-3.640000,-1.470000,20.73
224158,0.321592,-0.272792,0.928664,0.490000,-3.500000,-1.680000,20.72
224169,0.323056,-0.270352,0.927200,-0.560000,-3.430000,-1.680000,20.76
224180,0.321104,-0.278160,0.927688,-0.630000,-3.150000,-1.400000,20.76
224191,0.324032,-0.275720,0.931104,0.000000,-3.080000,-1.400000,20.73
224202,0.317688,-0.267424,0.939400,0.700000,-3.080000,-1.540000,20.73
224213,0.319640,-0.264496,0.931104,0.910000,-3.220000,-1.470000,20.78
224224,0.318176,-0.262056,0.926224,0.980000,-3.150000,-1.400000,20.78
224235,0.316224,-0.264008,0.928176,0.840000,-3.080000,-1.050000,20.75
224246,0.317200,-0.266936,0.933056,0.840000,-3.080000,-0.770000,20.76
224257,0.316224,-0.267424,0.935496,0.980000,-3.010000,-0.630000,20.76
224268,0.316224,-0.261080,0.936960,1.050000,-3.080000,-0.490000,20.74
224279,0.318664,-0.271328,0.931592,1.190000,-3.080000,-0.560000,20.74
224290,0.318176,-0.273280,0.930128,1.680000,-2.870000,-0.700000,20.76
224301,0.319640,-0.267424,0.931104,1.610000,-2.730000,-0.490000,20.79
224312,0.317688,-0.272792,0.939400,1.540000,-2.660000,-0.350000,20.79
224323,0.320616,-0.271328,0.946720,1.470000,-2.660000,-0.280000,20.71
224334,0.321104,-0.271328,0.944768,1.120000,-2.800000,-0.210000,20.71
224345,0.319640,-0.280600,0.941352,0.910000,-2.730000,-0.140000,20.74
224356,0.318664,-0.280112,0.944280,0.770000,-2.730000,-0.070000,20.73
224367,0.319640,-0.283528,0.951112,0.980000,-2.730000,-0.070000,20.73
224378,0.320616,-0.283040,0.949648,1.190000,-2.590000,-0.210000,20.76
224389,0.316712,-0.284504,0.942328,1.330000,-2.870000,-0.420000,20.76
224401,0.318176,-0.280112,0.936960,1.330000,-3.080000,-0.490000,20.76
224411,0.322080,-0.273768,0.931104,0.420000,-2.800000,-0.350000,20.76
224422,0.323056,-0.276696,0.926712,0.000000,-2.520000,-0.490000,20.73
224433,0.323544,-0.275232,0.930128,0.000000,-2.450000,-0.280000,20.71
224444,0.321592,-0.270840,0.932080,-0.140000,-2.240000,-0.350000,20.71
224456,0.318176,-0.270840,0.930616,0.000000,-2.030000,-0.280000,20.73
224466,0.319640,-0.275232,0.931592,0.140000,-2.100000,-0.070000,20.73
224477,0.319152,-0.272792,0.931592,0.350000,-2.100000,-0.140000,20.72
224488,0.322080,-0.271328,0.934032,0.000000,-2.100000,0.070000,20.73
224499,0.319640,-0.276696,0.943792,0.350000,-2.170000,0.000000,20.73
224510,0.318664,-0.273280,0.944768,0.910000,-2.590000,0.000000,20.75
224521,0.322080,-0.276208,0.941352,1.190000,-2.800000,-0.070000,20.75
224532,0.322568,-0.276208,0.937448,1.190000,-2.660000,-0.280000,20.77
224543,0.321592,-0.270352,0.936960,0.490000,-2.800000,-0.210000,20.74
224554,0.323056,-0.274744,0.937448,-0.070000,-3.010000,-0.140000,20.74
224565,0.320128,-0.283040,0.935984,0.000000,-3.290000,-0.280000,20.77
224576,0.323544,-0.282064,0.937936,0.490000,-3.500000,-0.560000,20.77
224587,0.324032,-0.285968,0.933544,1.540000,-3.500000,-0.700000,20.75
224598,0.324520,-0.281088,0.932568,2.380000,-3.430000,-0.770000,20.75
224609,0.325984,-0.270352,0.931592,2.240000,-3.500000,-0.420000,20.77
224620,0.325984,-0.263520,0.928664,1.470000,-3.360000,-0.070000,20.73
224631,0.323544,-0.264008,0.921832,0.350000,-3.010000,0.070000,20.73
224642,0.321592,-0.266936,0.923784,0.070000,-2.800000,0.000000,20.76
224653,0.322568,-0.268888,0.927688,-0.140000,-2.870000,0.140000,20.76
224664,0.321592,-0.272304,0.928664,-0.140000,-2.800000,0.210000,20.75
224675,0.321592,-0.282064,0.931592,0.630000,-2.520000,0.000000,20.72
224686,0.320616,-0.277672,0.935008,0.910000,-2.730000,-0.070000,20.72
224697,0.323544,-0.275720,0.935008,0.840000,-2.520000,-0.070000,20.73
224708,0.323056,-0.273280,0.929152,0.910000,-2.310000,-0.140000,20.73
224719,0.321592,-0.275720,0.929640,0.630000,-2.030000,0.070000,20.74
224730,0.321592,-0.276696,0.930128,0.770000,-1.960000,0.000000,20.75
224741,0.320616,-0.280600,0.932568,0.840000,-1.890000,0.000000,20.75
224752,0.319152,-0.281088,0.933056,1.260000,-1.890000,-0.280000,20.74
224763,0.319640,-0.272304,0.936472,1.120000,-2.100000,-0.420000,20.74
224774,0.325008,-0.276696,0.941352,0.840000,-2.240000,-0.420000,20.74
224785,0.321592,-0.275232,0.941840,0.490000,-2.310000,-0.490000,20.73
224796,0.322080,-0.277672,0.943792,0.490000,-2.450000,-0.350000,20.73
224807,0.318176,-0.277672,0.946232,0.350000,-2.870000,-0.280000,20.69
224818,0.319640,-0.285968,0.948184,0.910000,-3.080000,-0.490000,20.69
224829,0.318176,-0.280600,0.947208,1.190000,-3.430000,-0.420000,20.77
224840,0.322568,-0.277184,0.944768,1.470000,-3.640000,-0.700000,20.77
224851,0.323056,-0.277184,0.942328,1.610000,-3.920000,-0.840000,20.75
224862,0.326472,-0.274744,0.936472,1.470000,-3.850000,-0.980000,20.75
224873,0.322568,-0.271328,0.930128,1.190000,-3.990000,-0.910000,20.75
224884,0.322568,-0.269376,0.934032,0.630000,-4.060000,-0.840000,20.80
224895,0.325984,-0.272792,0.930128,-0.210000,-3.920000,-0.770000,20.80
224907,0.324520,-0.277672,0.935496,-0.280000,-3.710000,-0.700000,20.72
224918,0.322568,-0.272792,0.934520,-0.490000,-3.850000,-0.560000,20.77
224929,0.326960,-0.278648,0.935496,-0.070000,-3.780000,-0.490000,20.77
224940,0.328912,-0.274256,0.933056,0.280000,-3.570000,-0.420000,20.74
224951,0.328912,-0.274744,0.935984,0.560000,-3.430000,-0.350000,20.74
224963,0.327448,-0.274744,0.934520,0.980000,-3.430000,-0.280000,20.74
224974,0.327448,-0.281576,0.934032,1.120000,-3.220000,-0.140000,20.78
224985,0.326472,-0.275720,0.934520,1.190000,-3.290000,-0.140000,20.78
224996,0.324520,-0.271816,0.936472,0.910000,-3.360000,-0.350000,20.77
225007,0.323056,-0.281088,0.933544,0.770000,-3.360000,-0.490000,20.77
225018,0.322568,-0.279624,0.932568,0.840000,-3.360000,-0.560000,20.77
225029,0.326472,-0.279136,0.928176,0.490000,-3.220000,-0.560000,20.77
225040,0.322080,-0.284016,0.928664,0.770000,-3.010000,-0.700000,20.77
225051,0.321104,-0.279136,0.928176,1.120000,-2.800000,-0.910000,20.73
225062,0.322080,-0.264984,0.932568,0.630000,-2.730000,-0.630000,20.73
225073,0.325496,-0.267912,0.930128,-0.070000,-2.660000,-0.420000,20.72
225084,0.320128,-0.278160,0.932568,-0.140000,-2.590000,-0.350000,20.73
225096,0.323544,-0.284016,0.925736,0.630000,-2.380000,-0.420000,20.73
225107,0.323544,-0.284992,0.923784,1.540000,-2.310000,-0.560000,20.71
225118,0.324520,-0.274744,0.931592,1.470000,-2.170000,-0.420000,20.71
225128,0.322568,-0.271816,0.934520,0.770000,-2.170000,-0.490000,20.73
225139,0.322568,-0.274744,0.932080,0.350000,-2.170000,-0.490000,20.73
225150,0.322080,-0.273280,0.930128,0.070000,-2.170000,-0.560000,20.73
225161,0.322568,-0.279136,0.934032,-0.070000,-2.030000,-0.560000,20.76
225173,0.325984,-0.282552,0.934032,0.490000,-2.100000,-0.700000,20.76
225184,0.328424,-0.278160,0.932568,0.560000,-2.100000,-0.630000,20.74
225195,0.326472,-0.271816,0.928176,0.770000,-2.100000,-0.560000,20.74
225206,0.327936,-0.272304,0.924272,0.630000,-2.170000,-0.560000,20.72
225217,0.326472,-0.272792,0.924760,0.910000,-1.960000,-0.420000,20.73
225228,0.327936,-0.266936,0.928664,0.910000,-1.820000,-0.210000,20.73
225239,0.326472,-0.269376,0.928176,0.630000,-1.890000,-0.140000,20.77
225250,0.329400,-0.269376,0.928664,0.490000,-1.820000,0.000000,20.77
225261,0.330376,-0.275720,0.934520,0.140000,-1.820000,0.140000,20.75
225272,0.331352,-0.281088,0.933544,0.350000,-1.820000,0.070000,20.77
225283,0.329888,-0.272304,0.936960,0.560000,-1.890000,0.420000,20.77
225294,0.329888,-0.271816,0.932080,0.630000,-1.960000,0.560000,20.78
225305,0.327936,-0.271816,0.934032,0.140000,-1.820000,0.770000,20.78
225316,0.323544,-0.268400,0.934520,-0.280000,-1.890000,0.840000,20.72
225327,0.325984,-0.268400,0.937936,-0.700000,-1.680000,1.050000,20.73
225338,0.325008,-0.280112,0.935984,-0.140000,-1.890000,0.980000,20.73
225349,0.325496,-0.284016,0.939888,0.630000,-1.890000,0.980000,20.73
225360,0.324032,-0.279624,0.932568,0.980000,-1.960000,1.050000,20.73
225371,0.324520,-0.272304,0.935008,0.560000,-1.960000,1.190000,20.71
225382,0.324520,-0.273280,0.940376,-0.280000,-2.030000,1.470000,20.72
225393,0.327448,-0.285968,0.940864,-0.350000,-1.890000,1.190000,20.72
225404,0.323056,-0.294752,0.938424,0.630000,-2.030000,0.980000,20.73
225415,0.321104,-0.292800,0.934520,1.750000,-2.030000,0.700000,20.73
225426,0.321104,-0.279624,0.932568,2.030000,-2.240000,0.630000,20.77
225437,0.320616,-0.274744,0.935984,1.190000,-2.380000,0.490000,20.77
225448,0.323544,-0.278648,0.932080,0.560000,-2.450000,0.350000,20.77
225459,0.323056,-0.281576,0.933056,0.280000,-2.380000,0.210000,20.71
225470,0.320616,-0.286944,0.931592,0.630000,-2.310000,0.070000,20.71
225481,0.322568,-0.286944,0.928176,1.540000,-2.310000,0.000000,20.77
225492,0.323056,-0.281088,0.932080,1.750000,-2.380000,0.070000,20.77
225503,0.323056,-0.269864,0.932568,1.610000,-2.170000,0.140000,20.77
225514,0.325984,-0.274256,0.934032,0.770000,-2.170000,0.210000,20.71
225525,0.326960,-0.279624,0.934032,0.490000,-2.170000,0.140000,20.71
225536,0.323544,-0.278160,0.936472,0.420000,-2.170000,0.140000,20.77
225547,0.325496,-0.279624,0.935984,0.840000,-2.310000,0.070000,20.77
225557,0.324032,-0.278648,0.934032,0.840000,-2.380000,0.140000,20.74
225568,0.324032,-0.281576,0.937936,0.910000,-2.380000,0.210000,20.74
225579,0.325496,-0.274256,0.938912,0.490000,-2.450000,0.210000,20.74
225590,0.325008,-0.283040,0.938912,0.210000,-2.380000,0.140000,20.71
225601,0.323544,-0.282552,0.941352,0.770000,-2.590000,0.070000,20.71
225612,0.325984,-0.285480,0.941352,1.050000,-2.660000,0.000000,20.76
225623,0.323544,-0.281576,0.937936,1.260000,-2.870000,-0.140000,20.76
225634,0.325008,-0.277184,0.935496,0.770000,-3.080000,-0.140000,20.74
225645,0.324032,-0.279624,0.934520,0.420000,-3.080000,-0.280000,20.76
225656,0.324520,-0.284504,0.934520,0.560000,-3.290000,-0.280000,20.76
225668,0.327936,-0.284504,0.932080,0.700000,-3.360000,-0.420000,20.75
225678,0.329888,-0.282064,0.928664,0.840000,-3.220000,-0.350000,20.75
225689,0.330864,-0.281576,0.927200,0.770000,-2.940000,-0.210000,20.76
225700,0.328424,-0.281088,0.929640,0.560000,-2.940000,-0.350000,20.73
225711,0.327448,-0.282552,0.923784,0.420000,-2.870000,-0.490000,20.73
225722,0.328424,-0.288896,0.922320,0.840000,-2.590000,-0.560000,20.73
225733,0.329400,-0.283040,0.923784,1.120000,-2.380000,-0.490000,20.73
225744,0.327936,-0.272304,0.926224,0.420000,-2.380000,-0.210000,20.71
225755,0.328912,-0.272792,0.930616,-0.490000,-2.100000,-0.140000,20.71
225766,0.323544,-0.274744,0.938424,-0.770000,-1.960000,-0.070000,20.71
225777,0.320128,-0.283040,0.936472,-1.120000,-1.890000,-0.070000,20.71
225789,0.321104,-0.290360,0.938912,-0.140000,-1.890000,-0.280000,20.71
225800,0.318176,-0.284992,0.940864,0.140000,-2.030000,-0.350000,20.75
225811,0.316712,-0.288408,0.939400,0.490000,-2.100000,-0.420000,20.75
225822,0.318664,-0.281088,0.938424,0.630000,-2.380000,-0.490000,20.78
225833,0.318664,-0.281576,0.941352,0.490000,-2.590000,-0.490000,20.77
225844,0.315736,-0.282064,0.942816,0.700000,-2.520000,-0.770000,20.77
225855,0.315248,-0.284016,0.937448,0.910000,-2.730000,-0.770000,20.74
225866,0.319152,-0.280600,0.933544,1.190000,-2.730000,-0.700000,20.74
225877,0.319152,-0.281088,0.929640,1.120000,-2.590000,-0.490000,20.76
225888,0.323056,-0.274744,0.927688,0.700000,-2.380000,-0.350000,20.75
225899,0.321592,-0.274256,0.926712,0.420000,-2.240000,-0.070000,20.75
225910,0.323056,-0.281576,0.924272,0.210000,-1.960000,0.000000,20.76
225921,0.322568,-0.286456,0.924272,0.630000,-1.610000,-0.070000,20.76
225932,0.324520,-0.281576,0.927200,0.980000,-1.540000,0.140000,20.79
225943,0.322568,-0.280112,0.922320,1.190000,-1.120000,0.350000,20.74
225954,0.323544,-0.276696,0.923784,0.980000,-0.840000,0.560000,20.74
225965,0.322568,-0.275720,0.925248,0.700000,-0.560000,0.700000,20.77
225976,0.321592,-0.288896,0.927688,0.700000,-0.420000,0.560000,20.77
225987,0.321592,-0.290848,0.925248,1.120000,-0.280000,0.280000,20.77
225997,0.321592,-0.282552,0.925736,1.330000,-0.140000,0.210000,20.77
226008,0.321104,-0.275232,0.930128,0.980000,-0.140000,0.280000,20.75
226019,0.323056,-0.277672,0.926712,0.770000,0.000000,0.560000,20.77
226030,0.321104,-0.273280,0.927200,0.420000,-0.070000,0.840000,20.77
226041,0.321104,-0.269864,0.930128,0.420000,0.140000,1.120000,20.75
226052,0.315736,-0.266936,0.930128,0.490000,0.000000,1.190000,20.75
226063,0.317688,-0.276208,0.931104,0.770000,-0.070000,1.330000,20.75
226074,0.319640,-0.279136,0.927688,1.610000,-0.070000,1.400000,20.76
226085,0.319152,-0.274256,0.934520,1.960000,-0.140000,1.680000,20.76
226096,0.323056,-0.274256,0.935008,1.750000,0.000000,1.890000,20.77
226107,0.317200,-0.276696,0.933544,1.890000,-0.140000,1.890000,20.77
226117,0.316224,-0.285968,0.936960,2.310000,-0.560000,1.820000,20.76
226128,0.319152,-0.288896,0.936960,2.800000,-0.700000,1.540000,20.76
226139,0.316712,-0.283040,0.936472,2.800000,-0.980000,1.470000,20.77
226150,0.318664,-0.274256,0.939888,2.100000,-1.050000,1.470000,20.76
226161,0.321104,-0.280600,0.946720,0.910000,-1.260000,1.680000,20.76
226172,0.321104,-0.287432,0.942328,0.840000,-1.260000,1.680000,20.73
226183,0.315248,-0.291336,0.943792,1.190000,-1.330000,1.610000,20.73
226194,0.315248,-0.287920,0.943304,1.400000,-1.680000,1.330000,20.74
226205,0.312808,-0.287432,0.943792,1.330000,-2.030000,1.190000,20.72
226216,0.314272,-0.294264,0.940864,1.540000,-2.240000,0.700000,20.72
226227,0.315248,-0.292800,0.940376,1.820000,-2.450000,0.280000,20.75
226238,0.312808,-0.291336,0.949648,1.680000,-2.450000,0.350000,20.75
226248,0.315736,-0.284504,0.955992,1.470000,-2.590000,0.420000,20.73
226259,0.315248,-0.289384,0.953552,0.840000,-2.940000,0.350000,20.76
226270,0.315248,-0.293288,0.945256,0.840000,-3.150000,-0.140000,20.76
226281,0.316224,-0.290360,0.942816,0.770000,-3.150000,-0.210000,20.78
226292,0.319152,-0.285480,0.942816,0.700000,-3.220000,-0.210000,20.78
226303,0.319640,-0.282064,0.942816,0.630000,-3.360000,-0.560000,20.79
226314,0.316224,-0.284016,0.941352,0.210000,-3.430000,-0.630000,20.79
226325,0.318176,-0.289384,0.943304,0.840000,-3.360000,-0.770000,20.74
226336,0.313296,-0.280600,0.936960,1.330000,-3.570000,-1.050000,20.78
226347,0.313784,-0.279136,0.935496,1.540000,-3.710000,-1.050000,20.78
226358,0.313784,-0.279624,0.934032,1.190000,-3.780000,-0.910000,20.76
226369,0.317688,-0.278160,0.936472,0.700000,-3.710000,-1.050000,20.76
226380,0.316712,-0.280112,0.941352,0.350000,-3.920000,-1.050000,20.77
226391,0.316224,-0.287920,0.940376,0.210000,-4.130000,-1.190000,20.77
226402,0.318664,-0.284016,0.942816,0.490000,-4.410000,-1.330000,20.77
226415,0.318176,-0.279136,0.938912,0.210000,-4.340000,-1.190000,20.77
226426,0.318176,-0.284016,0.938424,0.350000,-4.270000,-1.330000,20.77
226437,0.317688,-0.280112,0.932568,0.770000,-4.200000,-1.190000,20.78
226448,0.316224,-0.277184,0.932080,0.770000,-4.060000,-0.980000,20.75
226459,0.319152,-0.271328,0.930616,0.560000,-4.060000,-0.630000,20.75
226470,0.320616,-0.274744,0.932568,0.210000,-3.780000,-0.560000,20.77
226481,0.321592,-0.275232,0.929640,-0.070000,-3.710000,-0.420000,20.77
226492,0.322080,-0.281088,0.931592,-0.070000,-3.640000,-0.280000,20.75
226503,0.326472,-0.286456,0.935008,0.280000,-3.640000,-0.210000,20.78
226514,0.323544,-0.281576,0.936960,0.770000,-3.710000,-0.350000,20.78
226525,0.321104,-0.275720,0.926712,0.420000,-3.710000,-0.350000,20.77
226536,0.319640,-0.281576,0.932080,-0.280000,-3.640000,-0.210000,20.77
226547,0.319640,-0.283528,0.932568,-0.210000,-3.920000,-0.070000,20.77
226559,0.322080,-0.285968,0.926712,-0.210000,-3.710000,-0.140000,20.80
226570,0.321592,-0.289872,0.923784,0.770000,-3.500000,-0.350000,20.80
226581,0.321104,-0.278648,0.922320,0.700000,-3.500000,-0.280000,20.77
226592,0.319152,-0.282064,0.925736,0.560000,-3.570000,-0.210000,20.77
226603,0.317688,-0.283528,0.934032,0.630000,-3.500000,-0.280000,20.78
226614,0.314760,-0.280600,0.930616,0.840000,-3.640000,-0.280000,20.73
226625,0.316712,-0.284504,0.927688,1.470000,-3.640000,-0.700000,20.73
226636,0.318176,-0.275720,0.928176,1.540000,-3.710000,-0.490000,20.71
226647,0.316712,-0.267912,0.932080,0.770000,-3.780000,-0.280000,20.71
226658,0.320128,-0.273768,0.927688,0.630000,-3.570000,-0.070000,20.79
226669,0.321104,-0.278160,0.925248,0.420000,-3.220000,0.210000,20.79
226680,0.319152,-0.285480,0.920856,1.470000,-3.220000,0.000000,20.76
226691,0.320616,-0.284504,0.918904,2.310000,-3.010000,-0.070000,20.77
226702,0.320616,-0.278648,0.922320,2.030000,-2.800000,0.140000,20.77
226712,0.323056,-0.277184,0.919880,1.680000,-2.450000,0.280000,20.79
226723,0.321104,-0.275720,0.924272,1.050000,-2.170000,0.490000,20.79
226734,0.325008,-0.278160,0.924760,0.560000,-1.750000,0.560000,20.77
226745,0.325496,-0.287432,0.927688,0.490000,-1.540000,0.630000,20.74
226756,0.323544,-0.287432,0.930616,0.980000,-1.190000,0.770000,20.74
226767,0.322568,-0.284992,0.930616,1.400000,-0.980000,0.980000,20.75
226778,0.321104,-0.288408,0.929152,1.120000,-0.910000,0.700000,20.75
226789,0.323544,-0.290848,0.933544,1.050000,-0.770000,0.560000,20.79
226800,0.321592,-0.287432,0.933544,1.330000,-0.910000,0.420000,20.77
226811,0.322568,-0.284016,0.935008,0.980000,-0.980000,0.420000,20.77
226822,0.324520,-0.285480,0.942816,0.770000,-0.980000,0.490000,20.77
226833,0.324032,-0.276696,0.942816,0.560000,-1.190000,0.350000,20.77
226844,0.318176,-0.276208,0.939888,0.280000,-1.400000,0.420000,20.74
226855,0.319152,-0.281576,0.935984,0.350000,-1.400000,0.210000,20.74
226866,0.316224,-0.279624,0.937936,0.840000,-1.610000,0.420000,20.74
226877,0.320616,-0.279136,0.931592,1.470000,-1.960000,0.210000,20.77
226888,0.324520,-0.275720,0.933056,1.120000,-1.820000,0.560000,20.77
226899,0.321592,-0.278648,0.935008,1.400000,-1.820000,0.840000,20.76
226910,0.322080,-0.272792,0.935008,1.610000,-1.890000,1.050000,20.76
226921,0.321104,-0.273768,0.935008,1.260000,-1.960000,1.470000,20.80
226932,0.319640,-0.273280,0.939400,0.770000,-1.960000,1.330000,20.72
226943,0.317200,-0.276696,0.936960,0.420000,-2.170000,1.400000,20.72
226954,0.320616,-0.285480,0.934520,0.630000,-2.240000,1.260000,20.81
226965,0.318176,-0.286456,0.936472,0.910000,-2.450000,1.050000,20.81
226976,0.319640,-0.286456,0.936960,1.120000,-2.520000,1.120000,20.75
226987,0.320128,-0.291824,0.938424,1.540000,-2.520000,0.910000,20.75
226998,0.319640,-0.290360,0.937936,1.820000,-2.660000,0.770000,20.75
227009,0.318664,-0.289872,0.935984,1.540000,-2.730000,0.420000,20.76
227020,0.320128,-0.291336,0.937448,1.400000,-2.660000,0.140000,20.76
227031,0.318664,-0.289872,0.935008,1.330000,-2.660000,0.140000,20.79
227042,0.321592,-0.285480,0.934032,1.050000,-2.520000,0.070000,20.79
227053,0.320616,-0.286944,0.936472,1.050000,-2.450000,-0.070000,20.70
227063,0.317688,-0.282064,0.939400,1.050000,-2.520000,0.000000,20.74
227074,0.317688,-0.286944,0.943304,0.700000,-2.730000,0.070000,20.74
227085,0.318176,-0.286456,0.941352,0.560000,-2.800000,0.070000,20.79
227096,0.319640,-0.284504,0.941840,0.490000,-2.940000,-0.070000,20.79
227107,0.318176,-0.290360,0.939888,0.560000,-3.010000,-0.420000,20.77
227118,0.318664,-0.285968,0.939400,0.910000,-3.010000,-0.350000,20.77
227129,0.317688,-0.282064,0.937448,0.700000,-3.080000,-0.070000,20.77
227140,0.319152,-0.279136,0.940376,0.420000,-3.010000,0.000000,20.77
227151,0.317688,-0.280112,0.940864,0.420000,-3.220000,0.210000,20.77
227162,0.318664,-0.285968,0.941840,0.630000,-3.290000,0.070000,20.79
227173,0.316712,-0.286456,0.936960,1.050000,-3.360000,0.000000,20.79
227184,0.318176,-0.282064,0.929152,1.120000,-3.570000,-0.140000,20.78
227195,0.318176,-0.283528,0.927200,0.840000,-3.430000,-0.210000,20.77
227206,0.321104,-0.279136,0.928664,0.630000,-3.430000,-0.140000,20.77
227217,0.326960,-0.283528,0.932568,0.630000,-3.150000,-0.140000,20.79
227228,0.323056,-0.282552,0.931104,0.700000,-3.220000,-0.210000,20.79
227239,0.322080,-0.284992,0.929640,0.770000,-3.150000,-0.350000,20.78
227250,0.321104,-0.283528,0.932080,1.120000,-3.360000,-0.420000,20.75
227261,0.321104,-0.280112,0.931104,1.050000,-3.430000,-0.280000,20.75
227272,0.319640,-0.278160,0.931592,1.190000,-3.430000,-0.210000,20.76
227283,0.318176,-0.276696,0.932568,1.260000,-3.500000,0.000000,20.76
227294,0.320128,-0.279136,0.932568,1.470000,-3.850000,0.280000,20.77
227305,0.320616,-0.286944,0.935008,2.170000,-3.710000,0.280000,20.72
227316,0.322080,-0.284992,0.930128,3.150000,-3.850000,0.210000,20.72
227327,0.327936,-0.284504,0.925736,3.710000,-3.640000,0.140000,20.79
227338,0.327448,-0.278160,0.928176,3.570000,-3.430000,0.350000,20.79
227349,0.327936,-0.269864,0.929152,2.800000,-3.290000,0.560000,20.80
227360,0.326960,-0.267424,0.927688,1.680000,-3.290000,0.770000,20.80
227371,0.328424,-0.279624,0.926224,0.980000,-3.220000,0.630000,20.74
227382,0.330376,-0.288896,0.927688,1.120000,-3.150000,0.700000,20.76
227393,0.326960,-0.289872,0.930616,1.680000,-2.940000,0.630000,20.76
227403,0.325496,-0.284504,0.928176,2.590000,-2.660000,0.350000,20.76
227414,0.321104,-0.282064,0.926712,3.220000,-2.660000,0.210000,20.76
227425,0.328424,-0.284504,0.928176,3.780000,-2.590000,0.070000,20.77
227436,0.325984,-0.278160,0.932568,3.500000,-2.590000,0.210000,20.75
227447,0.328912,-0.279136,0.936960,3.430000,-2.590000,0.350000,20.75
227458,0.329400,-0.275232,0.933056,2.380000,-2.590000,0.420000,20.73
227469,0.329888,-0.274744,0.927200,1.680000,-2.380000,0.350000,20.73
227480,0.327936,-0.274256,0.927688,0.770000,-2.310000,0.350000,20.79
227491,0.325984,-0.276696,0.928176,0.210000,-2.380000,0.280000,20.75
227502,0.330376,-0.282064,0.935496,0.000000,-2.240000,0.420000,20.75
227513,0.326960,-0.280112,0.941840,0.490000,-2.240000,0.420000,20.77
227524,0.326472,-0.282552,0.946232,0.910000,-2.380000,0.490000,20.77
227535,0.322080,-0.277672,0.945744,0.910000,-2.520000,0.490000,20.77
227546,0.320128,-0.280112,0.945744,0.700000,-2.940000,0.210000,20.77
227557,0.317688,-0.281088,0.946720,0.490000,-3.080000,0.070000,20.75
227568,0.318176,-0.279136,0.944280,0.210000,-3.500000,0.280000,20.74
227579,0.320128,-0.278648,0.941352,0.070000,-3.710000,0.280000,20.74
227590,0.321104,-0.279136,0.936472,0.280000,-3.640000,0.210000,20.77
227601,0.321592,-0.279624,0.936960,0.420000,-3.640000,0.280000,20.77
227612,0.321104,-0.283528,0.940864,0.770000,-3.570000,0.210000,20.77
227622,0.318664,-0.283528,0.938424,0.980000,-3.850000,0.420000,20.78
227633,0.317688,-0.282552,0.937936,1.330000,-3.920000,0.210000,20.78
227644,0.323544,-0.280112,0.931592,1.610000,-3.990000,0.210000,20.79
227655,0.326472,-0.279624,0.927688,1.260000,-3.780000,0.490000,20.79
227666,0.325496,-0.273768,0.923296,0.910000,-3.360000,0.770000,20.79
227677,0.321592,-0.272304,0.924760,0.070000,-3.220000,1.120000,20.79
227688,0.321592,-0.279136,0.921344,0.000000,-3.080000,1.190000,20.76
227699,0.320128,-0.287432,0.915488,0.280000,-2.870000,1.050000,20.77
227710,0.317200,-0.289384,0.925248,0.910000,-2.450000,0.770000,20.77
227721,0.321104,-0.284504,0.928664,1.120000,-2.590000,0.700000,20.79
227732,0.320616,-0.285480,0.934520,1.260000,-2.450000,0.700000,20.79
227743,0.322568,-0.286456,0.930128,1.050000,-2.520000,0.560000,20.78
227754,0.321104,-0.289872,0.929152,1.330000,-2.310000,0.420000,20.79
227765,0.321104,-0.285968,0.924760,1.260000,-2.380000,0.350000,20.79
227776,0.320616,-0.285480,0.930128,1.120000,-2.380000,0.210000,20.80
227787,0.321592,-0.279624,0.929152,0.770000,-2.170000,0.210000,20.80
227798,0.321104,-0.284504,0.933544,0.560000,-2.170000,0.000000,20.80
227809,0.323544,-0.286944,0.930616,0.910000,-2.100000,-0.140000,20.79
227820,0.325008,-0.284504,0.926712,1.050000,-2.170000,-0.140000,20.79
227831,0.325496,-0.284016,0.932080,1.190000,-2.100000,-0.140000,20.76
227842,0.325496,-0.283040,0.937448,1.330000,-2.170000,-0.070000,20.76
227853,0.322080,-0.275232,0.940376,0.980000,-2.170000,-0.070000,20.83
227864,0.320616,-0.277184,0.940864,0.770000,-2.520000,-0.280000,20.73
227875,0.318664,-0.279624,0.938912,0.910000,-2.800000,-0.490000,20.73
227886,0.319640,-0.281576,0.935984,1.330000,-2.870000,-0.490000,20.74
227897,0.320616,-0.280600,0.936960,1.470000,-3.080000,-0.420000,20.74
227908,0.324520,-0.282552,0.936960,1.820000,-3.080000,-0.350000,20.78
227919,0.324032,-0.276208,0.931104,1.820000,-3.290000,-0.140000,20.78
227930,0.328424,-0.279136,0.930128,1.050000,-3.430000,0.070000,20.77
227941,0.325008,-0.283040,0.929152,1.120000,-3.290000,0.070000,20.78
227952,0.327936,-0.285968,0.929640,1.470000,-3.430000,0.070000,20.78
227963,0.328424,-0.280600,0.930616,1.400000,-3.150000,0.140000,20.80
227974,0.328912,-0.280600,0.928176,1.330000,-2.940000,0.070000,20.80
227985,0.328424,-0.279624,0.929152,0.980000,-2.800000,0.420000,20.77
227996,0.328424,-0.282064,0.928664,0.770000,-2.870000,0.420000,20.78
228007,0.327936,-0.284016,0.927200,1.120000,-2.940000,0.280000,20.78
228018,0.329400,-0.282064,0.926712,1.190000,-2.730000,0.280000,20.79
228029,0.328424,-0.278648,0.930128,0.770000,-2.870000,0.210000,20.79
228040,0.328912,-0.277184,0.933056,0.350000,-3.010000,0.210000,20.80
228051,0.328912,-0.283528,0.932568,0.350000,-2.940000,0.210000,20.73
228062,0.325008,-0.283528,0.933544,0.560000,-2.870000,0.210000,20.73
228073,0.324032,-0.287920,0.935008,1.400000,-3.080000,0.000000,20.80
228084,0.320128,-0.282064,0.937448,2.030000,-3.220000,0.000000,20.80
228095,0.324520,-0.278160,0.936472,1.890000,-3.360000,0.000000,20.77
228106,0.325984,-0.275720,0.934032,1.680000,-3.360000,-0.070000,20.77
228117,0.325496,-0.271328,0.934032,1.260000,-3.570000,-0.210000,20.78
228128,0.324520,-0.279136,0.930128,0.910000,-3.570000,-0.210000,20.80
228139,0.328912,-0.284992,0.930616,1.190000,-3.360000,-0.210000,20.80
228150,0.328912,-0.284016,0.933056,1.540000,-3.430000,-0.140000,20.78
228161,0.330864,-0.279136,0.930616,1.680000,-3.290000,-0.070000,20.78
228172,0.328424,-0.280600,0.931592,1.330000,-3.010000,-0.070000,20.77
228183,0.328912,-0.278648,0.930128,1.260000,-3.010000,0.000000,20.78
228194,0.328424,-0.275232,0.929152,0.630000,-3.010000,0.210000,20.78
228205,0.325008,-0.285480,0.929640,0.630000,-2.940000,0.070000,20.77
228215,0.326960,-0.285968,0.934032,1.190000,-2.940000,0.000000,20.77
228226,0.328912,-0.284992,0.935984,1.680000,-3.150000,0.000000,20.76
228237,0.330376,-0.282552,0.930616,1.820000,-2.870000,0.000000,20.77
228248,0.327936,-0.285480,0.930128,1.960000,-2.730000,0.000000,20.77
228259,0.329400,-0.281576,0.931104,1.820000,-2.870000,0.000000,20.75
228270,0.330376,-0.276696,0.932568,1.330000,-2.870000,-0.070000,20.75
228281,0.329888,-0.276696,0.924760,0.840000,-2.590000,-0.070000,20.82
228293,0.330376,-0.276696,0.928176,0.280000,-2.520000,0.070000,20.82
228304,0.329888,-0.277184,0.930616,0.140000,-2.450000,0.070000,20.77
228314,0.331840,-0.277184,0.933056,0.140000,-2.240000,0.000000,20.79
228325,0.327936,-0.283528,0.932080,0.420000,-2.310000,-0.070000,20.79
228336,0.326960,-0.284504,0.932080,0.770000,-2.380000,0.070000,20.77
228347,0.326472,-0.283528,0.930616,1.190000,-2.450000,0.070000,20.77
228358,0.323544,-0.281576,0.929640,1.400000,-2.590000,-0.070000,20.80
228369,0.317200,-0.276696,0.935496,1.400000,-2.730000,-0.280000,20.76
228380,0.318176,-0.275720,0.935984,1.330000,-3.080000,-0.350000,20.76
228391,0.325984,-0.280600,0.931104,1.260000,-3.150000,-0.420000,20.81
228402,0.326472,-0.279624,0.931592,1.540000,-2.870000,-0.560000,20.81
228413,0.326960,-0.273768,0.929152,1.470000,-2.870000,-0.560000,20.81
228424,0.330376,-0.270352,0.929152,1.050000,-2.520000,-0.490000,20.79
228435,0.331352,-0.271816,0.926712,0.910000,-2.310000,-0.420000,20.79
228446,0.329400,-0.273768,0.922320,1.050000,-2.170000,-0.420000,20.81
228457,0.328912,-0.278648,0.921832,1.820000,-2.240000,-0.420000,20.81
228468,0.332816,-0.270840,0.926712,2.100000,-2.170000,-0.280000,20.79
228479,0.331840,-0.268400,0.926712,1.680000,-2.310000,0.000000,20.79
228490,0.332816,-0.281088,0.931592,1.470000,-2.170000,-0.070000,20.80
228501,0.329400,-0.280600,0.930128,1.540000,-2.380000,-0.140000,20.79
228512,0.330864,-0.283040,0.927688,1.330000,-2.590000,-0.210000,20.79
228523,0.331840,-0.284016,0.933544,1.330000,-2.730000,-0.350000,20.80
228534,0.331352,-0.279136,0.936472,0.910000,-2.660000,0.140000,20.80
228545,0.336720,-0.286456,0.932568,0.630000,-2.870000,-0.280000,20.77
228556,0.331352,-0.285968,0.933544,1.680000,-2.800000,0.140000,20.78
228567,0.330376,-0.280112,0.924272,1.190000,-3.080000,0.280000,20.78
228578,0.332328,-0.286944,0.929152,1.750000,-2.870000,0.070000,20.76
228589,0.330376,-0.282064,0.935008,1.820000,-2.940000,-0.140000,20.76
228600,0.328424,-0.271816,0.937448,1.260000,-2.870000,0.070000,20.79
228611,0.329400,-0.274744,0.937448,0.700000,-2.800000,-0.070000,20.81
228622,0.326960,-0.278160,0.938912,0.350000,-2.940000,-0.070000,20.81
228633,0.327936,-0.288896,0.936472,0.770000,-3.010000,-0.350000,20.77
228644,0.325496,-0.285480,0.937448,1.610000,-3.220000,-0.420000,20.77
228655,0.326472,-0.285480,0.936960,2.170000,-3.010000,-0.630000,20.78
228666,0.326472,-0.279624,0.938424,2.100000,-3.010000,-0.560000,20.77
228677,0.330864,-0.277184,0.937448,1.540000,-2.800000,-0.350000,20.77
228688,0.329400,-0.274744,0.935984,0.910000,-2.590000,-0.070000,20.80
228700,0.326960,-0.274744,0.937448,0.350000,-2.380000,0.210000,20.80
228711,0.325984,-0.278160,0.937936,0.210000,-2.380000,0.210000,20.76
228722,0.326960,-0.283528,0.935496,0.210000,-2.100000,0.210000,20.76
228733,0.328424,-0.288408,0.935496,0.770000,-2.100000,0.000000,20.80
228743,0.328912,-0.280112,0.932080,0.980000,-2.170000,-0.350000,20.78
228754,0.330864,-0.275720,0.929640,0.700000,-1.960000,-0.490000,20.78
228765,0.330376,-0.279136,0.930128,0.350000,-1.960000,-0.630000,20.79
228776,0.327448,-0.278160,0.930128,0.280000,-2.030000,-0.560000,20.79
228787,0.327936,-0.277184,0.930128,0.420000,-2.170000,-0.490000,20.77
228798,0.329400,-0.272304,0.934520,0.700000,-2.380000,-0.560000,20.75
228809,0.326960,-0.265472,0.931104,0.210000,-2.520000,-0.350000,20.75
228820,0.329400,-0.276208,0.931592,0.210000,-2.660000,-0.350000,20.77
228831,0.327448,-0.281576,0.928176,0.630000,-2.590000,-0.420000,20.77
228842,0.329888,-0.282552,0.925248,1.540000,-2.940000,-0.490000,20.79
228853,0.329400,-0.278160,0.926712,1.540000,-2.940000,-0.560000,20.73
228864,0.334280,-0.270352,0.928664,1.260000,-2.870000,-0.420000,20.73
228875,0.332816,-0.272792,0.929640,0.770000,-2.870000,-0.420000,20.76
228886,0.333792,-0.278648,0.930616,0.490000,-3.150000,-0.630000,20.76
228897,0.332328,-0.284504,0.928664,0.840000,-3.150000,-0.630000,20.85
228908,0.332816,-0.287432,0.927200,1.610000,-3.220000,-0.910000,20.85
228919,0.333304,-0.278160,0.926224,1.960000,-3.150000,-0.840000,20.76
228930,0.334280,-0.270352,0.930616,1.400000,-3.010000,-0.560000,20.75
228941,0.334768,-0.267424,0.933056,0.910000,-2.940000,-0.420000,20.75
228952,0.335256,-0.275720,0.927200,0.560000,-2.800000,-0.280000,20.74
228963,0.337696,-0.281576,0.923784,0.980000,-2.730000,-0.350000,20.74
228974,0.336720,-0.279624,0.925248,1.330000,-2.590000,0.000000,20.76
228985,0.333792,-0.274744,0.923784,1.260000,-2.450000,0.000000,20.74
228996,0.332816,-0.273768,0.924760,0.980000,-2.380000,-0.070000,20.74
229007,0.334768,-0.278160,0.929152,0.840000,-2.170000,-0.070000,20.78
229018,0.335744,-0.279136,0.933544,0.700000,-1.960000,-0.070000,20.78
229029,0.333304,-0.278160,0.934520,1.120000,-1.960000,-0.350000,20.77
229040,0.330864,-0.275720,0.931592,1.330000,-2.030000,-0.210000,20.76
229051,0.331352,-0.266936,0.929640,0.980000,-2.170000,0.140000,20.76
229063,0.329888,-0.267912,0.926712,0.280000,-2.170000,0.280000,20.82
229074,0.329888,-0.272792,0.935496,-0.070000,-2.100000,0.630000,20.82
229084,0.329400,-0.276696,0.939400,0.000000,-2.100000,0.560000,20.79
229095,0.328424,-0.285480,0.939400,0.910000,-2.100000,0.420000,20.79
229106,0.329400,-0.282064,0.933056,1.610000,-2.100000,0.140000,20.79
229117,0.325008,-0.276208,0.934032,1.680000,-2.100000,0.070000,20.80
229128,0.323056,-0.272792,0.934520,1.260000,-2.240000,-0.140000,20.80
229139,0.325984,-0.270840,0.934032,0.840000,-2.520000,-0.140000,20.81
229150,0.332328,-0.277184,0.934032,0.490000,-2.520000,-0.070000,20.81
229161,0.325984,-0.278160,0.930616,0.560000,-2.240000,0.000000,20.82
229172,0.326960,-0.282552,0.930616,1.120000,-2.170000,-0.140000,20.79
229183,0.325984,-0.273280,0.927688,1.540000,-2.310000,0.070000,20.79
229194,0.324520,-0.272304,0.931104,1.260000,-2.380000,0.350000,20.79
229205,0.325984,-0.276208,0.928176,0.980000,-2.380000,0.350000,20.79
229216,0.328424,-0.276208,0.926224,0.770000,-2.100000,0.490000,20.76
229227,0.330864,-0.283040,0.928176,0.980000,-1.820000,0.280000,20.81
229238,0.328424,-0.279624,0.925248,1.400000,-1.680000,0.210000,20.81
229249,0.327936,-0.280600,0.921344,1.330000,-1.680000,0.140000,20.79
229260,0.325984,-0.275232,0.922320,0.980000,-1.540000,0.210000,20.79
229271,0.327448,-0.277184,0.927200,0.630000,-1.610000,0.210000,20.79
229282,0.326960,-0.289872,0.923784,0.980000,-1.400000,0.070000,20.79
229293,0.328912,-0.287432,0.930128,1.260000,-1.470000,-0.070000,20.78
229304,0.333792,-0.282552,0.938912,1.190000,-1.400000,-0.070000,20.74
229315,0.329888,-0.282064,0.940864,1.190000,-1.540000,-0.280000,20.74
229326,0.330376,-0.281088,0.932568,1.540000,-1.470000,-0.210000,20.80
229337,0.328912,-0.276208,0.931592,1.190000,-1.750000,-0.210000,20.80
229348,0.332328,-0.273768,0.939888,0.560000,-1.890000,-0.070000,20.76
229359,0.329888,-0.275720,0.947208,0.070000,-2.170000,0.070000,20.75
229370,0.329400,-0.280600,0.947696,0.070000,-2.520000,0.210000,20.75
229381,0.327448,-0.286456,0.943304,0.630000,-2.870000,0.140000,20.80
229392,0.328912,-0.288408,0.940376,1.750000,-2.940000,-0.140000,20.80
229403,0.328912,-0.278160,0.940376,1.960000,-3.080000,-0.280000,20.78
229414,0.329400,-0.272304,0.940864,1.470000,-3.150000,-0.070000,20.80
229425,0.329400,-0.275232,0.936960,0.560000,-3.220000,0.070000,20.80
229436,0.332816,-0.282552,0.934520,0.280000,-3.220000,-0.210000,20.77
229447,0.326960,-0.288896,0.931592,0.700000,-3.430000,-0.490000,20.77
229458,0.326960,-0.283040,0.929640,1.330000,-3.570000,-0.630000,20.79
229469,0.329888,-0.276208,0.929152,1.260000,-3.500000,-0.630000,20.75
229480,0.330376,-0.271328,0.923784,0.420000,-3.290000,-0.490000,20.75
229492,0.332328,-0.274256,0.923296,0.070000,-2.870000,-0.420000,20.79
229502,0.333304,-0.278160,0.931104,0.070000,-2.660000,-0.350000,20.79
229514,0.333792,-0.286456,0.929152,0.980000,-2.520000,-0.490000,20.80
229525,0.329400,-0.292312,0.935984,1.400000,-2.380000,-0.700000,20.81
229536,0.324520,-0.292800,0.941352,2.170000,-2.730000,-1.120000,20.81
229548,0.323056,-0.284992,0.944768,1.400000,-3.150000,-1.540000,20.82
229559,0.322568,-0.290848,0.946720,0.560000,-3.640000,-2.170000,20.82
229570,0.320616,-0.297192,0.952576,0.000000,-4.270000,-2.660000,20.80
229581,0.321104,-0.297192,0.952576,0.350000,-4.830000,-3.010000,20.80
229592,0.324520,-0.298656,0.950136,1.050000,-5.390000,-3.430000,20.80
229603,0.325008,-0.294264,0.945256,1.400000,-5.530000,-3.780000,20.78
229615,0.327936,-0.280112,0.930616,1.190000,-5.740000,-3.920000,20.78
229626,0.331352,-0.277672,0.926224,0.910000,-5.670000,-3.990000,20.78
229638,0.335256,-0.269864,0.918904,0.630000,-5.600000,-3.850000,20.77
229649,0.340136,-0.273280,0.913048,0.420000,-5.110000,-3.640000,20.77
229660,0.340624,-0.275720,0.911096,0.420000,-4.480000,-2.450000,20.80
229672,0.343064,-0.272792,0.914024,0.840000,-3.500000,-3.220000,20.80
229683,0.343552,-0.272304,0.913048,0.980000,-3.570000,-2.590000,20.82
229694,0.339648,-0.258152,0.905240,0.770000,-2.800000,-2.380000,20.77
229706,0.340624,-0.262056,0.904752,-0.140000,-2.310000,-2.240000,20.77
229717,0.343064,-0.258640,0.910608,-0.490000,-1.680000,-1.540000,20.83
229729,0.345016,-0.258640,0.914512,-0.420000,-1.050000,-0.770000,20.83
229741,0.341112,-0.257664,0.915976,-0.140000,-0.560000,-0.280000,20.80
229752,0.341112,-0.252784,0.915976,-0.140000,-0.140000,0.210000,20.78
229763,0.336720,-0.256688,0.917440,-0.070000,0.140000,0.560000,20.78
229774,0.332816,-0.255224,0.921832,0.210000,0.280000,0.840000,20.80
229785,0.332816,-0.264008,0.923296,0.910000,0.280000,1.050000,20.80
229796,0.332816,-0.263520,0.925736,1.750000,0.210000,1.120000,20.80
229807,0.335256,-0.255224,0.925248,1.750000,0.350000,1.400000,20.81
229818,0.337696,-0.253272,0.923784,1.400000,0.210000,1.890000,20.81
229829,0.338672,-0.254248,0.924272,0.490000,0.210000,2.240000,20.77
229840,0.342088,-0.259128,0.928664,0.280000,0.420000,2.730000,20.77
229851,0.337696,-0.262544,0.929152,0.420000,0.490000,3.360000,20.79
229862,0.333304,-0.270352,0.927200,0.910000,0.490000,3.710000,20.79
229873,0.331840,-0.269376,0.926224,1.330000,0.560000,3.920000,20.79
229884,0.330376,-0.276208,0.928176,1.890000,0.630000,3.920000,20.80
229895,0.327936,-0.277672,0.932568,2.170000,0.420000,3.920000,20.80
229906,0.334280,-0.278160,0.940864,1.820000,0.350000,3.850000,20.79
229917,0.324520,-0.282552,0.939888,1.470000,0.070000,3.570000,20.79
229928,0.324520,-0.288896,0.938912,1.190000,-0.420000,3.290000,20.76
229939,0.324032,-0.289872,0.939888,0.980000,-0.700000,2.940000,20.77
229950,0.322080,-0.290848,0.945744,0.980000,-1.260000,2.450000,20.77
229961,0.322080,-0.296704,0.942328,1.400000,-1.610000,2.030000,20.78
229972,0.321592,-0.297680,0.940864,1.890000,-1.960000,1.400000,20.78
229983,0.321592,-0.291336,0.939888,2.030000,-2.170000,0.840000,20.78
229994,0.323056,-0.289872,0.938912,1.960000,-2.380000,0.560000,20.76
230006,0.324520,-0.288408,0.940376,1.470000,-2.520000,0.420000,20.76
230016,0.325008,-0.292312,0.941840,1.330000,-2.590000,0.210000,20.83
230027,0.325984,-0.294264,0.945256,1.540000,-2.730000,-0.210000,20.83
230039,0.326960,-0.291336,0.941840,1.190000,-2.800000,-0.350000,20.80
230050,0.327936,-0.287432,0.943792,0.980000,-2.940000,-0.700000,20.75
230061,0.324032,-0.284992,0.938912,0.910000,-3.080000,-0.910000,20.75
230072,0.325008,-0.283040,0.936472,0.560000,-3.290000,-1.050000,20.81
230083,0.325984,-0.282064,0.942328,0.560000,-3.360000,-0.980000,20.81
230094,0.326960,-0.275720,0.946232,0.420000,-3.430000,-0.770000,20.82
230105,0.323056,-0.273768,0.948184,0.630000,-3.430000,-0.910000,20.79
230116,0.319640,-0.270840,0.940864,0.910000,-3.570000,-1.050000,20.79
230127,0.318664,-0.279624,0.938424,1.470000,-3.640000,-0.980000,20.76
230138,0.315248,-0.266936,0.941352,1.610000,-3.920000,-0.770000,20.76
230149,0.323544,-0.267912,0.937936,1.050000,-4.060000,-0.490000,20.79
230161,0.326472,-0.272304,0.934520,0.630000,-3.920000,-0.490000,20.79
230172,0.331352,-0.273768,0.931592,0.420000,-3.570000,-0.350000,20.79
230183,0.333304,-0.280112,0.928176,0.770000,-3.360000,-0.140000,20.77
230194,0.327936,-0.277672,0.928176,0.840000,-3.430000,-0.280000,20.77
230205,0.331352,-0.282552,0.928664,1.050000,-3.150000,-0.070000,20.77
230216,0.329888,-0.284016,0.930616,1.330000,-3.080000,-0.140000,20.77
230227,0.331840,-0.277672,0.927688,1.190000,-3.010000,-0.350000,20.77
230238,0.336232,-0.274744,0.923784,0.210000,-2.940000,-0.280000,20.81
230249,0.334280,-0.274744,0.925248,-0.280000,-2.590000,-0.280000,20.81
230261,0.332816,-0.276208,0.925736,-0.700000,-2.380000,-0.140000,20.78
230272,0.330376,-0.284504,0.928176,-0.350000,-2.310000,0.000000,20.80
230283,0.332816,-0.279624,0.927688,-0.280000,-2.380000,0.000000,20.80
230295,0.330376,-0.280112,0.929152,-0.140000,-2.380000,-0.070000,20.77
230306,0.330864,-0.279136,0.931592,-0.350000,-2.380000,0.000000,20.77
230317,0.329400,-0.283040,0.937448,-0.770000,-2.590000,-0.070000,20.83
230328,0.328912,-0.287432,0.932080,0.490000,-2.380000,-0.420000,20.78
230339,0.324520,-0.279624,0.930616,1.050000,-2.800000,-0.280000,20.78
230350,0.326472,-0.268888,0.927688,0.280000,-3.080000,-0.280000,20.78
230362,0.324520,-0.272792,0.930128,-0.280000,-3.360000,-0.350000,20.78
230373,0.325496,-0.274256,0.934032,-0.350000,-3.570000,-0.490000,20.82
230384,0.328424,-0.284504,0.933544,-0.070000,-3.710000,-0.490000,20.80
230396,0.331352,-0.290848,0.928176,0.770000,-3.850000,-0.490000,20.80
230407,0.332328,-0.286944,0.932080,1.750000,-3.780000,-0.700000,20.80
230418,0.332816,-0.280112,0.929152,1.890000,-3.780000,-0.560000,20.80
230430,0.336232,-0.286456,0.927200,1.890000,-3.710000,-0.770000,20.79
230441,0.335256,-0.278648,0.918416,1.750000,-3.570000,-0.700000,20.76
230452,0.338672,-0.278648,0.919392,1.190000,-3.500000,-0.630000,20.76
230463,0.335744,-0.272792,0.918904,0.350000,-3.150000,-0.420000,20.79
230474,0.335256,-0.278648,0.922808,-0.210000,-2.870000,-0.140000,20.79
230485,0.332816,-0.287432,0.925736,0.070000,-2.940000,-0.350000,20.82
230497,0.327936,-0.292800,0.929640,0.910000,-2.940000,-0.770000,20.76
230508,0.328424,-0.296216,0.934032,1.680000,-3.150000,-1.190000,20.76
230519,0.325496,-0.284504,0.933056,2.100000,-3.430000,-1.470000,20.81
230530,0.331840,-0.281088,0.931104,1.610000,-3.360000,-1.470000,20.81
230541,0.335256,-0.280600,0.927200,1.120000,-3.430000,-1.610000,20.76
230552,0.335256,-0.278648,0.928176,0.700000,-3.500000,-1.540000,20.79
230563,0.336232,-0.278160,0.926712,0.420000,-3.290000,-1.680000,20.79
230575,0.339648,-0.281088,0.929640,0.280000,-3.150000,-1.680000,20.77
230585,0.336232,-0.276696,0.930616,0.070000,-2.940000,-1.680000,20.77
230597,0.335256,-0.280112,0.935496,0.280000,-2.800000,-1.610000,20.80
230609,0.335256,-0.270840,0.938424,0.350000,-2.940000,-1.540000,20.78
230619,0.331840,-0.276696,0.938912,0.070000,-2.940000,-1.470000,20.78
230630,0.333304,-0.272792,0.944768,0.140000,-3.220000,-1.330000,20.78
230641,0.330864,-0.276696,0.948672,0.280000,-3.430000,-1.260000,20.78
230652,0.335744,-0.273280,0.942816,0.420000,-3.640000,-0.980000,20.81
230664,0.339160,-0.266936,0.939888,0.210000,-3.500000,-0.770000,20.80
230675,0.334280,-0.266448,0.935984,-0.070000,-3.430000,-0.140000,20.80
230686,0.333792,-0.270352,0.933056,-0.140000,-3.430000,0.210000,20.80
230697,0.332816,-0.267912,0.930616,-0.140000,-3.290000,0.700000,20.80
230708,0.333304,-0.278648,0.929640,0.070000,-3.080000,0.980000,20.82
230719,0.331840,-0.277672,0.925248,0.490000,-2.800000,1.050000,20.77
230731,0.331352,-0.274256,0.918416,0.420000,-2.590000,1.050000,20.77
230742,0.333304,-0.273280,0.914512,0.350000,-2.240000,0.980000,20.81
230752,0.332328,-0.272792,0.919392,0.000000,-2.100000,0.980000,20.81
230764,0.333304,-0.284992,0.915976,0.000000,-1.890000,1.120000,20.76
230775,0.329888,-0.287432,0.914024,0.420000,-1.680000,1.120000,20.76
230786,0.331352,-0.284992,0.912072,1.120000,-1.400000,1.050000,20.81
230797,0.331352,-0.280600,0.916464,1.190000,-1.190000,0.910000,20.80
230808,0.333792,-0.269864,0.917440,0.490000,-0.980000,1.190000,20.80
230819,0.332328,-0.276208,0.914024,0.000000,-0.700000,1.190000,20.86
230830,0.335256,-0.283040,0.913048,-0.140000,-0.420000,1.330000,20.86
230841,0.334280,-0.292312,0.922320,0.210000,-0.280000,1.260000,20.81
230852,0.328912,-0.292800,0.929640,0.980000,-0.490000,0.980000,20.82
230863,0.328424,-0.284504,0.928176,1.750000,-0.700000,0.630000,20.82
230874,0.327448,-0.282064,0.927688,1.120000,-0.910000,0.420000,20.80
230885,0.326960,-0.282552,0.929640,0.770000,-1.120000,0.420000,20.80
230896,0.330376,-0.285480,0.939400,0.350000,-1.470000,0.350000,20.77
230907,0.331840,-0.287920,0.939888,0.420000,-1.750000,0.210000,20.80
230918,0.331352,-0.291336,0.936960,0.980000,-1.890000,0.070000,20.80
230929,0.331352,-0.288408,0.937936,1.330000,-2.310000,0.070000,20.81
230940,0.328912,-0.280600,0.937936,0.910000,-2.590000,0.280000,20.81
230951,0.332816,-0.288896,0.933544,0.770000,-2.590000,0.210000,20.79
230962,0.330376,-0.291336,0.932080,1.190000,-3.010000,0.140000,20.82
230973,0.334768,-0.291824,0.930616,1.470000,-3.080000,-0.280000,20.82
230984,0.331840,-0.280600,0.928664,1.330000,-3.150000,-0.560000,20.79
230995,0.334768,-0.279624,0.928664,0.770000,-3.150000,-0.700000,20.79
231006,0.334768,-0.278160,0.929640,0.280000,-3.080000,-0.630000,20.81
231017,0.333304,-0.280112,0.929152,0.490000,-3.080000,-0.560000,20.81
231028,0.333792,-0.282552,0.932080,0.910000,-3.010000,-0.350000,20.86
231039,0.334768,-0.280600,0.931104,1.750000,-2.940000,-0.280000,20.75
231050,0.331352,-0.272792,0.930616,1.960000,-2.730000,-0.280000,20.75
231061,0.327448,-0.264496,0.930616,1.400000,-2.870000,0.000000,20.80
231072,0.329888,-0.269376,0.929640,0.560000,-2.940000,0.140000,20.80
231083,0.333792,-0.276208,0.928664,0.770000,-2.940000,0.560000,20.84
231094,0.332816,-0.280600,0.927200,1.400000,-2.730000,0.630000,20.79
231105,0.332816,-0.280112,0.933056,1.890000,-2.520000,0.910000,20.79
231116,0.335744,-0.270840,0.936472,1.680000,-2.520000,1.120000,20.81
231127,0.331352,-0.271328,0.935496,0.980000,-2.520000,1.260000,20.81
231138,0.329888,-0.284992,0.928664,0.840000,-2.660000,1.050000,20.83
231149,0.327936,-0.293776,0.922808,1.260000,-2.380000,0.840000,20.78
231160,0.327936,-0.286944,0.925736,1.820000,-2.380000,0.840000,20.78
231171,0.330864,-0.286944,0.926712,1.890000,-2.380000,0.840000,20.82
231181,0.328912,-0.287920,0.927688,2.030000,-2.310000,0.840000,20.82
231192,0.327936,-0.285968,0.926712,1.820000,-2.380000,0.700000,20.80
231203,0.331352,-0.287920,0.929152,1.470000,-2.380000,0.490000,20.80
231214,0.331352,-0.288896,0.928664,1.190000,-2.380000,0.350000,20.82
231225,0.331840,-0.292312,0.926712,1.400000,-2.310000,0.070000,20.80
231236,0.329888,-0.294752,0.926224,1.610000,-2.240000,-0.280000,20.80
231247,0.331352,-0.291336,0.924272,1.820000,-2.310000,-0.560000,20.78
231258,0.333304,-0.288896,0.929640,1.260000,-2.240000,-0.630000,20.78
231269,0.331840,-0.287920,0.932568,1.050000,-2.310000,-0.630000,20.81
231280,0.332328,-0.290360,0.930616,0.770000,-2.380000,-0.770000,20.82
231291,0.329400,-0.290360,0.934520,0.910000,-2.450000,-0.700000,20.82
231303,0.331352,-0.284504,0.936472,1.190000,-2.590000,-0.770000,20.82
231314,0.332816,-0.280600,0.937936,1.260000,-2.730000,-0.630000,20.82
231325,0.332328,-0.279624,0.935984,1.260000,-2.800000,-0.490000,20.79
231336,0.333792,-0.279624,0.929152,1.190000,-2.800000,-0.560000,20.79
231347,0.335256,-0.279624,0.929152,1.120000,-2.730000,-0.630000,20.79
231358,0.333304,-0.278160,0.934032,0.840000,-2.870000,-0.560000,20.78
231369,0.337696,-0.278160,0.935008,0.630000,-3.010000,-0.420000,20.78
231380,0.333304,-0.276208,0.932080,0.560000,-2.940000,-0.350000,20.79
231391,0.335744,-0.275720,0.928664,0.700000,-3.080000,-0.350000,20.77
231402,0.334280,-0.275720,0.929152,0.770000,-3.080000,-0.210000,20.77
231413,0.331840,-0.270352,0.933056,0.910000,-3.080000,-0.070000,20.79
231424,0.331352,-0.273768,0.932568,0.840000,-3.220000,0.350000,20.79
231435,0.335744,-0.280112,0.931592,1.400000,-3.080000,0.420000,20.78
231446,0.338672,-0.276696,0.927688,1.610000,-3.010000,0.490000,20.78
231457,0.334768,-0.276696,0.929152,1.540000,-2.870000,0.560000,20.84
231468,0.331840,-0.273768,0.928176,0.840000,-2.870000,0.840000,20.82
231479,0.331840,-0.274256,0.928664,0.210000,-2.870000,0.840000,20.82
231490,0.333792,-0.284016,0.926224,0.000000,-2.940000,0.770000,20.82
231501,0.332328,-0.288896,0.927688,0.490000,-2.940000,0.700000,20.82
231512,0.334280,-0.287920,0.928176,0.910000,-2.870000,0.560000,20.80
231522,0.330376,-0.284016,0.930616,1.050000,-2.940000,0.350000,20.77
231533,0.328912,-0.283528,0.928664,1.120000,-3.010000,0.070000,20.77
231544,0.329888,-0.285968,0.927200,0.980000,-3.150000,-0.210000,20.79
231555,0.333304,-0.286456,0.924272,0.840000,-3.220000,-0.350000,20.79
231566,0.332328,-0.287432,0.925736,1.050000,-3.150000,-0.560000,20.82
231577,0.333792,-0.277672,0.926712,0.770000,-3.150000,-0.420000,20.82
231588,0.336232,-0.282064,0.924760,0.070000,-2.870000,-0.210000,20.80
231599,0.335744,-0.279136,0.926224,-0.980000,-2.730000,0.140000,20.79
231610,0.332816,-0.282552,0.926224,-0.420000,-2.660000,0.000000,20.79
231621,0.335744,-0.283528,0.926224,-0.210000,-2.590000,0.070000,20.82
231632,0.336232,-0.285968,0.927200,0.420000,-2.450000,0.070000,20.82
231643,0.339160,-0.285968,0.933544,0.840000,-2.310000,0.210000,20.79
231654,0.333304,-0.281088,0.934520,0.700000,-2.240000,0.280000,20.80
231665,0.330864,-0.282064,0.933056,0.700000,-2.380000,0.210000,20.80
231676,0.329888,-0.282552,0.931104,0.770000,-2.310000,0.140000,20.82
231687,0.326960,-0.282552,0.931592,0.910000,-2.520000,0.070000,20.82
231698,0.327936,-0.279624,0.929640,0.700000,-2.800000,0.210000,20.83
231708,0.332816,-0.285480,0.931592,0.770000,-2.590000,0.140000,20.79
231719,0.331352,-0.285480,0.930128,1.050000,-2.590000,0.140000,20.79
231730,0.331840,-0.276696,0.930616,1.050000,-2.730000,0.280000,20.84
231741,0.330864,-0.276208,0.931592,0.910000,-2.730000,0.420000,20.84
231752,0.332816,-0.276208,0.928664,0.770000,-2.660000,0.560000,20.78
231763,0.334280,-0.276208,0.930616,0.350000,-2.940000,0.560000,20.78
231774,0.333792,-0.283528,0.931592,0.490000,-2.800000,0.630000,20.80
231785,0.338184,-0.284992,0.929152,1.050000,-2.940000,0.490000,20.79
231796,0.337696,-0.277672,0.931592,0.980000,-2.870000,0.490000,20.79
231807,0.334768,-0.274744,0.930128,0.630000,-3.080000,0.700000,20.84
231818,0.336232,-0.284504,0.927688,0.770000,-2.800000,0.630000,20.84
231829,0.333304,-0.284992,0.924272,0.840000,-2.940000,0.770000,20.84
231840,0.331840,-0.284016,0.930616,1.400000,-3.220000,0.560000,20.79
231851,0.333792,-0.283528,0.928664,1.050000,-3.360000,0.420000,20.79
231862,0.335256,-0.283040,0.930128,1.190000,-3.360000,0.280000,20.84
231873,0.336720,-0.283040,0.932080,1.120000,-3.360000,0.420000,20.84
231884,0.336232,-0.281576,0.927200,1.050000,-3.150000,0.280000,20.86
231895,0.334768,-0.277672,0.927200,0.490000,-3.360000,0.350000,20.86
231905,0.335744,-0.286944,0.927200,0.560000,-3.220000,0.210000,20.85
231916,0.329888,-0.288896,0.926712,1.050000,-3.290000,0.280000,20.84
231927,0.332328,-0.283528,0.924760,1.400000,-3.500000,0.140000,20.84
231938,0.332816,-0.283040,0.926224,1.260000,-3.710000,0.140000,20.82
231949,0.337696,-0.287920,0.928176,1.330000,-3.500000,0.210000,20.82
231959,0.338672,-0.285480,0.930616,1.260000,-3.430000,0.280000,20.78
231971,0.338184,-0.290360,0.929152,0.980000,-3.360000,0.140000,20.79
231982,0.333792,-0.290360,0.926712,1.050000,-3.500000,0.000000,20.79
231993,0.330376,-0.295728,0.924760,1.750000,-3.570000,-0.490000,20.82
232004,0.332816,-0.295240,0.919880,2.100000,-3.710000,-0.840000,20.82
232015,0.337696,-0.291336,0.917440,2.310000,-3.570000,-0.770000,20.83
232026,0.340624,-0.284016,0.921832,1.820000,-3.360000,-0.840000,20.86
232036,0.340624,-0.278160,0.921344,1.050000,-3.290000,-0.560000,20.86
232047,0.342576,-0.281088,0.922808,0.490000,-3.150000,-0.490000,20.86
232058,0.338184,-0.284992,0.921832,0.560000,-2.870000,-0.490000,20.86
232069,0.337208,-0.281576,0.919392,0.490000,-2.660000,-0.630000,20.87
232080,0.335256,-0.287432,0.925736,0.700000,-2.520000,-0.420000,20.87
232091,0.338184,-0.283528,0.926712,0.840000,-2.380000,-0.350000,20.85
232102,0.336720,-0.284504,0.925736,0.980000,-2.240000,-0.210000,20.80
232113,0.339648,-0.280112,0.922808,0.910000,-2.170000,-0.140000,20.80
232124,0.338184,-0.275720,0.932568,0.420000,-2.240000,-0.280000,20.82
232135,0.344040,-0.290360,0.928664,0.700000,-1.960000,-0.070000,20.82
232146,0.336232,-0.277184,0.932080,0.280000,-2.100000,0.070000,20.80
232157,0.336232,-0.284992,0.934032,0.350000,-2.030000,0.070000,20.81
232168,0.335256,-0.283528,0.933544,0.840000,-2.170000,-0.070000,20.81
232179,0.333304,-0.283528,0.933056,0.700000,-2.380000,-0.070000,20.87
232190,0.335256,-0.279136,0.933056,0.910000,-2.590000,-0.210000,20.87
232201,0.333792,-0.274744,0.929152,0.700000,-2.450000,-0.070000,20.82
232212,0.335256,-0.282552,0.932568,0.210000,-2.870000,-0.070000,20.87
232223,0.330864,-0.285968,0.933544,0.420000,-2.800000,-0.210000,20.87
232234,0.330376,-0.285968,0.931592,1.050000,-3.080000,-0.420000,20.84
232245,0.330376,-0.288408,0.926224,1.330000,-3.290000,-0.490000,20.84
232256,0.336720,-0.288408,0.927688,1.960000,-3.500000,-0.700000,20.82
232267,0.340136,-0.277672,0.926712,1.750000,-3.290000,-0.560000,20.82
232278,0.340136,-0.276696,0.919880,1.190000,-3.150000,-0.350000,20.82
232289,0.339160,-0.283528,0.916464,0.700000,-2.940000,-0.350000,20.83
232300,0.337696,-0.285968,0.919392,0.700000,-2.870000,-0.420000,20.83
232312,0.337696,-0.287432,0.919392,0.910000,-2.730000,-0.350000,20.84
232323,0.340136,-0.286456,0.918416,1.190000,-2.590000,-0.350000,20.84
232334,0.339648,-0.281088,0.918416,0.770000,-2.450000,-0.280000,20.81
232345,0.338672,-0.287432,0.915976,0.700000,-2.170000,-0.490000,20.79
232356,0.336720,-0.284016,0.916464,0.910000,-1.960000,-0.630000,20.79
232367,0.338184,-0.282552,0.920368,0.980000,-1.750000,-0.560000,20.82
232378,0.337696,-0.284016,0.922808,1.260000,-1.610000,-0.490000,20.82
232389,0.338672,-0.277184,0.921832,1.190000,-1.540000,-0.140000,20.84
232400,0.339648,-0.281576,0.923784,0.980000,-1.400000,0.210000,20.82
232411,0.340624,-0.283528,0.922320,0.980000,-1.260000,0.280000,20.82
232422,0.339160,-0.283040,0.923784,0.980000,-1.120000,0.210000,20.81
232433,0.340624,-0.285968,0.925248,0.910000,-0.840000,0.210000,20.81
232444,0.339160,-0.286456,0.929152,1.050000,-0.980000,0.070000,20.83
232455,0.336232,-0.286944,0.932568,0.910000,-1.120000,0.070000,20.83
232466,0.334280,-0.283040,0.931592,0.630000,-1.400000,-0.210000,20.83
232478,0.336720,-0.282064,0.936472,0.350000,-1.680000,-0.140000,20.82
232488,0.335256,-0.284992,0.942816,0.210000,-1.890000,-0.070000,20.82
232499,0.336232,-0.287920,0.941840,0.630000,-2.170000,-0.210000,20.84
232510,0.334768,-0.279136,0.940376,0.560000,-2.380000,0.000000,20.84
232521,0.334768,-0.285968,0.937448,0.490000,-2.520000,-0.210000,20.81
232532,0.337208,-0.284504,0.937936,0.630000,-2.730000,-0.210000,20.80
232543,0.335744,-0.286456,0.935008,0.840000,-3.080000,-0.210000,20.80
232554,0.338672,-0.290848,0.934520,1.120000,-3.010000,-0.280000,20.83
232565,0.336232,-0.284504,0.931104,1.260000,-3.220000,-0.490000,20.83
232576,0.337696,-0.278160,0.929152,0.980000,-3.290000,-0.350000,20.84
232587,0.337208,-0.282064,0.928664,0.420000,-3.290000,-0.420000,20.84
232598,0.339648,-0.288896,0.925248,0.560000,-3.220000,-0.490000,20.84
232609,0.338184,-0.283528,0.922808,0.560000,-3.150000,-0.560000,20.82
232620,0.335744,-0.286944,0.921344,1.120000,-3.080000,-0.630000,20.82
232631,0.339160,-0.278160,0.924760,1.050000,-3.080000,-0.420000,20.84
232642,0.335256,-0.269864,0.929152,0.630000,-3.080000,-0.280000,20.82
232653,0.333792,-0.274256,0.923296,0.280000,-3.150000,-0.070000,20.82
232664,0.337208,-0.283528,0.920368,0.560000,-3.220000,0.000000,20.86
232675,0.337208,-0.284992,0.926224,1.120000,-3.010000,0.000000,20.86
232686,0.337696,-0.279624,0.926712,1.400000,-3.010000,0.000000,20.86
232697,0.338672,-0.282064,0.925248,1.540000,-2.870000,0.070000,20.86
232708,0.335256,-0.283528,0.922808,1.540000,-2.730000,0.000000,20.82
232719,0.335256,-0.280112,0.923784,1.330000,-2.800000,-0.070000,20.80
232730,0.337208,-0.284016,0.921832,1.050000,-2.800000,0.070000,20.80
232741,0.337696,-0.284504,0.922320,1.120000,-2.660000,-0.140000,20.82
232752,0.335744,-0.285968,0.925248,1.260000,-2.660000,-0.140000,20.82
232763,0.337208,-0.286456,0.925248,1.610000,-2.660000,-0.280000,20.88
232774,0.338672,-0.285968,0.924760,1.610000,-2.520000,-0.350000,20.85
232785,0.338184,-0.286944,0.923296,1.750000,-2.450000,-0.350000,20.85
232796,0.336232,-0.283040,0.924272,1.610000,-2.590000,-0.350000,20.84
232807,0.337696,-0.278160,0.926712,1.190000,-2.730000,-0.350000,20.84
232818,0.339160,-0.282552,0.920368,1.190000,-2.520000,-0.490000,20.81
232829,0.338184,-0.283528,0.916952,1.470000,-2.380000,-0.350000,20.82
232840,0.338672,-0.275720,0.922320,1.260000,-2.310000,-0.210000,20.82
232851,0.343064,-0.279624,0.928176,1.050000,-2.310000,0.000000,20.82
232862,0.341600,-0.282552,0.928176,1.330000,-2.030000,0.070000,20.82
232873,0.340624,-0.278160,0.922320,1.540000,-2.100000,0.000000,20.84
232884,0.338672,-0.280600,0.921832,1.190000,-2.030000,0.000000,20.84
232895,0.339648,-0.282064,0.923784,1.330000,-1.890000,-0.070000,20.84
232906,0.338672,-0.279624,0.921832,1.330000,-1.890000,0.000000,20.82
232917,0.340136,-0.283040,0.926712,1.400000,-1.820000,0.280000,20.82
232928,0.340136,-0.281576,0.927688,1.540000,-1.890000,0.210000,20.82
232939,0.337696,-0.280112,0.931104,1.470000,-2.100000,0.140000,20.82
232950,0.338184,-0.279136,0.926224,1.400000,-2.240000,0.140000,20.80
232961,0.340624,-0.284504,0.933544,1.260000,-2.170000,0.070000,20.82
232972,0.339648,-0.275720,0.936960,0.630000,-2.310000,0.280000,20.82
232982,0.341600,-0.292312,0.935496,0.980000,-2.380000,-17.920000,20.77
232993,0.335744,-0.288896,0.929152,1.120000,-2.590000,-0.070000,20.77
233004,0.337208,-0.294264,0.927200,1.890000,-2.380000,-0.420000,20.83
233015,0.330376,-0.276696,0.932080,2.240000,-2.940000,-0.560000,20.84
233026,0.336232,-0.273768,0.935496,1.330000,-3.080000,-0.280000,20.84
233037,0.334280,-0.271816,0.935496,0.840000,-3.430000,-0.420000,20.84
233048,0.337696,-0.281576,0.937448,0.630000,-3.430000,-0.280000,20.84
233059,0.333792,-0.286456,0.931592,1.190000,-3.360000,-0.280000,20.84
233070,0.335744,-0.281088,0.929640,1.750000,-3.430000,-0.210000,20.84
233081,0.331352,-0.283528,0.927688,2.030000,-3.430000,-0.420000,20.84
233092,0.333304,-0.278648,0.926712,2.100000,-3.570000,-0.350000,20.82
233103,0.337696,-0.274256,0.928176,1.470000,-3.430000,-0.210000,20.82
233114,0.339648,-0.280600,0.927200,1.260000,-3.080000,-0.210000,20.83
233125,0.341600,-0.278160,0.924760,1.260000,-2.940000,0.000000,20.83
233136,0.340624,-0.279624,0.922808,1.190000,-2.940000,0.000000,20.82
233147,0.337696,-0.277184,0.920368,0.910000,-2.800000,0.070000,20.83
233158,0.338184,-0.282552,0.924272,0.700000,-2.730000,0.210000,20.83
233169,0.338184,-0.284504,0.925736,0.840000,-2.660000,0.140000,20.82
233180,0.338184,-0.288896,0.925736,1.260000,-2.660000,0.000000,20.82
233191,0.336720,-0.286944,0.926712,1.680000,-2.520000,-0.280000,20.84
233202,0.338672,-0.284016,0.924272,1.540000,-2.520000,-0.280000,20.81
233213,0.339648,-0.281088,0.929152,1.050000,-2.380000,-0.280000,20.81
233224,0.338184,-0.282552,0.924760,0.700000,-2.310000,-0.350000,20.85
233235,0.339648,-0.284992,0.924272,0.630000,-2.170000,-0.350000,20.85
233246,0.340136,-0.287920,0.927688,0.770000,-2.310000,-0.280000,20.84
233258,0.338672,-0.280600,0.929640,0.910000,-2.310000,-0.210000,20.77
233268,0.341112,-0.275232,0.931592,0.420000,-2.240000,-0.070000,20.77
233280,0.342088,-0.278648,0.928176,0.140000,-2.030000,-0.070000,20.86
233291,0.338672,-0.283528,0.927200,0.210000,-2.030000,-0.210000,20.86
233302,0.335744,-0.282064,0.925248,0.490000,-2.310000,-0.210000,20.76
233313,0.337208,-0.282064,0.929640,0.910000,-2.520000,-0.350000,20.82
233324,0.338184,-0.281576,0.931592,0.910000,-2.660000,-0.280000,20.82
233335,0.337696,-0.277672,0.933056,1.120000,-2.590000,-0.070000,20.87
233346,0.338672,-0.273280,0.931592,0.770000,-2.730000,0.000000,20.87
233357,0.340136,-0.279136,0.929152,0.630000,-2.800000,-0.070000,20.84
233368,0.336232,-0.282552,0.924760,0.630000,-2.660000,-0.070000,20.84
233379,0.337696,-0.277672,0.922808,0.770000,-2.800000,0.070000,20.82
233390,0.342576,-0.280600,0.918904,0.420000,-2.660000,0.210000,20.84
233401,0.338184,-0.285480,0.916952,0.350000,-2.520000,0.210000,20.84
233412,0.341600,-0.284016,0.921832,0.560000,-2.660000,0.140000,20.82
233423,0.341600,-0.285968,0.921344,0.700000,-2.380000,0.000000,20.82
233434,0.344528,-0.285968,0.923296,0.910000,-2.100000,-0.420000,20.85
233445,0.339160,-0.281576,0.919880,0.770000,-2.240000,-0.420000,20.80
233456,0.342576,-0.278648,0.919880,0.490000,-2.030000,-0.420000,20.80
233467,0.340136,-0.279624,0.920856,0.210000,-2.100000,-0.350000,20.80
233478,0.338184,-0.281576,0.927200,0.350000,-2.030000,-0.420000,20.80
233489,0.340624,-0.277672,0.928176,0.350000,-2.170000,-0.280000,20.83
233500,0.339160,-0.280600,0.932080,0.560000,-2.240000,-0.350000,20.79
233511,0.337208,-0.277672,0.934520,0.700000,-2.450000,-0.280000,20.79
233522,0.335256,-0.279136,0.929640,0.840000,-2.590000,-0.210000,20.82
233533,0.333304,-0.280600,0.927688,1.050000,-2.660000,-0.350000,20.82
233544,0.338672,-0.278160,0.930128,1.260000,-2.800000,-0.280000,20.85
233555,0.337696,-0.280112,0.930128,1.330000,-3.010000,-0.210000,20.85
233566,0.341112,-0.278160,0.928664,1.260000,-2.940000,-0.280000,20.82
233577,0.342088,-0.278160,0.926712,0.910000,-3.010000,-0.420000,20.82
233588,0.341112,-0.284016,0.929152,0.980000,-2.940000,-0.420000,20.82
233599,0.337696,-0.286456,0.927200,1.260000,-3.010000,-0.350000,20.82
233610,0.339160,-0.284504,0.925248,1.960000,-2.940000,-0.280000,20.82
233621,0.343064,-0.278648,0.922320,1.820000,-2.730000,-0.210000,20.83
233632,0.340624,-0.277184,0.922320,1.470000,-2.730000,0.000000,20.82
233643,0.343552,-0.279136,0.921832,0.700000,-2.520000,0.070000,20.82
233654,0.341112,-0.281576,0.919880,0.420000,-2.240000,0.070000,20.82
233665,0.340136,-0.285968,0.921832,0.560000,-2.170000,0.000000,20.82
233676,0.341112,-0.291824,0.921832,1.190000,-2.100000,0.000000,20.79
233687,0.337208,-0.285968,0.921832,1.610000,-2.030000,-0.140000,20.79
233698,0.337208,-0.278648,0.921832,1.190000,-2.170000,-0.140000,20.79
233709,0.340624,-0.280600,0.921344,0.840000,-1.960000,-0.140000,20.83
233720,0.340136,-0.281576,0.925248,0.560000,-2.030000,-0.210000,20.83
233731,0.339648,-0.283528,0.925248,0.560000,-2.030000,-0.210000,20.84
233742,0.342576,-0.286456,0.924760,1.050000,-2.030000,-0.210000,20.91
233754,0.340624,-0.279136,0.924760,0.980000,-2.030000,-0.070000,20.91
233764,0.341112,-0.277184,0.928664,0.700000,-2.030000,-0.210000,20.85
233775,0.338184,-0.277672,0.929640,0.630000,-2.100000,-0.280000,20.85
233786,0.339160,-0.282552,0.928664,0.630000,-2.170000,-0.210000,20.85
233797,0.339648,-0.283040,0.930616,1.260000,-2.240000,-0.280000,20.85
233808,0.340136,-0.278648,0.928176,1.470000,-2.450000,-0.140000,20.88
233819,0.343064,-0.273768,0.929152,1.470000,-2.310000,0.000000,20.84
233830,0.340624,-0.269376,0.930128,1.120000,-2.310000,0.210000,20.84
233841,0.340136,-0.270840,0.929152,0.910000,-2.380000,0.350000,20.82
233852,0.338184,-0.279624,0.926712,1.190000,-2.590000,0.490000,20.82
233863,0.340136,-0.282064,0.930616,1.540000,-2.590000,0.630000,20.88
233873,0.340624,-0.284992,0.929152,2.100000,-2.730000,0.630000,20.83
233884,0.339648,-0.282064,0.928176,2.170000,-2.800000,0.420000,20.83
233895,0.342088,-0.279624,0.926712,1.820000,-2.870000,0.350000,20.84
233906,0.344040,-0.276696,0.925248,1.120000,-2.800000,0.210000,20.84
233917,0.342576,-0.284504,0.923784,0.840000,-2.730000,0.070000,20.84
233928,0.340136,-0.288896,0.924760,0.910000,-2.800000,0.140000,20.84
233939,0.337696,-0.286944,0.928664,1.260000,-2.870000,0.210000,20.84
233950,0.337208,-0.286456,0.931592,1.400000,-3.010000,0.070000,20.84
233961,0.336720,-0.279624,0.935008,1.400000,-3.150000,0.070000,20.84
233972,0.334280,-0.284016,0.930128,1.330000,-3.150000,-0.350000,20.84
233983,0.333304,-0.282552,0.927688,1.330000,-3.290000,-0.420000,20.84
233995,0.334768,-0.278160,0.928176,1.470000,-3.430000,-0.560000,20.87
234006,0.338184,-0.278648,0.924760,1.330000,-3.080000,-0.420000,20.84
234017,0.342088,-0.278648,0.925736,1.400000,-2.870000,0.070000,20.84
234027,0.339160,-0.278648,0.927200,1.470000,-2.730000,0.000000,20.84
234038,0.340624,-0.278648,0.925248,1.330000,-2.520000,0.210000,20.84
234049,0.339648,-0.279624,0.925736,1.050000,-2.380000,0.280000,20.79
234060,0.341112,-0.285480,0.924272,1.050000,-2.170000,0.210000,20.80
234071,0.339648,-0.280112,0.928664,1.120000,-2.030000,0.140000,20.80
234082,0.338184,-0.281576,0.930128,1.260000,-2.030000,0.140000,20.85
234093,0.339160,-0.280600,0.937448,0.840000,-2.030000,0.210000,20.85
234104,0.338672,-0.279136,0.935984,0.490000,-2.170000,0.280000,20.84
234115,0.337208,-0.282064,0.935008,0.350000,-2.380000,0.210000,20.84
234126,0.337208,-0.286456,0.932080,0.560000,-2.520000,0.070000,20.83
234136,0.338184,-0.285480,0.934032,0.910000,-2.730000,0.210000,20.85
234147,0.337696,-0.286944,0.934032,0.980000,-3.010000,0.140000,20.85
234158,0.342088,-0.289872,0.930128,1.960000,-2.940000,-0.140000,20.83
234169,0.339648,-0.290848,0.921832,2.380000,-3.150000,-0.210000,20.83
234180,0.339160,-0.285480,0.918904,2.310000,-3.220000,-0.490000,20.88
234191,0.344528,-0.278160,0.922808,1.820000,-3.150000,-0.490000,20.78
234202,0.342576,-0.273280,0.923784,0.700000,-3.010000,-0.560000,20.78
234213,0.341112,-0.281088,0.924272,0.210000,-3.010000,-0.630000,20.84
234224,0.338672,-0.282064,0.921344,0.280000,-3.010000,-0.840000,20.84
234235,0.337696,-0.278160,0.918904,0.630000,-3.150000,-0.980000,20.81
234246,0.339648,-0.277672,0.919392,1.120000,-3.150000,-1.050000,20.83
234257,0.343064,-0.273768,0.915976,1.400000,-2.730000,-1.050000,20.83
234268,0.340624,-0.264984,0.919392,1.330000,-2.660000,-0.630000,20.82
234279,0.340136,-0.263032,0.917928,1.260000,-2.450000,-0.560000,20.82
234290,0.341600,-0.269864,0.918904,1.470000,-2.590000,-0.280000,20.84
234302,0.343064,-0.271816,0.918904,1.540000,-2.310000,-0.140000,20.84
234313,0.343552,-0.269864,0.919392,1.890000,-2.100000,0.210000,20.84
234327,0.341112,-0.270352,0.919880,1.610000,-1.750000,0.350000,20.87
234337,0.341112,-0.275720,0.927200,1.400000,-1.680000,0.630000,20.87
234348,0.339648,-0.278160,0.927688,1.470000,-1.540000,0.700000,20.82
234359,0.339160,-0.277672,0.928664,1.400000,-1.680000,0.490000,20.83
234370,0.337696,-0.284016,0.933544,1.120000,-1.610000,0.280000,20.83
234381,0.337208,-0.287432,0.938424,1.120000,-1.540000,0.210000,20.86
234392,0.336720,-0.282064,0.936472,1.260000,-1.680000,0.070000,20.86
234403,0.339160,-0.285480,0.935984,1.050000,-1.890000,0.000000,20.86
234414,0.338184,-0.287432,0.937936,1.330000,-1.820000,-0.070000,20.88
234425,0.336232,-0.281088,0.939888,1.330000,-2.170000,-0.070000,20.88
234436,0.336232,-0.277672,0.939400,1.120000,-2.450000,-0.070000,20.87
234447,0.337696,-0.279624,0.935984,0.980000,-2.450000,-0.420000,20.87
234464,0.338184,-0.285968,0.930128,1.470000,-2.870000,-0.630000,20.84
234475,0.340136,-0.282064,0.927200,1.610000,-3.150000,-0.700000,20.88
234487,0.347456,-0.279136,0.926224,1.470000,-2.870000,-0.560000,20.88
234498,0.348432,-0.275720,0.927688,1.050000,-2.660000,-0.350000,20.85
234509,0.348432,-0.280600,0.927200,0.560000,-2.450000,-0.140000,20.86
234519,0.340624,-0.285968,0.925736,0.980000,-2.380000,-0.350000,20.86
234531,0.338184,-0.283528,0.925248,1.260000,-2.310000,-0.350000,20.83
234542,0.337696,-0.280600,0.928176,1.400000,-2.310000,-0.560000,20.83
234553,0.338184,-0.269864,0.931104,0.770000,-2.380000,-0.350000,20.89
234563,0.343064,-0.273280,0.930616,-0.070000,-2.170000,-0.140000,20.82
234574,0.341600,-0.276696,0.926712,-0.140000,-2.030000,-0.210000,20.82
234585,0.340624,-0.278648,0.926224,0.000000,-2.170000,-0.070000,20.80
234596,0.340136,-0.278160,0.927688,0.350000,-2.100000,-0.070000,20.80
234607,0.337208,-0.276696,0.931104,0.490000,-2.100000,-0.070000,20.86
234618,0.339160,-0.277184,0.928664,0.770000,-2.240000,0.000000,20.86
234629,0.340136,-0.276696,0.927688,0.840000,-2.170000,-0.070000,20.85
234640,0.343064,-0.273280,0.927200,0.630000,-1.960000,0.000000,20.90
234651,0.341112,-0.274744,0.926712,0.420000,-2.030000,0.000000,20.90
234662,0.337208,-0.272304,0.928176,0.000000,-1.960000,0.210000,20.84
234673,0.331840,-0.277184,0.932568,0.070000,-2.100000,0.350000,20.84
234684,0.332816,-0.284016,0.928664,0.560000,-2.310000,0.070000,20.86
234695,0.334768,-0.282064,0.921344,1.190000,-2.520000,-0.140000,20.82
234706,0.340136,-0.281088,0.920856,1.470000,-2.380000,-0.140000,20.82
234717,0.340136,-0.274744,0.920856,1.050000,-2.310000,-0.070000,20.86
234728,0.340136,-0.270840,0.921344,0.630000,-2.240000,0.000000,20.86
234739,0.343552,-0.278648,0.925248,0.560000,-2.100000,0.140000,20.87
234750,0.336232,-0.282064,0.922320,0.700000,-1.960000,-0.210000,20.87
234761,0.332328,-0.283528,0.924272,1.120000,-2.100000,-0.420000,20.86
234772,0.332328,-0.275720,0.925248,1.260000,-2.240000,-0.700000,20.87
234782,0.332816,-0.270840,0.921832,1.260000,-2.450000,-1.050000,20.87
234793,0.339160,-0.272792,0.920856,1.050000,-2.100000,-0.840000,20.86
234804,0.342576,-0.275720,0.921344,1.190000,-1.960000,-0.770000,20.86
234815,0.339160,-0.275720,0.923784,1.890000,-1.820000,-0.490000,20.84
234826,0.337208,-0.276696,0.922808,2.240000,-1.680000,-0.280000,20.82
234837,0.333792,-0.277184,0.923296,2.590000,-1.610000,-0.350000,20.82
234848,0.336720,-0.272792,0.921344,2.100000,-1.610000,-0.350000,20.88
234859,0.337696,-0.270840,0.921344,1.470000,-1.680000,-0.280000,20.88
234870,0.341112,-0.284504,0.920856,1.120000,-1.540000,-0.560000,20.86
234881,0.342088,-0.284992,0.928664,1.540000,-1.330000,-0.560000,20.86
234892,0.342088,-0.280600,0.934520,1.540000,-1.330000,-0.630000,20.86
234903,0.343064,-0.277672,0.933544,1.330000,-1.400000,-0.630000,20.83
234914,0.339160,-0.275232,0.937448,0.770000,-1.470000,-0.490000,20.83
234925,0.339648,-0.272792,0.943304,0.140000,-1.750000,-0.560000,20.84
234936,0.342088,-0.274256,0.937936,-1.120000,-1.540000,-0.070000,20.84
234947,0.339648,-0.285480,0.946720,0.210000,-1.820000,-0.140000,20.87
234958,0.337696,-0.280600,0.947208,0.770000,-2.310000,-0.140000,20.85
234969,0.338672,-0.277184,0.945256,1.120000,-2.310000,-0.070000,20.85
234980,0.341112,-0.270352,0.943304,0.980000,-2.380000,0.000000,20.87
234991,0.342088,-0.272792,0.942328,0.280000,-2.380000,0.350000,20.87
235002,0.336720,-0.275720,0.940864,0.210000,-2.520000,0.560000,20.89
235013,0.340624,-0.275232,0.936960,0.140000,-2.380000,0.910000,20.87
235024,0.339648,-0.276696,0.936472,0.280000,-2.310000,0.910000,20.87
235035,0.339160,-0.275720,0.935984,0.280000,-2.380000,1.190000,20.84
235046,0.343552,-0.279136,0.934520,0.280000,-2.310000,1.190000,20.84
235057,0.339648,-0.280600,0.929640,0.280000,-2.240000,1.120000,20.87
235068,0.339648,-0.287432,0.927200,0.560000,-2.310000,0.980000,20.81
235079,0.340624,-0.284992,0.926224,0.910000,-2.310000,0.980000,20.81
235090,0.340136,-0.279136,0.929640,0.910000,-2.310000,0.910000,20.83
235100,0.338184,-0.272304,0.930616,0.280000,-2.380000,0.770000,20.83
235111,0.335744,-0.276696,0.930616,-0.280000,-2.450000,0.770000,20.89
235123,0.333792,-0.276696,0.923784,-0.070000,-2.660000,0.630000,20.89
235134,0.336720,-0.279624,0.926712,0.350000,-2.730000,0.630000,20.83
235144,0.336720,-0.276208,0.929640,1.050000,-2.730000,0.630000,20.84
235155,0.335256,-0.270840,0.927200,1.190000,-3.010000,0.910000,20.84
235166,0.334768,-0.270352,0.924760,0.630000,-3.150000,1.120000,20.81
235177,0.336232,-0.281576,0.925248,0.630000,-3.010000,1.120000,20.81
235188,0.339160,-0.284504,0.926224,1.120000,-2.870000,1.190000,20.88
235199,0.337696,-0.286456,0.927688,1.120000,-2.800000,1.190000,20.84
235210,0.339648,-0.285480,0.924272,1.050000,-2.660000,1.120000,20.84
235221,0.340136,-0.287920,0.918904,0.840000,-2.590000,0.980000,20.90
235232,0.340624,-0.294752,0.914024,0.700000,-2.380000,0.630000,20.90
235243,0.341112,-0.292312,0.917440,0.630000,-2.240000,0.630000,20.83
235254,0.342088,-0.288408,0.922320,0.140000,-1.890000,0.420000,20.83
235265,0.343064,-0.285968,0.927688,-0.280000,-1.750000,0.280000,20.86
235275,0.338672,-0.290848,0.921832,-0.350000,-1.540000,0.210000,20.81
235286,0.334768,-0.287920,0.925736,-0.350000,-1.610000,0.070000,20.81
235297,0.331840,-0.286944,0.934032,-0.140000,-1.820000,-0.140000,20.88
235308,0.330376,-0.281576,0.938912,-0.280000,-2.100000,-0.140000,20.88
235320,0.333792,-0.285968,0.940376,-0.350000,-2.310000,-0.210000,20.84
235331,0.333792,-0.283040,0.942328,-0.280000,-2.660000,-0.140000,20.87
235342,0.332816,-0.285968,0.939888,-0.350000,-2.800000,-0.140000,20.87
235353,0.334768,-0.283528,0.937448,-0.140000,-3.080000,-0.210000,20.88
235364,0.332816,-0.282552,0.932080,-0.140000,-3.290000,-0.350000,20.88
235375,0.333304,-0.284504,0.928176,0.070000,-3.430000,-0.490000,20.86
235386,0.332328,-0.279136,0.924760,0.210000,-3.640000,-0.560000,20.83
235397,0.339160,-0.275720,0.924272,0.000000,-3.500000,-0.420000,20.83
235408,0.338184,-0.282064,0.924272,0.140000,-3.360000,-0.350000,20.83
235419,0.341112,-0.281576,0.926224,0.000000,-3.360000,-0.140000,20.83
235430,0.336720,-0.280600,0.926712,0.350000,-3.220000,-0.140000,20.86
235441,0.338672,-0.280600,0.927688,0.140000,-3.080000,-0.210000,20.84
235452,0.330864,-0.282552,0.923784,0.210000,-3.220000,-0.280000,20.84
235463,0.334768,-0.284992,0.920368,0.210000,-3.150000,-0.350000,20.90
235474,0.337208,-0.285480,0.923784,0.210000,-2.940000,-0.490000,20.90
235485,0.332816,-0.284992,0.924272,0.350000,-2.940000,-0.490000,20.93
235496,0.335744,-0.284992,0.920368,0.350000,-3.080000,-0.420000,20.93
235507,0.340624,-0.285480,0.919880,0.000000,-2.660000,-0.560000,20.87
235518,0.333792,-0.285480,0.920368,0.000000,-2.590000,-0.630000,20.88
235529,0.336232,-0.285480,0.923296,0.140000,-2.730000,-0.560000,20.88
235540,0.335256,-0.283528,0.922808,0.210000,-2.730000,-0.560000,20.88
235551,0.338672,-0.280112,0.922808,0.140000,-2.660000,-0.210000,20.88
235562,0.337696,-0.282064,0.922808,0.140000,-2.590000,-0.140000,20.88
235573,0.335744,-0.283528,0.921832,0.280000,-2.450000,-0.140000,20.87
235584,0.333304,-0.286456,0.924760,0.700000,-2.590000,-0.420000,20.87
235595,0.331840,-0.287920,0.919880,0.910000,-2.590000,-0.630000,20.88
235606,0.335256,-0.283528,0.922320,0.980000,-2.660000,-0.700000,20.88
235618,0.339648,-0.279624,0.920368,0.700000,-2.590000,-0.490000,20.86
235629,0.338184,-0.284016,0.920856,0.840000,-2.520000,-0.490000,20.83
235640,0.340136,-0.284992,0.919392,1.190000,-2.450000,-0.420000,20.83
235651,0.339160,-0.278648,0.920368,1.260000,-2.240000,-0.280000,20.86
235662,0.338184,-0.278160,0.917928,1.260000,-2.170000,-0.280000,20.86
235673,0.337696,-0.275720,0.918416,0.910000,-2.170000,0.000000,20.84
235683,0.338672,-0.275232,0.924760,0.490000,-1.820000,0.070000,20.80
235694,0.339160,-0.278160,0.923296,0.420000,-1.960000,0.210000,20.80
235705,0.336720,-0.285968,0.929152,0.630000,-1.820000,0.140000,20.89
235716,0.336720,-0.288408,0.931104,1.120000,-1.890000,0.210000,20.89
235727,0.335256,-0.287920,0.934520,1.610000,-2.170000,0.140000,20.86
235738,0.335256,-0.282064,0.935496,1.400000,-2.380000,0.280000,20.86
235749,0.338184,-0.285480,0.931104,0.910000,-2.520000,0.210000,20.85
235760,0.338672,-0.287432,0.931104,1.120000,-2.520000,0.140000,20.81
235771,0.341112,-0.288408,0.930616,1.120000,-2.730000,0.070000,20.81
235782,0.337696,-0.290360,0.927688,1.330000,-2.730000,-0.070000,20.86
235793,0.337696,-0.289384,0.926712,1.330000,-2.730000,-0.140000,20.86
235804,0.338184,-0.286456,0.925248,0.980000,-2.730000,-0.210000,20.91
235815,0.339160,-0.284016,0.923784,0.770000,-2.660000,-0.350000,20.85
235826,0.342088,-0.284992,0.921344,0.560000,-2.660000,-0.280000,20.85
235837,0.345016,-0.284992,0.922808,0.630000,-2.660000,-0.350000,20.86
235848,0.341112,-0.284016,0.928176,0.700000,-2.450000,-0.210000,20.86
235859,0.341112,-0.284016,0.924272,0.770000,-2.380000,-0.070000,20.88
235870,0.339160,-0.285968,0.922808,0.980000,-2.380000,-0.070000,20.79
235881,0.338672,-0.283040,0.923784,1.050000,-2.380000,0.070000,20.79
235892,0.339160,-0.283528,0.926712,0.910000,-2.170000,0.140000,20.88
235903,0.336720,-0.284504,0.930616,0.350000,-2.030000,0.210000,20.88
235914,0.337208,-0.280112,0.935984,0.140000,-2.170000,0.140000,20.88
235925,0.336232,-0.291824,0.935984,0.420000,-2.310000,-0.070000,20.88
235936,0.332328,-0.284016,0.934520,0.490000,-2.450000,-0.280000,20.85
235947,0.333304,-0.285968,0.932080,0.770000,-2.590000,-0.490000,20.87
235958,0.335256,-0.284504,0.933544,0.490000,-2.590000,-0.560000,20.87
235969,0.331840,-0.283040,0.928176,0.630000,-2.800000,-0.560000,20.87
235980,0.334768,-0.287432,0.926224,0.700000,-2.800000,-0.420000,20.87
235991,0.336720,-0.290360,0.925248,0.770000,-2.730000,-0.420000,20.85
236002,0.337696,-0.282552,0.925248,0.910000,-2.590000,-0.140000,20.87
236013,0.338184,-0.285480,0.918904,0.420000,-2.520000,-0.070000,20.87
236024,0.340136,-0.285480,0.924272,0.350000,-2.310000,-0.070000,20.83
236035,0.339160,-0.283040,0.926224,0.070000,-2.240000,-0.210000,20.83
236046,0.337696,-0.288408,0.925736,0.140000,-2.240000,-0.140000,20.87
236058,0.338184,-0.287920,0.924760,0.420000,-2.170000,0.070000,20.87
236068,0.338672,-0.285480,0.921344,0.490000,-2.170000,0.210000,20.87
236079,0.340136,-0.283040,0.918416,0.140000,-2.170000,0.350000,20.87
236090,0.340624,-0.287432,0.919392,0.140000,-1.960000,0.280000,20.87
236101,0.339160,-0.286944,0.917928,-0.070000,-1.960000,0.350000,20.90
236112,0.341600,-0.291336,0.920368,-0.140000,-1.750000,0.210000,20.91
236123,0.342088,-0.296216,0.922320,-0.070000,-1.750000,0.070000,20.91
236134,0.339160,-0.294264,0.921832,-0.140000,-1.680000,-0.280000,20.89
236145,0.338672,-0.296704,0.927200,0.210000,-1.820000,-0.490000,20.89
236156,0.339648,-0.294264,0.924272,0.420000,-2.030000,-0.560000,20.89
236168,0.336720,-0.289872,0.926712,0.560000,-2.240000,-0.770000,20.89
236179,0.340624,-0.284992,0.924760,0.630000,-2.380000,-0.770000,20.86
236189,0.344040,-0.278648,0.927200,0.350000,-2.380000,-0.840000,20.89
236200,0.336720,-0.277184,0.928664,0.140000,-2.450000,-0.490000,20.89
236211,0.341112,-0.275232,0.929152,0.070000,-2.590000,-0.350000,20.87
236222,0.340624,-0.283528,0.930128,0.210000,-2.520000,-0.210000,20.87
236234,0.336720,-0.284504,0.928664,0.910000,-2.590000,-0.070000,20.86
236244,0.335256,-0.283528,0.923296,1.540000,-2.660000,-0.070000,20.85
236256,0.340136,-0.279136,0.925248,2.100000,-2.800000,0.140000,20.85
236267,0.339160,-0.276696,0.927200,1.680000,-2.590000,0.490000,20.89
236278,0.339160,-0.275232,0.927688,1.050000,-2.590000,0.700000,20.89
236289,0.337696,-0.282552,0.926712,0.770000,-2.800000,0.910000,20.86
236300,0.341112,-0.297192,0.926712,1.120000,-2.660000,0.770000,20.88
236311,0.337696,-0.295240,0.929640,1.890000,-2.590000,0.840000,20.88
236322,0.337208,-0.286456,0.930128,1.610000,-2.660000,0.770000,20.88
236333,0.339160,-0.288408,0.924272,1.190000,-2.660000,0.420000,20.88
236344,0.335256,-0.293288,0.923296,0.840000,-2.520000,0.070000,20.84
236355,0.331840,-0.296216,0.922320,0.840000,-2.800000,-0.280000,20.89
236366,0.334280,-0.300120,0.918416,1.330000,-2.800000,-0.700000,20.89
236377,0.333792,-0.293776,0.922320,1.820000,-2.660000,-0.700000,20.84
236388,0.333304,-0.286456,0.927200,1.540000,-2.730000,-0.560000,20.84
236399,0.337208,-0.284504,0.926224,0.770000,-2.520000,-0.490000,20.89
236410,0.333304,-0.285968,0.924760,0.490000,-2.590000,-0.490000,20.89
236421,0.336232,-0.293288,0.920856,0.700000,-2.520000,-0.700000,20.89
236432,0.337696,-0.293776,0.922320,0.980000,-2.380000,-0.700000,20.87
236443,0.337696,-0.289872,0.924760,1.330000,-2.170000,-0.560000,20.87
236454,0.339160,-0.286944,0.924760,1.540000,-1.960000,-0.420000,20.92
236465,0.339160,-0.282064,0.926712,1.260000,-1.890000,-0.280000,20.92
236476,0.337696,-0.280600,0.924760,0.630000,-1.750000,-0.140000,20.84
236487,0.336232,-0.285968,0.928176,0.560000,-1.750000,-0.070000,20.87
236498,0.336232,-0.286944,0.930616,0.700000,-1.820000,-0.140000,20.87
236509,0.336720,-0.287920,0.934520,0.770000,-1.820000,0.000000,20.89
236520,0.337208,-0.294752,0.936472,1.260000,-1.960000,-0.070000,20.89
236531,0.335256,-0.288896,0.934032,1.330000,-2.100000,-0.070000,20.86
236542,0.333792,-0.289384,0.933056,1.120000,-2.380000,-0.420000,20.89
236553,0.334280,-0.287432,0.927688,0.560000,-2.240000,-0.490000,20.89
236564,0.331840,-0.290360,0.931592,0.350000,-2.450000,-0.630000,20.89
236576,0.335744,-0.291336,0.931592,0.350000,-2.590000,-0.630000,20.89
236586,0.335744,-0.294752,0.926712,0.420000,-2.450000,-0.630000,20.83
236597,0.333792,-0.291824,0.925248,0.280000,-2.520000,-0.700000,20.83
236609,0.337696,-0.288896,0.927688,0.070000,-2.520000,-0.630000,20.88
236620,0.338672,-0.285968,0.933056,-0.070000,-2.380000,-0.560000,20.88
236631,0.339648,-0.289384,0.929640,0.070000,-2.590000,-0.560000,20.88
236642,0.339648,-0.292800,0.926224,0.350000,-2.660000,-0.560000,20.89
236653,0.342576,-0.291336,0.924760,0.630000,-2.520000,-0.700000,20.89
236664,0.340136,-0.283040,0.923296,0.560000,-2.590000,-0.420000,20.87
236675,0.343064,-0.284992,0.925248,0.210000,-2.520000,-0.350000,20.89
236686,0.338672,-0.282552,0.926224,0.140000,-2.380000,-0.140000,20.89
236697,0.338184,-0.287920,0.925248,0.280000,-2.520000,-0.280000,20.86
236708,0.336720,-0.288896,0.921344,0.420000,-2.520000,-0.350000,20.86
236719,0.333792,-0.286456,0.924272,0.630000,-2.590000,-0.350000,20.88
236730,0.334768,-0.283040,0.926224,0.700000,-2.660000,-0.350000,20.87
236741,0.337696,-0.282552,0.925736,0.560000,-2.800000,-0.350000,20.87
236752,0.338672,-0.287920,0.922808,0.420000,-2.730000,-0.210000,20.87
236763,0.338184,-0.288408,0.921832,0.700000,-2.590000,-0.070000,20.87
236774,0.339160,-0.287432,0.921832,0.910000,-2.590000,0.070000,20.91
236785,0.342088,-0.287432,0.925248,1.050000,-2.660000,0.070000,20.85
236795,0.337696,-0.288896,0.922808,1.120000,-2.590000,-0.140000,20.85
236806,0.337696,-0.291824,0.923784,1.190000,-2.660000,-0.210000,20.82
236818,0.339648,-0.291336,0.922320,0.910000,-2.590000,-0.280000,20.82
236829,0.341112,-0.293288,0.923296,0.840000,-2.660000,-0.210000,20.87
236840,0.341112,-0.288408,0.922320,0.980000,-2.520000,-0.140000,20.87
236851,0.341112,-0.290848,0.923784,0.630000,-2.450000,0.070000,20.89
236861,0.340624,-0.288408,0.927688,0.630000,-2.240000,0.070000,20.88
236872,0.338672,-0.286456,0.928176,0.210000,-2.310000,0.070000,20.88
236883,0.336720,-0.289872,0.928176,0.560000,-2.380000,-0.070000,20.89
236894,0.338672,-0.290848,0.926224,0.910000,-2.520000,-0.140000,20.89
236905,0.339160,-0.284504,0.926712,0.840000,-2.450000,0.000000,20.85
236916,0.339160,-0.284504,0.927200,0.490000,-2.310000,0.140000,20.86
236927,0.341112,-0.288408,0.927200,0.490000,-2.310000,0.210000,20.86
236938,0.339648,-0.291824,0.925248,0.700000,-2.310000,0.000000,20.89
236949,0.335256,-0.287432,0.925248,0.840000,-2.450000,0.000000,20.89
236960,0.337208,-0.285968,0.926712,0.700000,-2.520000,0.000000,20.87
236971,0.335744,-0.286456,0.926712,0.560000,-2.450000,-0.070000,20.90
236982,0.335256,-0.281088,0.931592,0.280000,-2.520000,0.140000,20.90
236993,0.331840,-0.288408,0.932568,0.350000,-2.450000,0.000000,20.87
237004,0.329888,-0.294264,0.929152,0.630000,-2.800000,-0.140000,20.87
237015,0.334280,-0.292800,0.924760,1.120000,-3.010000,-0.210000,20.87
237026,0.338184,-0.290848,0.925248,0.980000,-2.940000,-0.350000,20.87
237037,0.338184,-0.289872,0.927200,0.560000,-3.010000,-0.490000,20.87
237048,0.342088,-0.287432,0.925736,0.140000,-3.080000,-0.350000,20.82
237059,0.339648,-0.298656,0.921832,0.490000,-3.010000,-0.490000,20.82
237070,0.339160,-0.295728,0.918904,0.980000,-3.080000,-0.630000,20.91
237081,0.337696,-0.293776,0.914512,1.190000,-3.010000,-0.560000,20.91
237092,0.340624,-0.286944,0.916952,0.980000,-2.800000,-0.630000,20.89
237103,0.339160,-0.286456,0.915000,0.770000,-3.010000,-0.910000,20.83
237114,0.341112,-0.288896,0.912560,0.980000,-2.800000,-1.120000,20.83
237125,0.338184,-0.285968,0.910608,1.050000,-2.730000,-0.910000,20.86
237135,0.339648,-0.277672,0.920368,0.840000,-2.590000,-0.700000,20.86
237146,0.339160,-0.279624,0.917440,0.770000,-2.310000,-0.350000,20.86
237157,0.341112,-0.284504,0.915976,1.190000,-1.960000,-0.140000,20.83
237168,0.339648,-0.282552,0.919392,1.540000,-1.820000,0.070000,20.83
237179,0.339160,-0.280112,0.924272,1.540000,-1.750000,0.350000,20.89
237190,0.339160,-0.283040,0.925736,1.120000,-1.750000,0.420000,20.89
237201,0.343552,-0.290360,0.926712,1.050000,-1.470000,0.560000,20.87
237212,0.341112,-0.289872,0.930128,1.330000,-1.540000,0.630000,20.87
237223,0.339160,-0.288896,0.931104,0.980000,-1.540000,0.560000,20.88
237235,0.338184,-0.289384,0.933056,1.050000,-1.890000,0.560000,20.87
237245,0.336232,-0.293288,0.935008,0.980000,-1.960000,0.420000,20.87
237257,0.334768,-0.295240,0.932568,1.120000,-2.380000,0.420000,20.90
237268,0.336232,-0.294264,0.935008,1.260000,-2.520000,0.280000,20.90
237278,0.337696,-0.294752,0.934032,1.400000,-2.590000,0.000000,20.89
237289,0.336720,-0.294752,0.935008,1.260000,-2.660000,-0.070000,20.83
237300,0.333304,-0.295240,0.934520,1.050000,-3.150000,-0.280000,20.83
237311,0.335744,-0.301096,0.933056,1.120000,-3.290000,-0.420000,20.86
237323,0.332816,-0.294264,0.932568,1.260000,-3.500000,-0.770000,20.86
237334,0.334768,-0.291336,0.925248,0.980000,-3.570000,-0.910000,20.87
237345,0.341112,-0.294752,0.918904,0.840000,-3.500000,-1.050000,20.88
237356,0.339648,-0.285968,0.920856,0.770000,-3.290000,-0.980000,20.88
237367,0.340624,-0.290360,0.915976,0.770000,-2.940000,-1.050000,20.91
237378,0.342088,-0.289384,0.916952,0.840000,-2.660000,-0.910000,20.91
237388,0.340624,-0.288896,0.918904,0.980000,-2.310000,-0.700000,20.87
237399,0.340624,-0.283528,0.919880,0.910000,-2.100000,-0.490000,20.87
237411,0.337208,-0.283528,0.924272,0.840000,-1.890000,-0.630000,20.87
237422,0.332328,-0.282064,0.929640,0.630000,-2.100000,-0.630000,20.86
237433,0.333304,-0.284992,0.930616,0.700000,-2.170000,-0.560000,20.86
237444,0.334280,-0.286944,0.933544,0.700000,-2.240000,-0.420000,20.91
237455,0.334280,-0.288896,0.926712,0.980000,-2.310000,-0.210000,20.91
237466,0.336720,-0.289384,0.923784,1.330000,-2.310000,-0.140000,20.87
237477,0.336720,-0.286944,0.927200,1.190000,-2.240000,-0.280000,20.83
237488,0.335744,-0.291336,0.929152,1.050000,-2.310000,-0.490000,20.83
237499,0.334768,-0.297680,0.927200,1.260000,-2.590000,-0.770000,20.89
237510,0.336232,-0.297680,0.921832,1.610000,-2.800000,-0.980000,20.89
237520,0.337208,-0.291824,0.923296,1.470000,-2.800000,-1.120000,20.87
237531,0.339160,-0.289872,0.920368,1.540000,-3.010000,-1.190000,20.86
237543,0.341600,-0.286944,0.917440,1.190000,-2.940000,-1.190000,20.86
237554,0.344528,-0.284016,0.915976,0.910000,-2.660000,-1.260000,20.90
237565,0.344040,-0.284992,0.918904,0.770000,-2.590000,-1.190000,20.90
237576,0.342576,-0.286456,0.919880,0.840000,-2.520000,-1.050000,20.89
237587,0.341112,-0.287920,0.919392,1.330000,-2.450000,-0.980000,20.86
237598,0.343064,-0.285480,0.919880,1.540000,-2.380000,-0.840000,20.86
237609,0.344528,-0.278160,0.919392,1.470000,-2.380000,-0.560000,20.91
237620,0.347456,-0.279624,0.917928,1.260000,-2.170000,-0.070000,20.91
237632,0.346480,-0.277184,0.920368,1.050000,-1.890000,0.280000,20.89
237642,0.345504,-0.281088,0.924272,0.910000,-1.820000,0.420000,20.89
237653,0.344040,-0.288408,0.924760,1.120000,-1.820000,0.420000,20.81
237664,0.342576,-0.287920,0.925248,1.400000,-1.820000,0.560000,20.89
237675,0.340136,-0.286456,0.927688,1.400000,-2.030000,0.560000,20.89
237686,0.339648,-0.286944,0.930128,1.260000,-2.100000,0.560000,20.92
237697,0.339160,-0.287920,0.929640,1.050000,-2.310000,0.490000,20.92
237708,0.341600,-0.291336,0.930128,1.050000,-2.450000,0.560000,20.86
237719,0.343552,-0.289872,0.928664,1.260000,-2.590000,0.420000,20.89
237730,0.338672,-0.284016,0.932568,1.050000,-2.730000,0.490000,20.89
237741,0.339160,-0.284992,0.934520,0.770000,-2.800000,0.490000,20.87
237752,0.335256,-0.289872,0.930128,0.700000,-2.940000,0.490000,20.87
237763,0.335256,-0.294752,0.927200,1.120000,-3.150000,0.210000,20.87
237774,0.343064,-0.293288,0.928664,1.470000,-3.220000,0.140000,20.82
237785,0.345992,-0.291824,0.929152,1.540000,-2.940000,0.000000,20.82
237796,0.336232,-0.284504,0.928664,1.400000,-3.080000,0.000000,20.90
237807,0.337208,-0.285968,0.926224,0.840000,-3.080000,0.000000,20.90
237818,0.336720,-0.292800,0.924760,0.700000,-3.010000,-0.210000,20.87
237829,0.334768,-0.290360,0.925736,0.770000,-2.870000,-0.350000,20.87
237840,0.337696,-0.286456,0.931104,0.630000,-2.800000,-0.210000,20.89
237851,0.334768,-0.290848,0.932568,0.420000,-2.660000,-0.280000,20.90
237862,0.334280,-0.293776,0.929152,0.770000,-2.660000,-0.420000,20.90
237873,0.335256,-0.290848,0.924760,0.980000,-2.800000,-0.560000,20.90
237884,0.334768,-0.288896,0.923296,1.260000,-2.800000,-0.490000,20.90
237895,0.339160,-0.286944,0.922808,0.980000,-2.660000,-0.280000,20.87
237906,0.341600,-0.288408,0.923784,1.050000,-2.380000,-0.210000,20.86
237916,0.344040,-0.284992,0.925736,0.630000,-2.170000,-0.070000,20.86
237928,0.344040,-0.288896,0.924760,0.420000,-1.960000,-0.070000,20.89
237939,0.340624,-0.289384,0.923784,0.280000,-1.890000,-0.210000,20.89
237950,0.338672,-0.292800,0.921832,0.280000,-1.960000,-0.280000,20.92
237960,0.340624,-0.294264,0.924272,0.560000,-2.030000,-0.560000,20.87
237972,0.338184,-0.286944,0.929152,0.490000,-2.170000,-0.560000,20.87
237983,0.337208,-0.287920,0.930616,0.490000,-2.380000,-0.770000,20.93
237994,0.334280,-0.284504,0.932080,0.350000,-2.520000,-0.700000,20.93
238004,0.337208,-0.285480,0.929640,0.560000,-2.800000,-0.700000,20.89
238015,0.334280,-0.282064,0.927688,0.560000,-3.010000,-0.420000,20.89
238026,0.337696,-0.280112,0.926224,0.630000,-3.150000,-0.490000,20.87
238037,0.342088,-0.282064,0.921344,0.840000,-2.940000,-0.560000,20.92
238048,0.341600,-0.284504,0.922320,0.980000,-2.870000,-0.280000,20.92
238059,0.343552,-0.285480,0.919392,1.120000,-2.800000,-0.210000,20.91
238070,0.343552,-0.284992,0.916464,1.120000,-2.870000,-0.140000,20.91
238081,0.343064,-0.284016,0.914512,0.980000,-2.800000,-0.280000,20.90
238092,0.343064,-0.285480,0.914512,0.630000,-2.520000,-0.350000,20.88
238103,0.346480,-0.286944,0.912072,0.700000,-2.310000,-0.350000,20.88
238115,0.345992,-0.287432,0.915000,0.910000,-2.100000,-0.350000,20.89
238126,0.345016,-0.283040,0.919880,0.980000,-2.100000,-0.140000,20.89
238136,0.344528,-0.282552,0.923296,0.980000,-2.100000,0.000000,20.90
238147,0.342088,-0.284992,0.919392,0.840000,-2.240000,0.140000,20.87
238158,0.337208,-0.286944,0.920368,0.910000,-2.310000,0.280000,20.87
238169,0.340624,-0.286456,0.928664,1.120000,-2.380000,0.280000,20.91
238180,0.340136,-0.283528,0.931104,1.190000,-2.450000,0.350000,20.91
238191,0.342088,-0.284992,0.934032,1.190000,-2.520000,0.350000,20.87
238202,0.339160,-0.289384,0.929640,0.840000,-2.520000,0.280000,20.87
238213,0.339648,-0.294752,0.929640,0.980000,-2.660000,0.140000,20.90
238224,0.339160,-0.292800,0.929152,1.330000,-2.800000,-0.140000,20.88
238235,0.337208,-0.287920,0.933056,0.980000,-3.010000,-0.210000,20.88
238246,0.338184,-0.290360,0.930128,1.260000,-3.360000,-0.490000,20.93
238257,0.341600,-0.291336,0.928176,1.190000,-3.360000,-0.560000,20.93
238268,0.344528,-0.289384,0.924272,1.260000,-3.220000,-0.560000,20.91
238279,0.342088,-0.280600,0.928176,1.190000,-3.010000,-0.560000,20.90
238290,0.341112,-0.281088,0.925248,1.190000,-2.870000,-0.490000,20.90
238301,0.340624,-0.284504,0.921344,1.190000,-2.940000,-0.350000,20.89
238312,0.341112,-0.284992,0.918904,1.470000,-2.660000,-0.350000,20.89
238323,0.341112,-0.284016,0.919880,1.260000,-2.590000,-0.140000,20.95
238334,0.341112,-0.287432,0.921832,1.330000,-2.310000,0.000000,20.89
238345,0.339160,-0.282552,0.922808,1.260000,-2.310000,0.070000,20.89
238356,0.339160,-0.289872,0.924272,1.190000,-2.030000,-0.140000,20.93
238367,0.339648,-0.289384,0.919392,1.260000,-1.890000,-0.420000,20.93
238379,0.340624,-0.293288,0.922808,1.540000,-1.680000,-0.560000,20.91
238390,0.338184,-0.286456,0.925736,1.680000,-1.610000,-0.700000,20.86
238401,0.337208,-0.282064,0.922808,1.610000,-1.680000,-0.770000,20.86
238412,0.340136,-0.286944,0.922808,1.680000,-1.750000,-0.630000,20.91
238423,0.341600,-0.282552,0.918416,1.680000,-1.680000,-0.280000,20.91
238434,0.343552,-0.277184,0.920368,0.910000,-1.400000,0.000000,20.86
238445,0.340136,-0.279136,0.919392,0.140000,-1.260000,0.210000,20.86
238456,0.342088,-0.286944,0.925736,0.210000,-1.120000,0.280000,20.90
238467,0.338184,-0.290848,0.929152,0.490000,-1.190000,0.210000,20.91
238477,0.340136,-0.287432,0.930128,1.050000,-1.330000,0.280000,20.91
238488,0.339160,-0.289384,0.930128,1.190000,-1.470000,0.350000,20.89
238499,0.340624,-0.288896,0.927688,1.400000,-1.470000,0.350000,20.89
238510,0.343064,-0.282552,0.923296,1.330000,-1.680000,0.420000,20.88
238521,0.336720,-0.284992,0.921832,0.840000,-1.750000,0.280000,20.91
238532,0.337208,-0.289872,0.915488,0.910000,-1.820000,0.210000,20.91
238543,0.341112,-0.291336,0.919392,1.190000,-1.750000,0.140000,20.86
238554,0.338672,-0.285968,0.921832,1.260000,-1.750000,0.210000,20.86
238565,0.340624,-0.282552,0.921832,0.910000,-1.680000,0.420000,20.87
238576,0.341112,-0.284504,0.919880,0.490000,-1.540000,0.280000,20.83
238587,0.339648,-0.286456,0.916464,0.350000,-1.470000,0.280000,20.83
238598,0.337696,-0.288896,0.919392,0.490000,-1.470000,0.280000,20.90
238609,0.337208,-0.295728,0.922808,0.980000,-1.400000,0.070000,20.90
238620,0.335256,-0.292312,0.927200,1.610000,-1.680000,0.070000,20.90
238630,0.334768,-0.288408,0.928176,1.680000,-1.750000,0.070000,20.90
238641,0.338184,-0.283040,0.928664,1.120000,-1.750000,0.000000,20.86
238652,0.339648,-0.283528,0.930616,0.700000,-1.890000,-0.070000,20.93
238663,0.337696,-0.284992,0.933056,0.560000,-1.820000,0.070000,20.93
238674,0.335744,-0.292312,0.933544,0.770000,-1.890000,-0.070000,20.88
238685,0.340136,-0.293776,0.933544,1.260000,-2.030000,-0.140000,20.88
238696,0.335744,-0.286944,0.937448,1.330000,-2.170000,-0.140000,20.90
238707,0.336720,-0.289384,0.938912,0.980000,-2.450000,0.000000,20.89
238718,0.336232,-0.286944,0.937448,1.050000,-2.520000,-0.070000,20.89
238729,0.336720,-0.286944,0.938912,0.770000,-2.940000,0.000000,20.88
238740,0.334768,-0.287920,0.938424,0.700000,-3.080000,-0.070000,20.88
238751,0.336232,-0.291824,0.935984,0.840000,-3.290000,-0.140000,20.89
238762,0.337696,-0.289384,0.935496,1.120000,-3.430000,-0.210000,20.90
238773,0.338672,-0.286456,0.933544,1.120000,-3.290000,-0.280000,20.90
238784,0.337696,-0.282552,0.928664,0.910000,-3.430000,-0.420000,20.89
238795,0.338184,-0.284016,0.924760,0.490000,-3.360000,-0.420000,20.89
238806,0.336720,-0.289384,0.923784,0.980000,-3.290000,-0.420000,20.89
238817,0.333304,-0.289384,0.915488,1.540000,-3.430000,-0.560000,20.89
238828,0.335256,-0.287920,0.917440,1.960000,-3.290000,-0.700000,20.92
238839,0.336232,-0.275720,0.916464,1.540000,-3.080000,-0.420000,20.83
238850,0.339648,-0.278648,0.914512,1.120000,-2.730000,-0.350000,20.83
238861,0.340624,-0.274256,0.912560,0.630000,-2.590000,-0.070000,20.88
238873,0.340624,-0.289872,0.911096,0.280000,-2.100000,-0.070000,20.88
238884,0.338672,-0.292312,0.913536,1.260000,-1.890000,-0.210000,20.87
238895,0.339648,-0.280600,0.917440,1.470000,-1.890000,0.210000,20.85
238906,0.341112,-0.276208,0.925248,1.120000,-1.820000,0.560000,20.85
238917,0.337696,-0.278648,0.921344,0.840000,-1.750000,0.630000,20.89
238927,0.338672,-0.284992,0.924760,0.700000,-1.750000,0.700000,20.89
238938,0.334280,-0.287432,0.929640,0.700000,-1.820000,0.770000,20.90
238949,0.335256,-0.287920,0.929152,0.840000,-1.820000,0.770000,20.87
238960,0.336720,-0.291824,0.926224,1.050000,-2.030000,0.490000,20.87
238971,0.333304,-0.295728,0.929152,1.260000,-2.170000,0.140000,20.89
238982,0.337696,-0.293288,0.934520,1.330000,-2.380000,0.070000,20.89
238993,0.337208,-0.290848,0.941352,1.120000,-2.520000,-0.070000,20.91
239004,0.337208,-0.290848,0.932568,1.120000,-2.800000,-0.350000,20.91
239015,0.334768,-0.288896,0.930128,0.630000,-2.940000,-0.350000,20.88
239026,0.336720,-0.295240,0.928664,0.630000,-3.010000,-0.420000,20.91
239037,0.339648,-0.292800,0.928176,0.980000,-3.010000,-0.490000,20.91
239049,0.338672,-0.287920,0.932080,1.050000,-3.080000,-0.560000,20.90
239060,0.340624,-0.287920,0.933544,1.050000,-3.010000,-0.700000,20.90
239071,0.339648,-0.286456,0.931104,0.910000,-3.080000,-0.770000,20.89
239082,0.339160,-0.282552,0.925248,0.770000,-3.150000,-0.770000,20.89
239093,0.339648,-0.285480,0.920856,0.490000,-3.150000,-0.700000,20.89
239104,0.338672,-0.283528,0.927688,0.490000,-3.220000,-0.490000,20.86
239115,0.339648,-0.283528,0.925736,0.700000,-3.150000,-0.560000,20.86
239126,0.338184,-0.281576,0.920856,0.840000,-3.080000,-0.420000,20.89
239137,0.338184,-0.285968,0.920368,1.190000,-2.940000,-0.420000,20.89
239148,0.338184,-0.279624,0.920368,1.470000,-3.080000,-0.350000,20.89
239159,0.340136,-0.275232,0.919880,1.050000,-2.940000,-0.070000,20.88
239170,0.341112,-0.280600,0.925248,0.980000,-2.870000,-0.070000,20.88
239181,0.344040,-0.281576,0.922808,0.840000,-2.940000,0.070000,20.92
239192,0.341600,-0.288408,0.918904,1.120000,-2.940000,-0.210000,20.86
239203,0.341112,-0.284016,0.920368,1.470000,-2.870000,-0.140000,20.86
239214,0.336232,-0.284992,0.921832,1.540000,-3.010000,0.000000,20.91
239225,0.333304,-0.280600,0.928664,1.470000,-3.080000,0.000000,20.91
239236,0.332328,-0.284504,0.934032,1.470000,-3.150000,0.000000,20.87
239247,0.329400,-0.285480,0.931592,1.260000,-3.220000,-0.350000,20.87
239258,0.327448,-0.292800,0.928664,1.540000,-3.500000,-0.770000,20.89
239269,0.332328,-0.288896,0.928176,1.680000,-3.570000,-0.910000,20.89
239280,0.331352,-0.293288,0.925248,2.030000,-3.570000,-1.050000,20.89
239291,0.334280,-0.291824,0.921344,2.240000,-3.430000,-1.050000,20.92
239303,0.334280,-0.293288,0.919880,2.310000,-3.290000,-1.120000,20.92
239314,0.335744,-0.285968,0.920856,1.680000,-3.220000,-0.980000,20.88
239325,0.334768,-0.286944,0.922320,1.120000,-2.940000,-1.050000,20.91
239336,0.335256,-0.289384,0.920856,0.770000,-2.730000,-1.120000,20.91
239347,0.334280,-0.288896,0.927200,0.770000,-2.730000,-1.330000,20.92
239358,0.338184,-0.292312,0.924272,1.050000,-2.520000,-1.330000,20.92
239369,0.339648,-0.291336,0.923296,1.610000,-2.100000,-1.330000,20.90
239380,0.342576,-0.287920,0.925736,1.750000,-2.100000,-1.050000,20.90
239391,0.343064,-0.280112,0.928664,1.400000,-1.960000,-0.910000,20.90
239402,0.341112,-0.282552,0.925736,0.770000,-1.750000,-0.770000,20.89
239413,0.347456,-0.289872,0.926224,0.630000,-1.330000,-0.280000,20.89
239424,0.344528,-0.286944,0.923784,0.910000,-1.680000,-1.190000,20.92
239435,0.345504,-0.280600,0.925248,0.840000,-1.750000,-0.840000,20.89
239446,0.345504,-0.277184,0.929152,0.980000,-1.540000,-0.840000,20.89
239457,0.347456,-0.274256,0.924760,0.980000,-1.330000,-0.770000,20.93
239468,0.349896,-0.267424,0.926224,0.420000,-1.330000,0.140000,20.93
239478,0.349896,-0.267912,0.925736,0.280000,-0.980000,0.700000,20.88
239489,0.347944,-0.269864,0.927200,0.210000,-1.050000,1.050000,20.88
239500,0.345992,-0.274256,0.927688,0.630000,-1.050000,1.470000,20.90
239511,0.350384,-0.277184,0.929640,0.700000,-1.120000,1.610000,20.87
239522,0.347944,-0.281576,0.931104,0.700000,-0.840000,1.960000,20.87
239533,0.345504,-0.281576,0.936472,0.700000,-1.400000,1.750000,20.91
239544,0.345016,-0.284504,0.938912,0.560000,-1.680000,1.890000,20.91
239555,0.340136,-0.291336,0.939888,0.560000,-2.030000,1.610000,20.88
239566,0.340136,-0.294264,0.938424,0.490000,-2.450000,1.330000,20.88
239577,0.338184,-0.294752,0.938912,0.560000,-3.010000,1.050000,20.88
239587,0.340624,-0.294264,0.935496,0.490000,-3.080000,0.840000,20.89
239598,0.338672,-0.285968,0.933544,0.210000,-3.360000,0.560000,20.89
239609,0.340624,-0.289384,0.927200,-0.210000,-3.570000,0.490000,20.93
239620,0.341112,-0.295240,0.926712,0.350000,-3.710000,0.210000,20.93
239631,0.339160,-0.290360,0.923296,0.770000,-3.850000,0.210000,20.84
239642,0.338672,-0.287920,0.924760,1.120000,-3.850000,0.210000,20.88
239653,0.339648,-0.282064,0.920856,1.260000,-4.060000,0.140000,20.88
239664,0.344528,-0.283040,0.918904,1.050000,-3.780000,0.350000,20.92
239675,0.344528,-0.279136,0.919392,0.770000,-3.780000,0.490000,20.92
239686,0.347456,-0.282552,0.919392,0.210000,-3.640000,0.700000,20.93
239697,0.345504,-0.289384,0.923784,0.350000,-3.430000,0.560000,20.89
239708,0.345992,-0.290848,0.920368,0.490000,-3.360000,0.350000,20.89
239719,0.341600,-0.294264,0.923296,0.700000,-3.290000,0.210000,20.91
239730,0.337696,-0.286456,0.923784,0.700000,-3.290000,0.140000,20.91
239741,0.337696,-0.286944,0.926712,0.490000,-3.500000,0.000000,20.93
239752,0.339648,-0.290848,0.925736,0.700000,-3.570000,-0.140000,20.86
239763,0.340136,-0.293288,0.924272,1.260000,-3.570000,-0.280000,20.86
239774,0.339160,-0.286456,0.921344,1.470000,-3.500000,-0.210000,20.93
239785,0.344528,-0.284992,0.920856,1.190000,-3.220000,0.070000,20.93
239796,0.339160,-0.284504,0.917928,0.910000,-3.150000,0.000000,20.94
239807,0.338184,-0.286456,0.920368,0.700000,-3.150000,0.000000,20.91
239818,0.342088,-0.288896,0.919392,0.770000,-3.080000,-0.070000,20.91
239829,0.342088,-0.293776,0.917440,1.050000,-2.870000,-0.140000,20.90
239840,0.343064,-0.289384,0.919392,1.120000,-2.730000,-0.210000,20.90
239851,0.344528,-0.284016,0.922320,0.980000,-2.800000,-0.140000,20.92
239862,0.342576,-0.284992,0.919880,0.700000,-2.730000,-0.140000,20.92
239873,0.345992,-0.288896,0.918416,0.490000,-2.660000,-0.350000,20.94
239884,0.339160,-0.287432,0.919880,0.630000,-2.590000,-0.420000,20.89
239895,0.336720,-0.286456,0.923296,0.980000,-2.660000,-0.560000,20.89
239906,0.336720,-0.284504,0.923784,1.610000,-2.800000,-0.700000,20.93
239917,0.340136,-0.277672,0.922808,1.610000,-2.730000,-0.560000,20.93
239928,0.342576,-0.278160,0.920856,1.330000,-2.660000,-0.560000,20.90
239939,0.341600,-0.273280,0.920856,0.910000,-2.800000,-0.350000,20.90
239950,0.344040,-0.288896,0.922320,1.330000,-2.730000,0.000000,20.90
239961,0.339648,-0.273280,0.918416,0.840000,-2.660000,-0.140000,20.92
239972,0.339648,-0.291824,0.925736,1.540000,-2.730000,-0.280000,20.92
239983,0.338184,-0.284504,0.929640,1.750000,-3.150000,-0.490000,20.89
239994,0.344528,-0.286456,0.928176,2.030000,-2.870000,-0.210000,20.88
240005,0.344528,-0.287920,0.925248,2.520000,-3.080000,-0.350000,20.88
240016,0.348920,-0.280112,0.920856,2.520000,-3.150000,-0.280000,20.93
240027,0.350872,-0.276208,0.925736,1.610000,-3.220000,-0.280000,20.93
240038,0.346480,-0.276696,0.923784,0.560000,-3.080000,-0.210000,20.91
240049,0.345992,-0.284992,0.925736,0.560000,-3.220000,-0.070000,20.91
240060,0.344528,-0.288896,0.927688,0.700000,-3.290000,0.000000,20.91
240071,0.343552,-0.292312,0.929152,1.470000,-3.220000,0.140000,20.88
240082,0.343552,-0.287432,0.926712,1.890000,-3.220000,0.070000,20.88
240093,0.343064,-0.281576,0.923296,1.680000,-3.150000,0.000000,20.89
240104,0.346968,-0.286456,0.922320,1.540000,-3.150000,-0.140000,20.89
240115,0.342576,-0.286944,0.922320,1.260000,-3.080000,0.000000,20.89
240126,0.342576,-0.288408,0.924272,1.120000,-3.150000,-0.070000,20.86
240138,0.343064,-0.290848,0.924760,1.330000,-2.940000,-0.350000,20.86
240149,0.340624,-0.285480,0.922320,1.260000,-2.800000,-0.350000,20.94
240160,0.341600,-0.284992,0.922808,1.050000,-2.730000,-0.280000,20.94
240171,0.340624,-0.289872,0.918416,0.980000,-2.520000,-0.280000,20.93
240182,0.343064,-0.292312,0.915976,0.910000,-2.380000,-0.350000,20.91
240193,0.345016,-0.294264,0.923296,1.330000,-2.100000,-0.490000,20.91
240204,0.343064,-0.289384,0.928176,1.470000,-1.890000,-0.770000,20.91
240215,0.344040,-0.280112,0.929640,1.120000,-2.030000,-0.840000,20.91
240226,0.344528,-0.282552,0.927688,0.490000,-2.170000,-0.700000,20.91
240237,0.344528,-0.285968,0.929640,-0.070000,-2.030000,-0.770000,20.91
240248,0.344528,-0.288896,0.929640,0.140000,-2.030000,-0.630000,20.91
240259,0.343552,-0.287432,0.931592,0.490000,-2.030000,-0.630000,20.89
240270,0.343064,-0.283528,0.935008,0.770000,-2.310000,-0.700000,20.89
240281,0.341112,-0.280112,0.935984,0.630000,-2.310000,-0.490000,20.91
240292,0.340624,-0.282552,0.935984,0.210000,-2.660000,-0.560000,20.91
240303,0.345992,-0.284504,0.937448,0.000000,-2.870000,-0.420000,20.87
240314,0.346480,-0.289872,0.928176,0.350000,-2.870000,-0.980000,20.92
240325,0.347456,-0.287432,0.930616,0.840000,-3.010000,-0.560000,20.92
240336,0.342576,-0.281576,0.924760,0.840000,-3.500000,-1.050000,20.92
240348,0.343064,-0.279136,0.921344,0.420000,-3.080000,-0.980000,20.92
240359,0.343552,-0.278648,0.915000,0.140000,-3.150000,-0.770000,20.91
240370,0.342576,-0.281576,0.915976,0.350000,-3.220000,-1.120000,20.87
240381,0.348432,-0.282064,0.915976,0.700000,-2.940000,-0.910000,20.87
240392,0.350384,-0.274744,0.912072,0.910000,-2.660000,-0.700000,20.87
240403,0.349408,-0.276208,0.912560,0.630000,-2.520000,-0.210000,20.87
240414,0.347456,-0.279624,0.914024,0.420000,-2.030000,-0.070000,20.88
240425,0.344528,-0.278648,0.911584,0.560000,-1.890000,-0.140000,20.91
240436,0.343064,-0.282552,0.916952,0.840000,-1.890000,-0.070000,20.91
240446,0.343552,-0.284016,0.914512,0.840000,-1.820000,0.000000,20.90
240457,0.347456,-0.287432,0.916464,0.980000,-1.680000,0.070000,20.90
240468,0.345016,-0.281576,0.917440,0.840000,-1.680000,0.140000,20.91
240479,0.348432,-0.283040,0.922320,0.490000,-1.540000,0.140000,20.92
240490,0.346480,-0.288896,0.922808,0.350000,-1.540000,0.070000,20.92
240502,0.344528,-0.293288,0.922320,0.700000,-1.540000,-0.070000,20.93
240513,0.341112,-0.295240,0.919392,1.260000,-1.890000,-0.140000,20.93
240524,0.344040,-0.293776,0.922808,1.680000,-1.750000,-0.770000,20.91
240535,0.348920,-0.284016,0.925248,1.330000,-2.030000,-0.490000,20.91
240546,0.348920,-0.280112,0.919392,0.980000,-1.960000,-0.560000,20.89
240557,0.349408,-0.285480,0.919392,0.700000,-1.820000,-0.490000,20.96
240568,0.350384,-0.284016,0.924760,0.630000,-1.890000,-0.420000,20.96
240579,0.347456,-0.286456,0.927688,0.980000,-1.890000,-0.350000,20.92
240590,0.345504,-0.283040,0.923784,1.330000,-2.170000,-0.490000,20.92
240601,0.345992,-0.283040,0.925736,1.260000,-2.100000,-0.420000,20.89
240612,0.347944,-0.283040,0.925736,1.190000,-2.100000,-0.140000,20.91
240623,0.350872,-0.277672,0.928176,0.630000,-2.170000,0.000000,20.91
240634,0.349408,-0.279624,0.933056,0.560000,-2.170000,0.280000,20.88
240645,0.346968,-0.276696,0.930616,0.350000,-2.240000,0.420000,20.88
240656,0.345504,-0.291824,0.927200,1.190000,-2.240000,0.280000,20.88
240667,0.347944,-0.283040,0.924272,1.540000,-2.310000,0.560000,20.92
240678,0.347456,-0.284504,0.929152,1.610000,-2.310000,0.630000,20.92
240689,0.346480,-0.281576,0.927688,1.120000,-2.380000,0.560000,20.90
240700,0.347944,-0.284016,0.930128,0.560000,-2.170000,0.700000,20.90
240711,0.345504,-0.287920,0.936472,0.350000,-2.380000,0.560000,20.94
240722,0.343064,-0.295240,0.934520,0.560000,-2.590000,0.210000,20.91
240733,0.342088,-0.296704,0.932080,0.910000,-2.800000,0.000000,20.91
240743,0.341600,-0.293776,0.929152,1.190000,-3.150000,-0.210000,20.94
240755,0.343064,-0.284992,0.924760,1.190000,-3.360000,-0.210000,20.94
240766,0.347456,-0.285480,0.923784,0.700000,-3.220000,-0.210000,20.92
240777,0.345504,-0.277184,0.922320,0.630000,-3.150000,0.000000,20.92
240787,0.344528,-0.276208,0.919880,0.420000,-3.220000,0.140000,20.91
240798,0.345016,-0.283528,0.917928,0.910000,-3.010000,0.210000,20.89
240809,0.342576,-0.282064,0.916464,1.050000,-3.010000,0.420000,20.89
240820,0.340624,-0.279624,0.919392,1.470000,-2.870000,0.350000,20.94
240832,0.340624,-0.278160,0.920368,1.120000,-2.870000,0.350000,20.94
240842,0.342576,-0.283528,0.918416,0.910000,-2.800000,0.350000,20.91
240853,0.341112,-0.286456,0.918416,1.050000,-2.870000,0.140000,20.93
240864,0.339160,-0.288896,0.917928,1.260000,-2.870000,0.140000,20.93
240875,0.341600,-0.291824,0.917928,1.820000,-2.730000,0.070000,20.93
240886,0.340136,-0.283528,0.919392,1.820000,-2.800000,0.140000,20.93
240897,0.343064,-0.285968,0.918416,1.610000,-2.590000,0.280000,20.91
240908,0.345016,-0.290848,0.918416,1.680000,-2.310000,0.210000,20.91
240919,0.342576,-0.285480,0.916464,1.470000,-2.240000,0.070000,20.92
240930,0.342576,-0.287432,0.916952,1.190000,-2.170000,-0.070000,20.90
240941,0.339648,-0.289872,0.921344,0.910000,-2.170000,-0.210000,20.90
240952,0.343552,-0.292312,0.928176,0.980000,-2.170000,-0.210000,20.89
240963,0.342576,-0.291824,0.932080,1.050000,-2.100000,-0.280000,20.89
240974,0.343064,-0.287920,0.930616,1.050000,-2.240000,-0.420000,20.93
240985,0.339160,-0.290360,0.935984,1.050000,-2.380000,-0.420000,20.91
240996,0.339160,-0.292312,0.935008,1.260000,-2.520000,-0.420000,20.91
241007,0.338184,-0.288896,0.935008,1.470000,-2.870000,-0.560000,20.87
241018,0.341600,-0.288408,0.929640,1.400000,-2.870000,-0.700000,20.87
241029,0.342576,-0.285480,0.923296,1.400000,-2.940000,-0.700000,20.93
241040,0.345504,-0.283040,0.923784,1.330000,-2.940000,-0.560000,20.87
241051,0.349896,-0.282552,0.924760,1.050000,-2.940000,-0.420000,20.87
241062,0.346968,-0.284016,0.920368,0.770000,-2.450000,-0.420000,20.93
241073,0.346968,-0.285968,0.915488,1.050000,-2.310000,-0.350000,20.93
241084,0.346968,-0.283528,0.915976,1.120000,-2.310000,-0.280000,20.91
