timestamp_ms,ax,ay,az,gx,gy,gz,tempC
358692,0.717360,-0.051728,0.855952,-31.080000,-42.630001,-48.860001,19.77
358703,0.730536,-0.033672,0.862296,-33.180000,-38.150002,-48.650002,19.77
358714,0.740784,-0.029768,0.821792,-33.459999,-34.439999,-48.580002,19.76
358725,0.730048,-0.047336,0.759816,-27.440001,-28.770000,-49.279999,19.76
358736,0.722240,-0.045872,0.689056,-17.709999,-24.080000,-52.150002,19.77
358748,0.714920,0.072712,0.618784,-18.760000,-22.889999,-51.310001,19.78
358759,0.722240,0.114680,0.586088,-23.660000,-22.049999,-51.799999,19.78
358770,0.728096,0.142008,0.678808,-29.680000,-17.500000,-48.509998,19.81
358781,0.689056,0.296704,0.729560,-38.990002,-13.650000,-43.119999,19.81
358792,0.703208,0.269864,0.731512,-45.639999,-10.920000,-39.060001,19.79
358803,0.707600,0.232776,0.688080,-50.959999,-7.560000,-35.560001,19.74
358814,0.695888,0.216672,0.644648,-54.529999,-3.710000,-32.410000,19.74
358825,0.701256,0.203008,0.607560,-55.930000,1.120000,-29.330000,19.77
358836,0.699304,0.133712,0.569008,-53.060001,7.700000,-28.000000,19.77
358847,0.734928,0.083448,0.553880,-42.630001,26.320000,-22.959999,19.81
358858,0.620248,0.098576,0.535824,-28.840000,13.300000,-28.000000,19.77
358869,0.646112,0.129320,0.549976,-26.180000,25.549999,-31.709999,19.77
358880,0.625616,0.296704,0.593896,-38.639999,35.279999,-28.770000,19.78
358891,0.596336,0.357704,0.743712,-58.310001,37.310001,-30.030001,19.78
358901,0.593896,0.329400,0.672952,-72.519997,40.389999,-26.389999,19.77
358912,0.581696,0.239608,0.697352,-84.279999,43.610001,-23.520000,19.77
358923,0.563152,0.173240,0.696864,-82.949997,48.930000,-23.590000,19.85
358934,0.543144,0.120536,0.697352,-68.879997,53.689999,-24.500000,19.75
358945,0.510448,0.134688,0.722240,-52.570000,55.720001,-24.920000,19.75
358956,0.474824,0.222040,0.739320,-42.910000,54.320000,-21.070000,19.75
358967,0.472384,0.242048,0.765184,-40.669998,51.590000,-17.080000,19.75
358978,0.499224,0.183000,0.808616,-35.980000,53.970001,-15.750000,19.77
358989,0.477264,0.144448,0.856440,-29.120001,53.480000,-16.240000,19.79
359000,0.468968,0.101992,0.885232,-23.030001,52.919998,-16.590000,19.79
359011,0.435784,0.157136,0.894992,-22.889999,49.560001,-14.000000,19.79
359022,0.432856,0.234240,0.897432,-31.150000,46.970001,-12.880000,19.79
359033,0.426512,0.218624,0.911096,-40.529999,45.009998,-12.040000,19.77
359043,0.434808,0.174216,0.940376,-48.790001,45.009998,-11.690000,19.77
359054,0.422120,0.068808,0.979904,-49.349998,43.470001,-14.000000,19.77
359065,0.390888,0.008296,1.002352,-41.509998,39.970001,-15.890000,19.79
359076,0.378200,-0.005856,0.998936,-35.000000,34.509998,-17.080000,19.79
359087,0.366000,-0.036600,1.000400,-24.290001,30.940001,-19.110001,19.75
359098,0.359656,-0.005856,0.989176,-18.620001,26.320000,-19.040001,19.75
359109,0.380152,0.021960,0.954528,-20.160000,21.629999,-18.620001,19.78
359120,0.386008,0.021960,0.937448,-24.500000,20.370001,-17.010000,19.74
359131,0.379176,0.012200,0.929640,-25.480000,18.690001,-16.590000,19.74
359142,0.398208,-0.001464,0.920856,-27.090000,17.010000,-16.520000,19.76
359153,0.402600,-0.042456,0.918416,-23.590000,18.480000,-18.969999,19.76
359164,0.385520,-0.026840,0.912560,-19.180000,16.660000,-19.879999,19.80
359175,0.406016,-0.023912,0.922808,-17.920000,17.080000,-20.510000,19.79
359186,0.383568,-0.043432,0.931104,-13.860000,15.820000,-19.809999,19.79
359197,0.401136,0.016592,0.915000,-15.680000,14.490000,-17.080000,19.76
359209,0.410896,0.014640,0.876936,-20.580000,14.840000,-15.470000,19.76
359220,0.415288,-0.007808,0.865712,-23.170000,15.960000,-14.350000,19.80
359232,0.409920,-0.026352,0.874984,-21.840000,16.590000,-13.440000,19.75
359244,0.407480,-0.035624,0.886208,-20.160000,17.219999,-12.110000,19.75
359255,0.422120,-0.050752,0.889624,-17.430000,19.600000,-11.480000,19.79
359267,0.403088,-0.055144,0.895480,-13.300000,19.320000,-10.430000,19.79
359278,0.409920,-0.047336,0.895480,-9.030000,20.230000,-10.220000,19.79
359289,0.389912,-0.057584,0.907192,-2.450000,19.250000,-9.660000,19.78
359301,0.385520,-0.049288,0.923784,2.590000,17.639999,-8.050000,19.78
359312,0.375760,-0.012200,0.924272,2.240000,14.700000,-5.250000,19.79
359323,0.384056,-0.000976,0.929640,-2.240000,14.140000,-2.870000,19.79
359334,0.380640,-0.007808,0.933544,-6.230000,13.720000,-0.840000,19.80
359346,0.359168,-0.004880,0.939400,-8.680000,11.900000,0.560000,19.73
359358,0.362584,-0.002928,0.936960,-12.740000,10.780000,2.660000,19.73
359369,0.378688,-0.035624,0.938912,-15.540000,10.990000,3.640000,19.74
359380,0.352336,-0.042944,0.940376,-17.430000,9.240000,4.830000,19.74
359392,0.345504,-0.074176,0.936472,-16.520000,7.350000,5.880000,19.77
359403,0.345016,-0.074664,0.946232,-14.280000,5.460000,7.000000,19.78
359415,0.348432,-0.080520,0.939888,-13.020000,3.010000,7.980000,19.78
359426,0.362096,-0.085400,0.942328,-12.250000,2.030000,8.610000,19.82
359437,0.363560,-0.090280,0.944280,-11.480000,1.330000,8.400000,19.74
359449,0.358192,-0.078568,0.949160,-10.850000,0.350000,8.330000,19.74
359460,0.357704,-0.095648,0.959408,-10.920000,-0.910000,7.490000,19.80
359471,0.348432,-0.115656,0.968680,-10.430000,-2.240000,6.720000,19.80
359483,0.350384,-0.132736,0.974048,-8.680000,-4.550000,5.530000,19.82
359495,0.351848,-0.145912,0.973072,-5.950000,-6.020000,4.130000,19.76
359506,0.352824,-0.147376,0.962824,-3.220000,-7.560000,3.290000,19.76
359518,0.375760,-0.154696,0.956480,-0.980000,-7.280000,2.520000,19.80
359529,0.367464,-0.151280,0.949160,2.240000,-7.070000,1.260000,19.80
359541,0.348920,-0.124440,0.941840,3.850000,-7.630000,0.490000,19.81
359552,0.353312,-0.116632,0.935496,4.410000,-8.540000,0.420000,19.78
359564,0.361120,-0.117608,0.925736,4.060000,-8.400000,0.560000,19.78
359575,0.369904,-0.111752,0.920368,3.710000,-7.840000,1.120000,19.80
359587,0.371368,-0.107848,0.917928,2.310000,-6.860000,0.980000,19.80
359598,0.355264,-0.118096,0.916952,2.240000,-6.860000,0.350000,19.80
359610,0.361120,-0.132736,0.919392,2.940000,-6.720000,0.000000,19.75
359621,0.378200,-0.149328,0.914512,4.550000,-6.160000,-0.140000,19.75
359632,0.389424,-0.150792,0.912560,6.510000,-4.130000,-0.350000,19.80
359644,0.386496,-0.130296,0.917440,8.050000,-3.990000,-0.070000,19.75
359655,0.379664,-0.116632,0.927200,7.980000,-4.200000,-0.490000,19.75
359667,0.386008,-0.102480,0.924272,7.000000,-4.130000,-0.140000,19.80
359679,0.405040,-0.110776,0.924760,4.200000,-2.940000,0.210000,19.77
359690,0.409920,-0.112240,0.922320,1.680000,-1.120000,0.560000,19.77
359701,0.401136,-0.124440,0.921344,-1.400000,-0.350000,0.490000,19.77
359713,0.385032,-0.129320,0.928176,-0.210000,0.280000,0.000000,19.77
359724,0.380640,-0.121512,0.916464,1.330000,-0.140000,-0.070000,19.82
359736,0.395280,-0.126880,0.916464,3.080000,0.420000,-0.770000,19.80
359747,0.391376,-0.115168,0.927200,3.850000,0.700000,-1.540000,19.80
359758,0.389912,-0.112728,0.935496,3.150000,0.700000,-1.820000,19.80
359770,0.388936,-0.107360,0.941840,3.080000,0.770000,-1.750000,19.80
359781,0.379664,-0.098576,0.936472,2.520000,-0.280000,-2.310000,19.76
359792,0.383080,-0.100040,0.930616,1.820000,-0.420000,-2.520000,19.77
359804,0.390888,-0.105408,0.929640,1.190000,0.210000,-2.590000,19.77
359816,0.387472,-0.084912,0.935984,0.210000,0.350000,-2.730000,19.82
359827,0.385520,-0.094672,0.940864,-0.630000,0.770000,-2.940000,19.82
359839,0.379664,-0.095648,0.940864,0.210000,0.770000,-2.730000,19.78
359850,0.381128,-0.102968,0.936960,0.770000,0.910000,-2.590000,19.74
359860,0.380640,-0.101504,0.939400,1.400000,1.400000,-2.100000,19.74
359871,0.377712,-0.094672,0.952088,1.890000,1.400000,-1.680000,19.81
359882,0.374784,-0.083936,0.955016,1.890000,1.470000,-1.470000,19.81
359893,0.364536,-0.067344,0.959408,0.420000,0.490000,-0.840000,19.79
359904,0.369904,-0.072712,0.959408,-2.030000,0.350000,-0.770000,19.75
359915,0.369416,-0.087352,0.964776,-3.640000,0.210000,-0.490000,19.75
359926,0.377224,-0.094184,0.972584,-5.880000,0.630000,0.000000,19.78
359937,0.363560,-0.115168,0.974048,-6.230000,0.490000,0.350000,19.78
359948,0.358192,-0.124928,0.969656,-3.710000,-0.420000,0.420000,19.80
359959,0.349896,-0.123464,0.956480,-0.560000,-1.610000,0.350000,19.82
359970,0.368440,-0.111264,0.947696,0.980000,-0.910000,0.070000,19.82
359981,0.363072,-0.101504,0.949160,1.470000,-1.680000,0.490000,19.77
359992,0.367952,-0.092720,0.956480,0.210000,-1.680000,0.630000,19.77
360003,0.349896,-0.090280,0.966240,-2.870000,-3.080000,0.630000,19.82
360014,0.361120,-0.104432,0.971120,-4.900000,-3.500000,0.350000,19.82
360025,0.362096,-0.122488,0.966240,-6.300000,-3.850000,0.280000,19.74
360036,0.367952,-0.139568,0.954040,-4.830000,-3.780000,-0.630000,19.72
360047,0.366488,-0.148352,0.945744,-1.400000,-4.270000,-1.750000,19.72
360058,0.371368,-0.158112,0.934032,1.540000,-4.270000,-2.940000,19.76
360069,0.372344,-0.155672,0.930616,6.090000,-4.130000,-3.640000,19.76
360080,0.388448,-0.112728,0.925248,7.140000,-3.920000,-3.640000,19.79
360091,0.394792,-0.092232,0.927688,5.950000,-2.730000,-3.150000,19.76
360102,0.387960,-0.075640,0.941352,2.870000,-2.170000,-2.590000,19.76
360113,0.388936,-0.077592,0.941840,-1.050000,-1.470000,-2.380000,19.80
360124,0.394792,-0.089792,0.934032,-3.710000,-0.630000,-2.240000,19.80
360135,0.394304,-0.096136,0.935008,-5.600000,0.350000,-2.380000,19.80
360146,0.396256,-0.111752,0.944768,-6.370000,0.980000,-2.450000,19.75
360157,0.392352,-0.117120,0.949160,-5.600000,1.330000,-2.730000,19.75
360168,0.386496,-0.113704,0.952576,-4.760000,1.610000,-2.520000,19.83
360179,0.379664,-0.115656,0.957456,-3.220000,1.400000,-2.520000,19.83
360190,0.371856,-0.105896,0.953552,-2.450000,1.120000,-2.520000,19.75
360201,0.371368,-0.106872,0.944768,-1.960000,0.770000,-2.170000,19.71
360212,0.375272,-0.096136,0.939400,-1.820000,0.980000,-1.750000,19.71
360223,0.371856,-0.090280,0.935984,-2.100000,0.980000,-1.190000,19.74
360234,0.366000,-0.083936,0.940376,-3.360000,0.980000,-0.980000,19.74
360245,0.363560,-0.090768,0.951600,-3.430000,0.420000,-0.840000,19.77
360256,0.363560,-0.093208,0.964288,-3.500000,-0.210000,-0.280000,19.77
360267,0.365512,-0.100528,0.964288,-3.150000,-0.420000,0.070000,19.80
360279,0.365024,-0.105408,0.956480,-3.010000,-0.350000,0.490000,19.77
360290,0.365024,-0.108336,0.947696,-1.260000,-0.140000,0.560000,19.77
360301,0.367464,-0.106872,0.941352,0.420000,-0.210000,1.400000,19.80
360312,0.362096,-0.101504,0.941352,0.630000,-0.980000,1.610000,19.80
360323,0.364536,-0.091744,0.939400,-0.280000,-1.330000,2.030000,19.81
360334,0.368928,-0.093208,0.941840,-1.890000,-1.120000,2.730000,19.77
360345,0.371368,-0.092720,0.954528,-2.800000,-0.840000,2.940000,19.77
360356,0.370880,-0.094184,0.965264,-4.060000,-0.770000,3.290000,19.75
360367,0.370392,-0.107848,0.968192,-4.830000,-1.050000,3.500000,19.75
360379,0.366976,-0.113216,0.966240,-4.900000,-1.820000,3.990000,19.80
360390,0.366976,-0.139080,0.952088,-3.780000,-1.960000,3.990000,19.77
360401,0.366000,-0.143960,0.942328,-1.120000,-2.030000,3.640000,19.77
360412,0.366488,-0.138104,0.945256,1.680000,-2.240000,3.710000,19.78
360423,0.365512,-0.127856,0.960384,2.800000,-3.150000,3.850000,19.78
360434,0.366976,-0.123952,0.964776,3.010000,-3.570000,3.990000,19.83
360445,0.363072,-0.000976,0.971608,3.290000,-3.850000,4.270000,19.75
360456,0.369416,-0.119072,0.969168,1.750000,-4.550000,4.200000,19.75
360466,0.372344,-0.127856,0.965264,0.840000,-4.970000,4.340000,19.77
360477,0.372344,-0.136152,0.954040,0.910000,-4.900000,3.780000,19.77
360489,0.369904,-0.131760,0.945744,1.750000,-5.250000,3.640000,19.79
360500,0.365024,-0.127368,0.940376,1.960000,-5.250000,3.150000,19.79
360510,0.373320,-0.117608,0.935496,1.260000,-5.180000,3.710000,19.74
360521,0.373808,-0.132736,0.938424,2.030000,-4.620000,3.710000,19.74
360532,0.373320,-0.114680,0.945744,3.850000,-3.780000,3.080000,19.74
360544,0.362096,-0.103456,0.961848,3.640000,-4.410000,2.940000,19.79
360556,0.357216,-0.101992,0.965752,2.590000,-4.200000,3.150000,19.76
360567,0.354776,-0.102480,0.956968,1.120000,-4.690000,3.220000,19.76
360578,0.359168,-0.106384,0.948184,-0.490000,-4.550000,3.500000,19.78
360589,0.357704,-0.118584,0.942816,-1.680000,-4.690000,3.360000,19.78
360600,0.357216,-0.122976,0.933544,-1.400000,-4.340000,3.150000,19.79
360611,0.361120,-0.126392,0.931104,-0.420000,-3.640000,3.220000,19.79
360622,0.354776,-0.118096,0.929152,1.260000,-3.360000,3.710000,19.76
360633,0.362096,-0.115656,0.928664,1.820000,-3.220000,4.270000,19.77
360644,0.370880,-0.119560,0.928664,1.120000,-2.240000,4.620000,19.77
360655,0.367464,-0.125904,0.934032,0.700000,-1.890000,5.460000,19.77
360666,0.368440,-0.129808,0.935008,0.210000,-1.680000,5.390000,19.77
360677,0.365024,-0.128832,0.935496,-0.350000,-1.960000,5.950000,19.77
360688,0.373320,-0.132736,0.943792,-1.470000,-1.890000,5.950000,19.78
360699,0.372344,-0.145424,0.946720,-1.120000,-1.470000,5.530000,19.78
360710,0.374296,-0.136640,0.940376,-1.050000,-0.980000,4.900000,19.79
360721,0.369416,-0.126392,0.936960,-3.360000,-0.490000,4.830000,19.79
360732,0.362096,-0.145424,0.945256,-4.760000,-0.630000,4.550000,19.82
360743,0.366976,-0.164456,0.953552,-4.200000,-1.050000,4.480000,19.79
360756,0.368928,-0.169824,0.961360,-2.100000,-1.050000,4.480000,19.79
360768,0.363072,-0.167872,0.962336,0.700000,-1.820000,4.200000,19.76
360778,0.365512,-0.151280,0.970632,2.380000,-2.170000,4.200000,19.76
360789,0.359656,-0.140544,0.977464,1.750000,-2.800000,4.340000,19.81
360800,0.359656,-0.142496,0.974048,0.210000,-2.940000,4.620000,19.77
360811,0.361120,-0.153232,0.962824,-1.190000,-3.080000,4.620000,19.77
360822,0.364536,-0.163480,0.962824,-1.050000,-3.220000,4.480000,19.79
360833,0.363072,-0.165920,0.965752,-0.770000,-3.500000,3.920000,19.79
360844,0.357704,-0.162504,0.964288,-0.210000,-3.640000,3.710000,19.82
360855,0.346480,-0.161528,0.956480,0.280000,-3.850000,3.290000,19.74
360866,0.349896,-0.162504,0.951112,0.700000,-3.780000,2.940000,19.74
360877,0.355264,-0.159576,0.942328,1.050000,-3.710000,2.660000,19.75
360888,0.360632,-0.151280,0.939400,0.630000,-3.500000,2.380000,19.75
360899,0.369904,-0.161528,0.941352,0.700000,-3.710000,2.170000,19.75
360910,0.372344,-0.158112,0.938912,2.170000,-4.060000,2.100000,19.75
360921,0.376736,-0.148352,0.931592,2.520000,-4.130000,1.680000,19.78
360931,0.381616,-0.151280,0.924760,2.730000,-3.850000,1.400000,19.79
360942,0.385520,-0.144448,0.919392,2.450000,-3.220000,0.700000,19.79
360953,0.391376,-0.144448,0.921344,1.470000,-2.100000,0.910000,19.79
360964,0.381616,-0.142008,0.929640,0.980000,-1.470000,0.770000,19.79
360975,0.376248,-0.133712,0.933544,0.140000,-1.120000,0.840000,19.79
360986,0.373320,-0.131272,0.932080,-0.770000,-1.050000,0.910000,19.76
360998,0.369416,-0.132248,0.935496,-0.420000,-0.910000,1.260000,19.76
361009,0.368440,-0.128344,0.933056,-1.330000,-0.420000,1.610000,19.75
361020,0.360632,-0.118096,0.937448,-2.240000,0.140000,1.820000,19.75
361031,0.355264,-0.121024,0.941352,-3.220000,-0.070000,2.030000,19.75
361042,0.345504,-0.121512,0.940864,-3.430000,-0.420000,2.310000,19.79
361053,0.345992,-0.128344,0.932568,-3.080000,-1.330000,2.520000,19.79
361064,0.348432,-0.136152,0.928176,-1.120000,-1.750000,2.590000,19.77
361075,0.344040,-0.135664,0.931592,-0.070000,-1.890000,2.380000,19.77
361086,0.346968,-0.142008,0.927688,1.050000,-1.820000,2.660000,19.78
361097,0.346480,-0.130296,0.931592,1.470000,-2.030000,2.870000,19.82
361108,0.344528,-0.125904,0.939888,1.680000,-2.380000,3.150000,19.82
361119,0.354776,-0.130296,0.938424,1.190000,-2.590000,3.220000,19.78
361130,0.360144,-0.142496,0.938424,1.400000,-2.170000,3.220000,19.78
361141,0.362584,-0.140544,0.935008,1.540000,-1.750000,3.150000,19.76
361152,0.365024,-0.143960,0.933544,0.630000,-1.260000,3.430000,19.76
361163,0.366000,-0.147376,0.938912,-0.280000,-0.910000,3.500000,19.75
361174,0.366000,-0.147376,0.940376,-0.630000,-0.840000,3.640000,19.78
361185,0.370880,-0.148840,0.941840,-1.050000,-0.350000,3.710000,19.78
361196,0.370392,-0.155672,0.951112,-1.260000,-0.070000,3.570000,19.79
361207,0.368928,-0.150792,0.953552,-1.680000,0.140000,3.430000,19.79
361218,0.364536,-0.150304,0.955504,-2.940000,0.490000,3.220000,19.82
361229,0.359656,-0.139080,0.956480,-4.130000,0.350000,3.360000,19.73
361240,0.356240,-0.144448,0.953552,-6.160000,0.280000,3.290000,19.73
361251,0.359656,-0.157624,0.956968,-7.000000,0.140000,3.430000,19.80
361262,0.355264,-0.170800,0.960384,-6.300000,0.210000,3.150000,19.80
361273,0.352336,-0.173240,0.964776,-3.990000,-0.140000,3.150000,19.82
361284,0.352824,-0.166408,0.965264,-1.890000,-0.700000,3.290000,19.77
361295,0.338672,-0.160064,0.969168,17.850000,-1.400000,3.360000,19.77
361306,0.338672,-0.161040,0.972096,0.560000,-2.170000,3.500000,19.80
361317,0.340136,-0.162504,0.971120,0.910000,-2.870000,3.570000,19.80
361328,0.348920,-0.158600,0.969168,-0.210000,-3.220000,3.640000,19.77
361339,0.347456,-0.156160,0.966240,-1.400000,-3.080000,3.500000,19.77
361350,0.346968,-0.161040,0.961360,-1.960000,-3.290000,3.500000,19.77
361361,0.341600,-0.169824,0.957456,-1.540000,-3.710000,3.150000,19.79
361372,0.338184,-0.174216,0.952576,-0.840000,-4.060000,2.730000,19.79
361383,0.342088,-0.179096,0.944768,0.210000,-4.060000,2.240000,19.77
361394,0.345016,-0.178608,0.953552,0.840000,-3.780000,2.030000,19.77
361405,0.344528,-0.169336,0.954528,0.910000,-3.710000,1.610000,19.79
361416,0.345016,-0.163480,0.952576,0.140000,-3.850000,1.610000,19.77
361426,0.345992,-0.166896,0.951600,-0.350000,-4.130000,1.330000,19.77
361437,0.346968,-0.172752,0.951112,0.000000,-4.270000,1.330000,19.78
361449,0.346968,-0.169824,0.950136,0.210000,-4.130000,1.190000,19.78
361459,0.348432,-0.173240,0.952088,0.490000,-3.990000,1.120000,19.82
361470,0.344040,-0.169824,0.952088,0.280000,-3.920000,1.120000,19.79
361481,0.348920,-0.176656,0.949648,-0.140000,-3.850000,1.050000,19.79
361492,0.348432,-0.180560,0.948672,0.560000,-4.060000,0.560000,19.81
361503,0.351848,-0.178120,0.941840,0.980000,-4.130000,0.560000,19.81
361514,0.356240,-0.172752,0.946232,0.980000,-3.990000,0.350000,19.77
361525,0.354776,-0.170800,0.946232,1.050000,-3.780000,0.140000,19.77
361536,0.351360,-0.162504,0.948184,0.140000,-3.780000,0.210000,19.82
361547,0.353312,-0.165432,0.948672,-0.560000,-3.640000,0.280000,19.81
361558,0.354776,-0.176168,0.943792,-0.910000,-3.570000,0.140000,19.81
361569,0.356240,-0.186904,0.932568,0.630000,-3.430000,-0.140000,19.80
361580,0.359168,-0.184464,0.933544,2.520000,-3.220000,-0.560000,19.80
361591,0.362096,-0.171288,0.935496,3.290000,-3.080000,-0.840000,19.80
361602,0.363072,-0.165432,0.945744,3.010000,-3.220000,-0.770000,19.79
361613,0.356240,-0.161528,0.946232,2.380000,-3.080000,-0.770000,19.79
361624,0.350384,-0.151280,0.948672,1.260000,-3.430000,-0.980000,19.81
361635,0.354776,-0.156160,0.941352,0.070000,-3.290000,-0.910000,19.81
361646,0.359656,-0.162992,0.936960,-0.210000,-2.870000,-0.910000,19.77
361657,0.354776,-0.165432,0.935496,0.770000,-2.800000,-0.910000,19.83
361668,0.357216,-0.163480,0.939888,1.610000,-2.870000,-0.770000,19.83
361679,0.356240,-0.159576,0.938424,2.310000,-2.730000,-0.560000,19.79
361690,0.352336,-0.151280,0.939888,2.520000,-2.870000,-0.420000,19.79
361701,0.355752,-0.148352,0.939888,1.680000,-2.730000,-0.070000,19.81
361712,0.355752,-0.144936,0.942328,0.350000,-2.380000,0.280000,19.81
361723,0.355264,-0.148840,0.938912,-1.190000,-2.310000,0.630000,19.80
361734,0.349408,-0.160064,0.942816,-0.770000,-2.660000,0.980000,19.81
361745,0.346968,-0.164456,0.951112,0.000000,-3.360000,0.840000,19.81
361756,0.346480,-0.169824,0.948672,0.700000,-3.920000,0.910000,19.80
361767,0.345016,-0.172264,0.941840,1.680000,-3.850000,0.980000,19.80
361779,0.346480,-0.166896,0.947696,3.080000,-4.410000,0.980000,19.79
361789,0.343064,-0.161528,0.953552,2.940000,-4.900000,0.910000,19.75
361800,0.347456,-0.168360,0.951600,2.520000,-5.320000,1.120000,19.75
361812,0.357704,-0.176656,0.943792,2.240000,-5.250000,1.120000,19.77
361823,0.361120,-0.172264,0.938424,3.010000,-5.040000,1.120000,19.77
361834,0.365512,-0.170312,0.937448,2.800000,-4.690000,1.120000,19.82
361845,0.363072,-0.171776,0.939888,2.240000,-4.480000,1.050000,19.81
361856,0.363072,-0.171288,0.933544,0.770000,-4.340000,1.120000,19.81
361867,0.366000,-0.177144,0.937936,0.210000,-4.060000,0.770000,19.79
361878,0.370880,-0.180560,0.940864,0.210000,-3.640000,0.560000,19.79
361889,0.370880,-0.183976,0.936472,-0.420000,-2.940000,-0.140000,19.81
361901,0.368928,-0.182024,0.933544,-0.070000,-2.520000,-0.490000,19.77
361912,0.363560,-0.178120,0.943304,-0.210000,-2.730000,-1.050000,19.77
361923,0.357216,-0.178608,0.942328,-0.210000,-2.660000,-1.610000,19.80
361934,0.364048,-0.186904,0.944280,0.070000,-2.590000,-1.960000,19.80
361945,0.366000,-0.183000,0.941352,0.840000,-2.100000,-2.660000,19.79
361956,0.365024,-0.169824,0.942328,0.980000,-2.170000,-3.080000,19.79
361967,0.362096,-0.175192,0.943792,0.770000,-2.310000,-3.220000,19.79
361978,0.354776,-0.170312,0.942816,1.330000,-2.240000,-3.360000,19.78
361989,0.357216,-0.162992,0.940376,1.750000,-2.240000,-3.290000,19.78
362000,0.359656,-0.157136,0.938424,1.960000,-2.240000,-3.360000,19.79
362011,0.357704,-0.147376,0.941352,1.540000,-1.890000,-3.290000,19.78
362022,0.351360,-0.140544,0.938912,0.630000,-2.030000,-3.010000,19.78
362033,0.355264,-0.148840,0.945256,0.420000,-2.030000,-2.660000,19.82
362045,0.361120,-0.149816,0.942328,0.420000,-2.310000,-1.820000,19.82
362056,0.364048,-0.152256,0.942328,0.630000,-1.680000,-1.260000,19.80
362067,0.363072,-0.147376,0.949160,0.980000,-1.540000,-0.420000,19.80
362078,0.365024,-0.144448,0.952576,0.420000,-1.470000,0.420000,19.78
362089,0.365024,-0.143472,0.950136,-0.630000,-1.330000,1.050000,19.76
362100,0.359168,-0.148840,0.954040,-1.610000,-1.470000,1.470000,19.76
362111,0.357704,-0.154208,0.955504,-2.100000,-1.610000,1.610000,19.80
362122,0.358192,-0.154696,0.951600,-2.590000,-1.890000,1.680000,19.80
362133,0.358192,-0.164944,0.953064,-2.240000,-2.520000,1.540000,19.78
362144,0.351360,-0.170800,0.956480,-1.120000,-3.360000,1.330000,19.75
362155,0.355752,-0.184952,0.950136,0.000000,-3.920000,0.980000,19.75
362166,0.361608,-0.184464,0.946232,2.450000,-3.990000,0.770000,19.81
362177,0.366000,-0.170800,0.946720,3.500000,-4.480000,0.770000,19.81
362188,0.368928,-0.164456,0.956480,3.290000,-5.110000,0.700000,19.78
362199,0.366488,-0.165432,0.953552,2.170000,-5.460000,0.770000,19.80
362210,0.371368,-0.169824,0.945256,1.890000,-5.600000,0.630000,19.80
362221,0.370392,-0.172752,0.939888,1.960000,-5.600000,0.560000,19.81
362232,0.375760,-0.177144,0.935984,2.240000,-5.460000,0.280000,19.81
362243,0.369416,-0.178120,0.935496,2.660000,-5.460000,0.070000,19.80
362254,0.371368,-0.177632,0.937448,2.870000,-5.460000,-0.280000,19.79
362265,0.365512,-0.170312,0.934032,2.870000,-5.250000,-0.770000,19.79
362276,0.365024,-0.173728,0.931592,2.730000,-4.970000,-1.120000,19.82
362287,0.369416,-0.167872,0.927200,2.660000,-4.620000,-1.120000,19.82
362298,0.375760,-0.171288,0.926224,2.380000,-3.990000,-1.190000,19.82
362310,0.375760,-0.162504,0.935008,2.240000,-3.570000,-1.050000,19.76
362322,0.373320,-0.152256,0.933544,1.050000,-3.430000,-0.840000,19.76
362333,0.367952,-0.163968,0.928176,0.560000,-2.940000,-0.910000,19.82
362346,0.359168,-0.155672,0.922808,1.190000,-2.730000,-0.910000,19.82
362357,0.364536,-0.165432,0.928176,0.210000,-2.730000,-0.910000,19.79
362368,0.363072,-0.172264,0.935984,0.630000,-2.030000,-0.280000,19.77
362380,0.358192,-0.158112,0.935984,1.120000,-2.240000,-0.350000,19.77
362391,0.359168,-0.159088,0.934032,1.540000,-2.170000,-0.560000,19.79
362402,0.361608,-0.161040,0.931592,1.610000,-2.240000,-0.420000,19.79
362413,0.369416,-0.163480,0.932568,0.770000,-2.170000,-0.210000,19.83
362424,0.369416,-0.164456,0.933544,1.050000,-1.610000,-0.070000,19.76
362435,0.368928,-0.154696,0.935496,0.700000,-1.470000,-0.070000,19.76
362446,0.367952,-0.160064,0.939400,-0.350000,-1.330000,-0.490000,19.81
362458,0.360632,-0.165432,0.939888,-0.420000,-1.540000,-0.420000,19.81
362469,0.356728,-0.173240,0.932568,0.630000,-1.680000,-0.490000,19.77
362480,0.360632,-0.162992,0.934032,1.260000,-1.820000,-0.840000,19.82
362491,0.360144,-0.162504,0.937448,1.610000,-1.540000,-1.120000,19.82
362502,0.360144,-0.151280,0.939400,1.610000,-1.400000,-1.050000,19.81
362513,0.362096,-0.151280,0.941352,1.400000,-1.540000,-1.190000,19.81
362524,0.362096,-0.159088,0.943792,0.980000,-1.680000,-0.980000,19.80
362536,0.365024,-0.159088,0.940864,0.350000,-1.260000,-0.420000,19.79
362547,0.358680,-0.160552,0.937936,0.770000,-1.050000,-0.280000,19.79
362558,0.359168,-0.154208,0.937936,1.190000,-1.050000,-0.560000,19.81
362569,0.358680,-0.154208,0.944768,1.190000,-1.120000,-0.490000,19.81
362580,0.357704,-0.159088,0.944768,1.190000,-1.120000,-0.350000,19.79
362591,0.355752,-0.157624,0.941352,1.610000,-1.330000,-0.140000,19.78
362602,0.353800,-0.155672,0.942816,2.030000,-1.540000,-0.210000,19.78
362613,0.361120,-0.156160,0.946720,1.470000,-1.260000,0.000000,19.84
362624,0.360632,-0.153232,0.947696,1.050000,-0.910000,0.210000,19.84
362635,0.354776,-0.146400,0.952576,-0.280000,-0.840000,0.210000,19.80
362646,0.356728,-0.158112,0.954528,-1.050000,-1.260000,0.280000,19.80
362657,0.359168,-0.169824,0.951112,-0.700000,-1.470000,0.490000,19.80
362668,0.360632,-0.180072,0.952088,0.350000,-1.540000,0.560000,19.80
362680,0.363560,-0.169824,0.953552,1.610000,-1.610000,0.560000,19.80
362691,0.363560,-0.164456,0.961848,1.750000,-1.750000,0.420000,19.82
362702,0.362096,-0.155672,0.963312,0.420000,-2.030000,0.630000,19.80
362714,0.358192,-0.170800,0.957944,0.000000,-2.310000,0.560000,19.80
362725,0.360632,-0.173240,0.958432,0.070000,-2.590000,0.420000,19.79
362737,0.363560,-0.178608,0.956480,0.630000,-2.800000,0.000000,19.79
362748,0.369904,-0.179096,0.954528,1.400000,-2.940000,-0.210000,19.84
362760,0.365024,-0.175192,0.958432,1.610000,-3.150000,-0.140000,19.82
362772,0.369416,-0.171288,0.950624,1.610000,-3.220000,-0.280000,19.82
362783,0.367952,-0.173240,0.946720,1.890000,-3.150000,-0.560000,19.80
362795,0.362096,-0.166896,0.947696,2.100000,-3.150000,-0.980000,19.81
362806,0.368440,-0.166408,0.939400,1.680000,-3.080000,-1.260000,19.81
362818,0.367464,-0.167872,0.940864,1.610000,-2.800000,-1.260000,19.80
362830,0.368928,-0.161040,0.943792,1.610000,-2.730000,-1.330000,19.80
362843,0.362584,-0.159576,0.949648,1.400000,-2.800000,-1.540000,19.84
362854,0.360632,-0.160064,0.948184,1.120000,-2.660000,-1.540000,19.80
362866,0.362584,-0.159576,0.938424,1.400000,-2.730000,-1.470000,19.80
362877,0.364536,-0.156648,0.940376,1.400000,-2.450000,-1.470000,19.80
362889,0.358192,-0.153720,0.937448,1.610000,-2.310000,-1.050000,19.76
362900,0.362096,-0.151768,0.941352,1.610000,-2.240000,-0.700000,19.76
362912,0.359656,-0.147864,0.940376,1.470000,-2.520000,-0.700000,19.79
362924,0.361608,-0.154696,0.940864,1.540000,-2.240000,-0.210000,19.79
362935,0.361608,-0.150792,0.942816,1.050000,-2.170000,0.070000,19.76
362946,0.358192,-0.155672,0.944280,0.980000,-2.100000,0.140000,19.78
362958,0.359168,-0.151280,0.941840,0.630000,-2.240000,0.280000,19.78
362969,0.353800,-0.153232,0.942328,0.700000,-2.380000,0.420000,19.77
362980,0.356728,-0.160552,0.936960,0.700000,-2.520000,0.770000,19.77
362992,0.357704,-0.158112,0.933056,0.700000,-2.380000,0.700000,19.80
363003,0.359656,-0.167384,0.932568,1.190000,-2.380000,0.350000,19.79
363015,0.358192,-0.162992,0.932080,1.400000,-2.520000,0.420000,19.79
363026,0.360144,-0.165920,0.938424,1.260000,-2.590000,0.420000,19.79
363038,0.363560,-0.169824,0.942328,1.400000,-2.660000,0.350000,19.77
363049,0.361608,-0.163968,0.942328,1.190000,-2.800000,0.280000,19.77
363061,0.365512,-0.171288,0.940864,0.910000,-2.590000,-0.140000,19.82
363073,0.366976,-0.175680,0.940864,1.470000,-2.520000,-0.560000,19.82
363084,0.367952,-0.166896,0.938424,1.610000,-2.520000,-0.700000,19.78
363096,0.366976,-0.169336,0.934520,1.820000,-2.450000,-0.770000,19.78
363107,0.364536,-0.166896,0.936960,1.680000,-2.240000,-1.120000,19.78
363119,0.359168,-0.157624,0.938424,1.470000,-2.170000,-1.190000,19.80
363130,0.361608,-0.160552,0.944280,1.330000,-2.240000,-1.260000,19.80
363141,0.361608,-0.160552,0.951600,1.050000,-2.310000,-1.190000,19.80
363153,0.357704,-0.156160,0.951112,0.980000,-2.310000,-1.050000,19.79
363164,0.355752,-0.161040,0.950136,0.910000,-2.380000,-1.050000,19.79
363176,0.353312,-0.161040,0.951112,1.610000,-2.380000,-0.910000,19.81
363187,0.359168,-0.157624,0.941840,2.100000,-2.520000,-0.840000,19.77
363199,0.364536,-0.152256,0.941352,2.100000,-2.100000,-0.560000,19.77
363210,0.364048,-0.151768,0.942816,1.470000,-1.680000,-0.140000,19.82
363221,0.361608,-0.146888,0.947696,-17.709999,-1.820000,-0.070000,19.82
363233,0.354776,-0.153232,0.948672,-0.560000,-2.100000,0.000000,19.82
363244,0.354288,-0.160064,0.940376,-0.700000,-2.170000,-0.210000,19.77
363256,0.350384,-0.172264,0.936472,-0.140000,-2.170000,-0.700000,19.77
363268,0.356240,-0.166896,0.942816,1.330000,-2.170000,-1.050000,19.80
363279,0.359168,-0.165920,0.948672,1.540000,-2.450000,-0.840000,19.80
363291,0.358192,-0.161040,0.947696,1.750000,-2.520000,-0.770000,19.80
363302,0.364048,-0.166408,0.945256,2.030000,-2.310000,-0.770000,19.78
363314,0.361120,-0.161528,0.942816,2.310000,-2.170000,-0.630000,19.78
363326,0.366488,-0.155672,0.944768,1.120000,-2.100000,-0.630000,19.82
363337,0.369416,-0.153232,0.949648,-0.840000,-1.750000,-0.420000,19.82
363349,0.366488,-0.157136,0.954040,-2.240000,-1.330000,-0.280000,19.82
363360,0.365024,-0.170312,0.952576,-2.660000,-1.330000,-0.420000,19.82
363372,0.364536,-0.175192,0.951112,-1.680000,-1.330000,-0.910000,19.82
363383,0.362584,-0.172752,0.951600,-0.630000,-1.750000,-1.190000,19.79
363395,0.356728,-0.173728,0.951600,0.140000,-2.170000,-1.540000,19.77
363406,0.353800,-0.169824,0.954040,0.840000,-2.590000,-1.820000,19.77
363417,0.354776,-0.169336,0.949160,1.680000,-2.940000,-1.680000,19.78
363428,0.354288,-0.153720,0.947208,1.890000,-3.010000,-1.610000,19.78
363440,0.355264,-0.150304,0.946720,1.680000,-2.800000,-1.540000,19.76
363452,0.358192,-0.147864,0.950624,0.840000,-2.940000,-1.190000,19.81
363463,0.356240,-0.148352,0.948672,0.210000,-2.800000,-0.770000,19.81
363475,0.360144,-0.156160,0.944280,-0.070000,-2.940000,-0.840000,19.82
363487,0.359168,-0.156160,0.935984,1.120000,-2.730000,-0.630000,19.80
363498,0.362096,-0.153232,0.929640,1.400000,-2.590000,-0.560000,19.80
363509,0.364536,-0.154208,0.931104,1.190000,-2.100000,-0.350000,19.78
363520,0.362096,-0.148352,0.936472,0.630000,-1.890000,-0.140000,19.78
363531,0.360632,-0.152256,0.940376,0.210000,-1.890000,0.000000,19.79
363543,0.363072,-0.153232,0.940864,0.140000,-1.680000,0.140000,19.81
363554,0.363072,-0.156648,0.936472,0.140000,-1.470000,0.000000,19.81
363566,0.364048,-0.154696,0.941840,-0.210000,-1.470000,0.280000,19.83
363577,0.361120,-0.154696,0.942328,-0.700000,-1.680000,0.000000,19.83
363588,0.360144,-0.162992,0.944768,-0.210000,-2.100000,0.070000,19.82
363600,0.362584,-0.163968,0.940864,0.490000,-1.960000,0.350000,19.81
363611,0.360144,-0.162504,0.944768,0.630000,-1.890000,0.350000,19.81
363622,0.360144,-0.163968,0.941840,0.560000,-2.100000,0.070000,19.83
363633,0.359656,-0.162016,0.942816,0.700000,-2.450000,-0.140000,19.83
363645,0.358680,-0.166896,0.936960,1.190000,-2.520000,-0.210000,19.80
363656,0.358192,-0.166896,0.937448,2.170000,-2.590000,-0.420000,19.79
363668,0.356728,-0.154696,0.943792,1.960000,-2.800000,-0.630000,19.79
363679,0.360632,-0.155184,0.943792,1.890000,-2.800000,-0.700000,19.82
363690,0.364048,-0.151768,0.943792,1.330000,-2.730000,-0.700000,19.82
363702,0.362096,-0.160064,0.940864,0.910000,-2.310000,-0.560000,19.78
363713,0.363560,-0.159576,0.938424,0.840000,-2.100000,-0.490000,19.76
363724,0.361608,-0.160064,0.940376,1.190000,-2.100000,-0.490000,19.76
363735,0.359168,-0.158112,0.942816,2.030000,-2.100000,-0.420000,19.80
363746,0.360144,-0.150792,0.951112,2.100000,-1.750000,0.140000,19.80
363757,0.359656,-0.146400,0.950136,1.470000,-2.030000,-0.140000,19.83
363769,0.358192,-0.146888,0.954528,0.420000,-2.030000,0.070000,19.76
363780,0.357704,-0.148352,0.954528,-0.420000,-2.240000,0.280000,19.76
363792,0.358192,-0.155184,0.942816,-0.630000,-2.380000,0.350000,19.80
363803,0.361120,-0.168360,0.942816,0.350000,-2.100000,0.630000,19.77
363814,0.365024,-0.162992,0.945256,1.400000,-2.240000,0.630000,19.77
363825,0.360144,-0.156648,0.948184,1.400000,-2.310000,0.630000,19.83
363837,0.361608,-0.153232,0.949648,0.840000,-2.170000,0.980000,19.83
363848,0.358192,-0.159576,0.948184,0.000000,-2.380000,0.980000,19.84
363860,0.355264,-0.162504,0.946232,-0.070000,-2.310000,0.980000,19.77
363871,0.356728,-0.165920,0.939888,0.420000,-2.520000,0.700000,19.77
363883,0.358680,-0.165432,0.940376,0.420000,-2.240000,0.210000,19.82
363895,0.357216,-0.163968,0.949160,0.420000,-2.310000,0.280000,19.82
363907,0.359168,-0.168848,0.948184,0.700000,-2.310000,0.280000,19.80
363918,0.357704,-0.167872,0.942328,1.400000,-2.240000,0.140000,19.81
363929,0.356240,-0.164456,0.936960,1.960000,-2.450000,-0.070000,19.81
363941,0.361608,-0.164944,0.946232,1.960000,-2.380000,-0.140000,19.84
363952,0.360632,-0.156160,0.953552,1.400000,-2.030000,0.000000,19.80
363963,0.356728,-0.153232,0.954040,0.560000,-1.890000,0.210000,19.80
363974,0.359168,-0.153720,0.955992,-0.210000,-2.030000,0.140000,19.81
363986,0.353312,-0.161528,0.951600,-0.420000,-2.170000,0.280000,19.81
363997,0.355264,-0.165920,0.950624,0.210000,-2.450000,0.280000,19.81
364008,0.356240,-0.167384,0.949160,1.050000,-2.800000,0.140000,19.82
364020,0.355752,-0.163968,0.955016,1.750000,-2.940000,0.350000,19.82
364031,0.354776,-0.155672,0.955992,1.470000,-3.010000,0.490000,19.79
364042,0.356240,-0.151280,0.955504,0.980000,-3.290000,0.770000,19.79
364053,0.354776,-0.158600,0.952088,0.420000,-3.360000,0.560000,19.80
364065,0.357216,-0.165432,0.952088,0.770000,-3.360000,0.630000,19.75
364076,0.357216,-0.165432,0.955504,1.190000,-3.430000,0.560000,19.75
364087,0.357216,-0.165920,0.955016,1.960000,-3.570000,0.700000,19.78
364098,0.355264,-0.157624,0.952088,1.960000,-3.850000,0.490000,19.78
364110,0.354288,-0.157136,0.952576,1.540000,-3.920000,0.560000,19.82
364121,0.359656,-0.164944,0.947208,1.470000,-3.920000,0.560000,19.76
364133,0.359656,-0.165920,0.940864,1.470000,-3.780000,0.560000,19.76
364144,0.358680,-0.163968,0.934032,1.820000,-3.500000,0.560000,19.80
364154,0.356240,-0.159576,0.941352,1.960000,-3.570000,0.420000,19.80
364166,0.354288,-0.159088,0.949648,1.190000,-3.780000,0.630000,19.79
364176,0.359168,-0.168360,0.951112,0.630000,-3.640000,0.560000,19.79
364188,0.358192,-0.169336,0.941840,1.120000,-3.570000,0.700000,19.79
364199,0.356728,-0.164456,0.936472,1.330000,-3.360000,0.560000,19.80
364211,0.359168,-0.166896,0.938424,1.050000,-3.150000,0.630000,19.80
364222,0.359656,-0.164944,0.940376,0.630000,-3.010000,0.770000,19.81
364233,0.360144,-0.165920,0.944768,0.490000,-2.940000,0.630000,19.83
364245,0.353800,-0.165920,0.941352,0.490000,-2.870000,0.490000,19.83
364256,0.357216,-0.171288,0.936472,0.280000,-2.800000,0.280000,19.82
364267,0.357704,-0.168360,0.930616,0.490000,-2.590000,0.140000,19.82
364278,0.359656,-0.168848,0.936472,0.490000,-2.380000,-0.070000,19.81
364290,0.361120,-0.168360,0.944768,0.700000,-2.450000,-0.070000,19.81
364301,0.355264,-0.159576,0.940376,0.700000,-2.310000,-0.210000,19.81
364313,0.353312,-0.165432,0.939888,0.280000,-2.520000,-0.210000,19.80
364324,0.358680,-0.170312,0.938912,0.210000,-2.450000,-0.490000,19.80
364336,0.356240,-0.170312,0.939400,0.770000,-2.520000,-0.700000,19.80
364347,0.359168,-0.167872,0.941840,1.330000,-2.310000,-0.840000,19.83
364358,0.353800,-0.158112,0.942816,1.540000,-2.310000,-0.560000,19.83
364370,0.354776,-0.158600,0.939888,1.050000,-2.380000,-0.490000,19.80
364382,0.356728,-0.159576,0.936472,0.910000,-2.380000,-0.630000,19.82
364393,0.357704,-0.162016,0.937936,0.910000,-2.240000,-0.630000,19.82
364404,0.356240,-0.158112,0.940864,1.050000,-2.380000,-0.490000,19.77
364416,0.360632,-0.163968,0.944280,1.190000,-2.310000,-0.140000,19.77
364427,0.360144,-0.156160,0.944280,0.980000,-2.170000,-0.140000,19.79
364439,0.360632,-0.159576,0.941840,0.210000,-2.310000,0.000000,19.75
364451,0.361608,-0.166408,0.943792,-0.070000,-2.170000,0.140000,19.75
364462,0.360144,-0.171776,0.943792,0.070000,-1.960000,0.070000,19.80
364473,0.355264,-0.172752,0.941352,0.560000,-2.100000,-0.350000,19.80
364485,0.358680,-0.167872,0.942816,0.770000,-2.310000,-0.700000,19.80
364496,0.361608,-0.170800,0.942816,0.980000,-2.100000,-0.840000,19.80
364507,0.361120,-0.169336,0.940864,1.400000,-1.820000,-0.770000,19.80
364519,0.359656,-0.161528,0.943304,1.330000,-1.820000,-0.840000,19.83
364531,0.361120,-0.157136,0.940376,0.910000,-1.960000,-0.910000,19.80
364542,0.362584,-0.160064,0.948184,0.630000,-1.890000,-0.910000,19.80
364553,0.364048,-0.161040,0.952576,0.280000,-1.750000,-0.630000,19.83
364564,0.362584,-0.161040,0.948184,-0.210000,-1.540000,-0.560000,19.83
364576,0.361608,-0.160552,0.944280,-0.630000,-1.470000,-0.630000,19.86
364587,0.359656,-0.165432,0.943304,-0.140000,-1.610000,-0.700000,19.78
364599,0.356240,-0.164944,0.941352,0.490000,-1.890000,-0.700000,19.78
364611,0.360144,-0.162992,0.945256,1.050000,-2.030000,-0.700000,19.82
364622,0.357216,-0.156160,0.950136,0.910000,-2.240000,-0.700000,19.82
364634,0.351848,-0.158112,0.956480,0.770000,-2.450000,-0.420000,19.80
364645,0.350384,-0.156648,0.952576,0.840000,-2.730000,-0.280000,19.81
364657,0.351848,-0.159576,0.943792,1.190000,-2.870000,-0.280000,19.81
364668,0.354776,-0.159088,0.940864,1.750000,-2.800000,-0.210000,19.79
364680,0.358192,-0.152256,0.940864,1.540000,-2.660000,-0.140000,19.79
364691,0.358680,-0.158600,0.949160,1.400000,-2.590000,0.000000,19.79
364703,0.356240,-0.160552,0.953552,1.890000,-2.590000,0.420000,19.81
364714,0.359656,-0.151280,0.948184,1.470000,-2.940000,0.210000,19.81
364725,0.361120,-0.164456,0.948672,1.540000,-2.730000,0.210000,19.81
364736,0.359656,-0.155672,0.942816,1.260000,-2.450000,0.280000,19.81
364748,0.360632,-0.155672,0.945744,0.910000,-2.240000,0.560000,19.81
364759,0.360632,-0.160064,0.950624,0.490000,-2.170000,0.560000,19.80
364770,0.359168,-0.162016,0.944768,0.560000,-2.380000,0.420000,19.80
364782,0.362584,-0.162504,0.945744,0.140000,-2.240000,0.350000,19.84
364793,0.363072,-0.161040,0.948672,-0.350000,-2.030000,0.560000,19.81
364804,0.361120,-0.156160,0.947208,-0.770000,-1.680000,0.630000,19.81
364815,0.355752,-0.164944,0.951600,-1.050000,-1.890000,0.560000,19.84
364826,0.355752,-0.163968,0.947208,-0.630000,-2.170000,0.700000,19.84
364838,0.360144,-0.171288,0.943792,-0.420000,-2.240000,0.770000,19.79
364849,0.357704,-0.173240,0.946720,0.350000,-2.240000,0.700000,19.79
364861,0.354288,-0.166896,0.954040,0.910000,-2.520000,0.490000,19.79
364873,0.352824,-0.163480,0.955992,0.910000,-3.150000,0.280000,19.76
364884,0.350872,-0.164944,0.945256,1.050000,-3.430000,0.350000,19.76
364897,0.349896,-0.165920,0.941840,1.050000,-3.640000,0.070000,19.79
364908,0.357216,-0.166896,0.945744,1.400000,-3.500000,-0.140000,19.81
364919,0.360144,-0.165432,0.952088,1.540000,-3.640000,-0.280000,19.81
364931,0.358680,-0.164456,0.941840,1.190000,-3.430000,-0.140000,19.89
364943,0.354776,-0.167872,0.939888,1.610000,-3.430000,-0.140000,19.78
364955,0.362096,-0.167384,0.944280,1.750000,-3.430000,-0.420000,19.78
364966,0.358680,-0.164944,0.946232,1.540000,-3.150000,-0.280000,19.85
364977,0.359168,-0.161040,0.945256,1.330000,-3.010000,-0.210000,19.85
364989,0.359168,-0.162016,0.943304,0.840000,-2.870000,0.070000,19.80
365000,0.359656,-0.163968,0.939400,0.770000,-2.730000,-0.070000,19.77
365012,0.358680,-0.163968,0.936472,0.980000,-2.800000,-0.070000,19.77
365024,0.361608,-0.165432,0.936960,1.120000,-2.660000,-0.210000,19.81
365035,0.361608,-0.162016,0.944768,1.190000,-2.100000,-0.140000,19.80
365047,0.361120,-0.157624,0.944768,0.280000,-1.680000,0.000000,19.80
365058,0.356728,-0.152256,0.951600,-0.630000,-1.820000,0.140000,19.84
365069,0.352824,-0.161528,0.953064,-0.770000,-2.030000,0.350000,19.84
365081,0.355752,-0.163968,0.949648,-0.350000,-2.170000,0.420000,19.82
365092,0.352824,-0.166408,0.947696,-0.070000,-2.380000,0.350000,19.76
365104,0.351360,-0.163480,0.955992,0.280000,-2.730000,0.350000,19.76
365116,0.348920,-0.165920,0.952576,0.840000,-3.290000,0.560000,19.83
365127,0.352824,-0.164944,0.945256,0.840000,-3.430000,0.560000,19.83
365139,0.352336,-0.172752,0.940864,0.840000,-3.360000,0.350000,19.77
365149,0.351360,-0.171288,0.939400,1.610000,-3.430000,0.140000,19.81
365161,0.352824,-0.171288,0.942816,2.310000,-3.500000,-0.140000,19.81
365172,0.358192,-0.169824,0.941840,2.450000,-3.570000,-0.210000,19.83
365183,0.361608,-0.163968,0.939400,2.380000,-3.500000,-0.140000,19.83
365195,0.363560,-0.160552,0.939400,1.400000,-3.150000,0.070000,19.80
365206,0.364048,-0.162504,0.936960,0.980000,-2.730000,0.070000,19.82
365217,0.360144,-0.163480,0.936960,0.630000,-2.590000,0.210000,19.82
365228,0.364048,-0.164456,0.938424,0.490000,-2.310000,0.350000,19.81
365240,0.363072,-0.161528,0.944280,-0.140000,-1.890000,0.490000,19.76
365252,0.363072,-0.163968,0.949160,-0.840000,-1.680000,0.840000,19.76
365263,0.361608,-0.169824,0.945744,-1.260000,-1.540000,0.910000,19.81
365274,0.358680,-0.171288,0.947696,-1.050000,-1.540000,0.770000,19.81
365286,0.352824,-0.173728,0.946720,-0.700000,-1.890000,0.560000,19.82
365298,0.350384,-0.177144,0.946232,0.210000,-2.170000,0.210000,19.81
365309,0.351360,-0.167872,0.946720,0.490000,-2.590000,0.000000,19.81
365320,0.350384,-0.167872,0.946232,0.770000,-2.450000,0.070000,19.80
365332,0.353312,-0.165920,0.940864,0.770000,-2.310000,0.210000,19.80
365343,0.359656,-0.167872,0.941840,0.840000,-2.100000,0.210000,19.87
365354,0.360144,-0.169824,0.941840,0.630000,-2.170000,0.350000,19.83
365368,0.361120,-0.165920,0.942816,0.420000,-2.240000,0.280000,19.83
365379,0.361608,-0.166408,0.946720,0.280000,-2.030000,0.490000,19.83
365390,0.363072,-0.164944,0.949160,-0.560000,-2.030000,0.630000,19.81
365402,0.362096,-0.170800,0.948672,-1.260000,-2.100000,0.420000,19.81
365413,0.357216,-0.179584,0.943792,-1.470000,-2.030000,0.280000,19.82
365424,0.359168,-0.183976,0.942816,-0.420000,-2.100000,-0.070000,19.82
365436,0.358680,-0.181536,0.947208,0.630000,-2.170000,-0.630000,19.82
365447,0.356240,-0.171288,0.949160,1.190000,-2.310000,-0.700000,19.80
365458,0.357216,-0.162504,0.952576,0.420000,-2.520000,-0.630000,19.80
365470,0.356240,-0.159576,0.950624,0.210000,-2.870000,-0.630000,19.81
365481,0.358680,-0.167872,0.949648,-0.210000,-2.870000,-0.630000,19.81
365492,0.353312,-0.165432,0.941840,0.350000,-3.150000,-0.700000,19.77
365504,0.348432,-0.166408,0.938912,1.050000,-3.220000,-0.700000,19.80
365515,0.356240,-0.164944,0.941352,1.610000,-3.430000,-0.420000,19.80
365526,0.357216,-0.164456,0.944768,2.100000,-3.500000,-0.210000,19.82
365537,0.358680,-0.156160,0.947696,1.960000,-3.500000,-0.140000,19.82
365548,0.360144,-0.158112,0.945744,1.540000,-3.360000,0.070000,19.81
365559,0.356728,-0.159088,0.945256,1.050000,-3.220000,0.000000,19.81
365570,0.355752,-0.162016,0.943792,0.910000,-3.220000,0.070000,19.81
365581,0.356240,-0.166408,0.938424,0.980000,-3.220000,0.000000,19.86
365592,0.359168,-0.166896,0.937448,1.610000,-3.290000,0.070000,19.86
365604,0.357216,-0.163480,0.938424,1.890000,-3.220000,0.000000,19.83
365615,0.358680,-0.161040,0.944280,1.610000,-3.150000,0.070000,19.78
365626,0.357216,-0.159576,0.940864,1.050000,-3.080000,0.350000,19.78
365637,0.355264,-0.164944,0.945256,0.630000,-2.940000,0.490000,19.85
365649,0.360632,-0.168848,0.947696,1.050000,-3.080000,0.630000,19.85
365660,0.358192,-0.166896,0.942328,0.980000,-3.150000,0.700000,19.83
365672,0.357704,-0.170800,0.937448,1.260000,-3.080000,0.840000,19.82
365683,0.354288,-0.164456,0.937448,1.400000,-3.290000,0.840000,19.82
365694,0.361608,-0.174704,0.939888,1.680000,-3.430000,0.840000,19.82
365705,0.360144,-0.169336,0.942816,1.750000,-3.220000,0.840000,19.82
365716,0.358192,-0.165920,0.941352,1.260000,-3.220000,0.980000,19.77
365727,0.357704,-0.165432,0.937448,0.420000,-3.570000,1.050000,19.83
365738,0.354288,-0.172264,0.935496,0.210000,-3.570000,0.840000,19.83
365750,0.352824,-0.183488,0.929640,0.770000,-3.430000,0.490000,19.80
365761,0.356240,-0.186416,0.922320,2.030000,-3.220000,0.000000,19.80
365773,0.354776,-0.170800,0.931592,3.220000,-3.010000,-0.350000,19.82
365784,0.355264,-0.169336,0.941352,3.290000,-3.080000,-0.490000,19.81
365795,0.360632,-0.164944,0.940376,2.660000,-2.800000,-0.280000,19.81
365807,0.362584,-0.169336,0.934520,1.610000,-2.310000,-0.280000,19.85
365819,0.358680,-0.166896,0.938424,1.540000,-1.960000,-0.350000,19.81
365830,0.361608,-0.166896,0.940864,1.260000,-1.960000,-0.280000,19.81
365842,0.367464,-0.167872,0.942816,0.910000,-1.750000,-0.210000,19.81
365853,0.365024,-0.164944,0.951600,0.630000,-1.470000,-0.070000,19.81
365865,0.364048,-0.166408,0.957456,-0.140000,-1.610000,0.070000,19.79
365876,0.362096,-0.169336,0.955016,-0.560000,-1.680000,0.280000,19.83
365887,0.359168,-0.179096,0.949160,-0.350000,-1.750000,0.280000,19.83
365898,0.356240,-0.177144,0.953552,0.700000,-2.310000,-0.140000,19.84
365910,0.357216,-0.175192,0.948184,1.330000,-2.590000,-0.280000,19.84
365922,0.355264,-0.169336,0.952088,1.750000,-2.660000,-0.280000,19.84
365934,0.356240,-0.164456,0.955016,1.120000,-3.150000,-0.280000,19.82
365945,0.355264,-0.165920,0.953064,0.910000,-3.290000,-0.210000,19.82
365956,0.357704,-0.170800,0.951600,1.120000,-3.360000,-0.210000,19.84
365967,0.356240,-0.173240,0.944280,1.750000,-3.500000,-0.280000,19.84
365978,0.355264,-0.167384,0.945744,1.960000,-3.570000,-0.420000,19.77
365990,0.355752,-0.164456,0.948184,1.680000,-3.500000,-0.490000,19.84
366000,0.359656,-0.165432,0.949648,1.330000,-3.570000,-0.560000,19.84
366012,0.359168,-0.169336,0.943792,1.050000,-3.220000,-0.560000,19.80
366023,0.358192,-0.165920,0.937448,0.910000,-3.010000,-0.280000,19.80
366034,0.358680,-0.164944,0.933544,0.700000,-2.730000,-0.420000,19.84
366046,0.359168,-0.170312,0.936960,0.910000,-2.590000,-0.630000,19.80
366057,0.362096,-0.169824,0.942328,1.260000,-2.660000,-0.560000,19.80
366068,0.360632,-0.164944,0.943304,1.470000,-2.380000,-0.420000,19.84
366079,0.356728,-0.162992,0.944768,0.770000,-2.380000,-0.280000,19.82
366091,0.357216,-0.164456,0.946232,0.140000,-2.450000,-0.280000,19.82
366102,0.357704,-0.166896,0.937936,-0.210000,-2.450000,-0.350000,19.82
366114,0.357216,-0.175680,0.938912,0.490000,-2.520000,-0.560000,19.82
366125,0.357216,-0.172264,0.935496,1.400000,-2.660000,-0.700000,19.81
366136,0.358680,-0.168360,0.931592,1.820000,-2.730000,-0.770000,19.81
366147,0.361608,-0.163480,0.934520,1.330000,-2.870000,-0.770000,19.81
366159,0.364048,-0.172752,0.935496,1.330000,-2.660000,-0.910000,19.80
366170,0.357704,-0.167872,0.935008,1.750000,-2.590000,-0.770000,19.80
366181,0.360632,-0.165920,0.935496,1.680000,-2.730000,-0.980000,19.84
366193,0.362584,-0.165920,0.936472,2.030000,-2.660000,-1.120000,19.86
366204,0.361608,-0.162504,0.936960,1.750000,-2.520000,-1.190000,19.86
366216,0.361608,-0.160552,0.933056,1.540000,-2.590000,-1.120000,19.79
366227,0.358192,-0.156160,0.930616,1.400000,-2.310000,-0.980000,19.79
366238,0.361120,-0.160064,0.929640,1.190000,-2.100000,-0.910000,19.84
366250,0.356728,-0.160064,0.935984,1.330000,-2.170000,-0.840000,19.81
366261,0.361120,-0.163968,0.942328,1.750000,-2.030000,-0.770000,19.81
366273,0.361608,-0.161040,0.942328,1.960000,-2.030000,-0.630000,19.86
366284,0.364048,-0.160552,0.941840,2.030000,-1.820000,-0.560000,19.86
366295,0.363072,-0.156648,0.944280,1.750000,-1.610000,-0.630000,19.82
366306,0.357704,-0.153232,0.946720,1.190000,-1.750000,-0.280000,19.80
366318,0.357704,-0.158112,0.944280,0.560000,-1.890000,0.000000,19.80
366329,0.358680,-0.165432,0.936960,0.560000,-2.030000,0.000000,19.81
366341,0.368928,-0.165432,0.942328,1.050000,-1.540000,0.070000,19.82
366352,0.363560,-0.165432,0.946232,2.030000,-0.910000,0.420000,19.82
366363,0.359656,-0.155672,0.948184,1.470000,-1.960000,-0.070000,19.84
366375,0.357704,-0.162016,0.950136,0.770000,-2.030000,0.350000,19.84
366386,0.361608,-0.164944,0.946720,0.490000,-2.030000,0.210000,19.80
366398,0.363072,-0.171288,0.944280,0.700000,-1.890000,0.000000,19.79
366409,0.361120,-0.170800,0.944280,1.470000,-1.540000,-0.280000,19.79
366421,0.356240,-0.165920,0.941840,2.030000,-1.820000,-0.560000,19.82
366432,0.357216,-0.161040,0.942328,2.170000,-2.030000,-0.630000,19.82
366443,0.358192,-0.162504,0.944280,1.960000,-1.890000,-0.560000,19.84
366454,0.365512,-0.161528,0.954040,1.540000,-1.820000,-0.280000,19.84
366466,0.362096,-0.156648,0.956480,1.120000,-1.610000,0.000000,19.84
366477,0.359656,-0.153232,0.956968,0.280000,-1.820000,0.070000,19.83
366488,0.358680,-0.159088,0.955504,0.070000,-1.820000,0.210000,19.83
366500,0.359168,-0.162504,0.958920,0.070000,-1.890000,0.350000,19.82
366511,0.357216,-0.168848,0.954040,0.770000,-1.890000,0.490000,19.83
366522,0.356240,-0.161528,0.956480,1.050000,-2.170000,0.280000,19.83
366534,0.357216,-0.159576,0.958432,0.770000,-2.310000,0.350000,19.80
366545,0.356240,-0.158600,0.956968,0.350000,-2.590000,0.490000,19.80
366557,0.352336,-0.164456,0.951112,0.210000,-2.730000,0.490000,19.81
366568,0.350872,-0.164456,0.949160,0.840000,-3.010000,0.420000,19.86
366579,0.351360,-0.165920,0.953064,1.260000,-3.080000,0.280000,19.86
366590,0.348920,-0.167872,0.953552,1.610000,-3.360000,0.140000,19.81
366602,0.353312,-0.165432,0.950624,1.890000,-3.640000,0.350000,19.83
366614,0.349896,-0.163480,0.946720,2.450000,-3.640000,0.210000,19.83
366625,0.351848,-0.162504,0.944280,2.590000,-3.850000,0.070000,19.87
366636,0.357216,-0.162016,0.940376,2.520000,-3.710000,0.140000,19.87
366647,0.364536,-0.159088,0.945744,1.890000,-3.500000,0.140000,19.84
366658,0.360144,-0.159088,0.947696,1.400000,-3.150000,0.280000,19.84
366669,0.361120,-0.155672,0.941352,1.190000,-3.080000,0.490000,19.84
366681,0.361608,-0.163968,0.935496,0.560000,-2.800000,0.560000,19.84
366692,0.362096,-0.170800,0.936960,0.490000,-2.520000,0.420000,19.84
366704,0.361120,-0.169824,0.944280,0.910000,-2.380000,0.490000,19.82
366716,0.361608,-0.162016,0.945256,0.910000,-2.310000,0.490000,19.84
366727,0.360632,-0.159088,0.944280,-0.210000,-2.030000,0.560000,19.84
366739,0.361608,-0.163480,0.943792,-0.770000,-2.100000,0.490000,19.86
366750,0.358680,-0.169336,0.949648,-0.490000,-2.100000,0.280000,19.86
366762,0.357216,-0.170312,0.949648,0.140000,-2.310000,0.280000,19.83
366773,0.357704,-0.171776,0.950624,0.630000,-2.380000,0.140000,19.84
366785,0.358192,-0.168360,0.948184,0.980000,-2.660000,0.070000,19.84
366797,0.357216,-0.166896,0.945744,1.050000,-3.150000,-0.070000,19.82
366808,0.357704,-0.170800,0.944768,1.260000,-3.150000,-0.140000,19.80
366819,0.358680,-0.167872,0.945256,2.030000,-3.220000,-0.280000,19.80
366830,0.356240,-0.157136,0.945256,2.100000,-3.290000,-0.280000,19.85
366842,0.359168,-0.158600,0.938912,1.680000,-3.150000,-0.140000,19.85
366853,0.358680,-0.160064,0.939400,1.470000,-3.010000,-0.070000,19.86
366865,0.360144,-0.159088,0.941840,1.750000,-2.940000,0.000000,19.82
366876,0.361608,-0.156648,0.945744,1.750000,-2.730000,0.210000,19.82
366887,0.363560,-0.157136,0.942816,1.050000,-2.590000,0.280000,19.83
366898,0.360632,-0.158112,0.945256,0.560000,-2.380000,0.490000,19.83
366910,0.358192,-0.159576,0.945744,0.210000,-2.310000,0.560000,19.84
366921,0.359656,-0.165920,0.941352,0.140000,-2.100000,0.630000,19.76
366932,0.359168,-0.162992,0.940864,0.280000,-2.030000,0.560000,19.76
366943,0.358680,-0.165432,0.948184,0.210000,-2.030000,0.420000,19.86
366955,0.353800,-0.160064,0.950624,0.560000,-2.380000,0.280000,19.86
366966,0.350384,-0.160064,0.954040,0.280000,-2.660000,0.350000,19.83
366977,0.356240,-0.169824,0.945744,0.630000,-2.870000,0.490000,19.86
366989,0.358192,-0.168360,0.941352,0.980000,-2.800000,0.280000,19.86
367000,0.358192,-0.167872,0.944280,1.120000,-2.870000,0.140000,19.84
367011,0.356728,-0.165432,0.949648,0.910000,-3.010000,0.280000,19.84
367023,0.356240,-0.167384,0.946232,0.700000,-3.360000,0.350000,19.82
367035,0.357704,-0.170312,0.935984,0.840000,-3.220000,0.350000,19.82
367046,0.359656,-0.171776,0.933056,0.980000,-2.940000,-0.140000,19.82
367058,0.355752,-0.168360,0.938912,1.820000,-2.870000,-0.420000,19.84
367070,0.356728,-0.165432,0.942328,2.240000,-2.870000,-0.560000,19.84
367081,0.357704,-0.159088,0.939888,1.890000,-2.730000,-0.210000,19.84
367093,0.361120,-0.162016,0.941840,1.050000,-2.520000,0.000000,19.88
367105,0.357704,-0.159088,0.948184,0.770000,-2.520000,0.210000,19.88
367116,0.360632,-0.158600,0.944280,0.560000,-2.240000,0.280000,19.82
367127,0.356240,-0.161528,0.939888,0.560000,-2.170000,0.280000,19.79
367138,0.351360,-0.161528,0.941352,0.280000,-2.100000,0.280000,19.79
367150,0.356728,-0.169336,0.941840,0.770000,-2.170000,0.140000,19.88
367161,0.359168,-0.167384,0.950136,1.400000,-2.240000,0.210000,19.88
367173,0.358192,-0.161528,0.951112,1.190000,-2.240000,0.420000,19.86
367184,0.359168,-0.157136,0.949160,0.630000,-2.310000,0.630000,19.83
367196,0.354288,-0.160064,0.945256,-0.280000,-2.450000,0.700000,19.83
367208,0.349408,-0.166408,0.944280,-0.210000,-2.730000,0.560000,19.84
367219,0.351848,-0.171288,0.944768,0.840000,-2.870000,0.490000,19.83
367230,0.349896,-0.173240,0.940376,1.820000,-2.870000,0.350000,19.83
367242,0.349896,-0.165432,0.940376,2.590000,-3.010000,0.280000,19.81
367253,0.357216,-0.162992,0.942328,2.660000,-2.940000,0.280000,19.81
367265,0.354776,-0.158600,0.947208,2.170000,-2.870000,0.420000,19.86
367276,0.354776,-0.154208,0.948184,0.980000,-2.940000,0.840000,19.77
367287,0.357216,-0.162504,0.946720,0.490000,-2.870000,0.840000,19.77
367299,0.359168,-0.170312,0.940864,0.700000,-2.590000,0.770000,19.84
367311,0.359168,-0.165432,0.941840,0.700000,-2.380000,0.840000,19.84
367323,0.359656,-0.170312,0.940376,0.490000,-2.170000,0.700000,19.84
367334,0.363072,-0.172752,0.941840,0.560000,-1.890000,0.560000,19.86
367346,0.360144,-0.170800,0.945256,0.280000,-1.890000,0.560000,19.86
367357,0.359168,-0.169824,0.947208,0.070000,-1.820000,0.490000,19.84
367369,0.360144,-0.171776,0.950624,-0.070000,-1.820000,0.490000,19.87
367380,0.360144,-0.176168,0.948672,-0.140000,-1.750000,0.350000,19.87
367392,0.359656,-0.174216,0.950136,-0.070000,-1.680000,0.210000,19.86
367403,0.357704,-0.170800,0.946720,-0.140000,-1.890000,-0.140000,19.86
367415,0.355264,-0.174704,0.948672,-0.350000,-2.170000,-0.630000,19.86
367427,0.355264,-0.174216,0.949160,-0.070000,-2.310000,-0.770000,19.84
367438,0.357704,-0.177632,0.954040,0.350000,-2.520000,-0.910000,19.84
367449,0.356728,-0.169824,0.953064,0.840000,-2.730000,-1.120000,19.85
367461,0.358192,-0.166896,0.948672,1.050000,-2.940000,-1.050000,19.83
367472,0.357704,-0.166408,0.948184,1.260000,-3.010000,-0.840000,19.83
367484,0.358192,-0.154696,0.947696,1.190000,-3.360000,-0.700000,19.86
367495,0.357216,-0.155672,0.945744,0.910000,-3.150000,-0.630000,19.86
367506,0.356728,-0.158112,0.945256,0.840000,-3.220000,-0.630000,19.85
367518,0.357216,-0.158600,0.942816,0.980000,-3.220000,-0.700000,19.82
367529,0.355752,-0.156648,0.940864,1.190000,-3.220000,-0.630000,19.82
367541,0.358192,-0.160064,0.940376,1.120000,-3.290000,-0.490000,19.87
367553,0.357216,-0.160552,0.941352,1.680000,-3.360000,-0.350000,19.87
367564,0.361608,-0.156160,0.935496,1.680000,-3.360000,-0.420000,19.86
367576,0.355264,-0.156648,0.936960,1.540000,-2.940000,-0.350000,19.83
367587,0.358680,-0.159576,0.938424,1.470000,-2.800000,-0.070000,19.83
367599,0.358680,-0.152744,0.940376,1.190000,-2.590000,0.420000,19.86
367610,0.361120,-0.149328,0.935984,-0.070000,-2.310000,0.840000,19.79
367621,0.359656,-0.157136,0.934520,-0.700000,-1.960000,1.050000,19.79
367633,0.357704,-0.164944,0.932568,-0.840000,-1.820000,1.190000,19.88
367644,0.359168,-0.172752,0.935008,-0.420000,-1.610000,1.120000,19.88
367655,0.356728,-0.168848,0.938912,0.700000,-1.680000,0.980000,19.88
367668,0.362584,-0.167872,0.943792,0.490000,-2.030000,0.840000,19.87
367679,0.361120,-0.164944,0.948672,-0.070000,-1.890000,0.770000,19.87
367691,0.354288,-0.166408,0.949160,-0.210000,-2.030000,0.560000,19.88
367703,0.350872,-0.171776,0.945256,0.000000,-2.450000,0.140000,19.88
367714,0.349408,-0.176168,0.937448,0.980000,-2.730000,-0.280000,19.83
367726,0.354776,-0.173728,0.935496,2.450000,-2.660000,-0.560000,19.83
367738,0.355264,-0.165432,0.938912,2.660000,-2.520000,-0.490000,19.83
367749,0.358192,-0.156160,0.944280,1.890000,-2.380000,-0.280000,19.87
367761,0.356728,-0.159088,0.939400,1.050000,-1.960000,0.000000,19.84
367772,0.357704,-0.170312,0.939888,0.910000,-1.820000,0.210000,19.84
367784,0.360144,-0.169336,0.943792,1.190000,-1.540000,0.210000,19.85
367796,0.360632,-0.160552,0.947696,0.770000,-1.400000,0.350000,19.85
367807,0.359656,-0.161528,0.949648,-0.140000,-1.400000,0.420000,19.78
367818,0.355264,-0.165920,0.952088,-0.700000,-1.610000,0.350000,19.86
367830,0.354776,-0.170800,0.951112,-0.840000,-1.960000,0.350000,19.86
367841,0.348920,-0.176656,0.954528,0.140000,-2.240000,0.210000,19.86
367853,0.346480,-0.174704,0.953552,1.050000,-2.590000,0.070000,19.80
367865,0.349896,-0.172752,0.951112,1.680000,-3.150000,0.070000,19.80
367877,0.351360,-0.170312,0.950624,1.890000,-3.290000,-0.070000,19.84
367889,0.354288,-0.170800,0.951112,1.960000,-3.290000,-0.070000,19.84
367900,0.358680,-0.169336,0.953552,1.960000,-3.430000,0.140000,19.86
367912,0.359168,-0.168848,0.948184,1.680000,-3.290000,0.070000,19.83
367924,0.355264,-0.171776,0.940864,1.890000,-3.080000,0.140000,19.83
367935,0.359656,-0.168360,0.943304,1.610000,-3.150000,-0.350000,19.84
367947,0.357216,-0.165432,0.941840,1.260000,-3.010000,-0.350000,19.83
367959,0.357216,-0.164944,0.940376,0.700000,-2.660000,-0.070000,19.83
367971,0.359168,-0.167384,0.940376,0.630000,-2.310000,0.000000,19.83
367982,0.358192,-0.166896,0.945744,0.350000,-2.310000,0.070000,19.83
367994,0.356728,-0.171288,0.945256,0.420000,-2.310000,0.000000,19.83
368005,0.357704,-0.168848,0.946232,0.840000,-2.240000,-0.140000,19.85
368017,0.357704,-0.161528,0.949160,0.420000,-2.100000,0.070000,19.85
368028,0.356240,-0.165432,0.953552,-0.140000,-2.380000,0.210000,19.84
368040,0.354288,-0.167384,0.946720,-0.350000,-2.660000,0.000000,19.85
368052,0.355752,-0.173240,0.947696,0.350000,-2.520000,0.000000,19.85
368064,0.360632,-0.171288,0.949648,0.840000,-2.450000,-0.070000,19.86
368075,0.353800,-0.168848,0.949160,0.910000,-2.800000,-0.070000,19.86
368087,0.354288,-0.167872,0.943304,0.490000,-3.010000,-0.350000,19.77
368099,0.352824,-0.175192,0.945256,0.840000,-3.290000,-0.700000,19.84
368111,0.355752,-0.172264,0.945744,2.170000,-3.360000,-0.840000,19.84
368123,0.361120,-0.164456,0.944768,2.240000,-3.220000,-0.910000,19.85
368134,0.360144,-0.155184,0.940376,1.330000,-3.430000,-0.700000,19.84
368146,0.360144,-0.162504,0.938424,1.050000,-3.430000,-0.630000,19.84
368158,0.359656,-0.162016,0.938424,0.700000,-3.080000,-0.420000,19.84
368169,0.363072,-0.170312,0.935008,1.330000,-2.730000,-0.350000,19.83
368181,0.360632,-0.159576,0.940376,1.190000,-2.520000,-0.140000,19.83
368193,0.358680,-0.157136,0.940376,0.700000,-2.380000,-0.070000,19.85
368204,0.355752,-0.152256,0.937448,0.070000,-2.380000,0.000000,19.85
368216,0.355752,-0.159088,0.939888,-0.140000,-2.170000,0.000000,19.86
368228,0.357704,-0.162992,0.945256,0.210000,-2.240000,0.140000,19.81
368239,0.360632,-0.165432,0.940376,0.630000,-2.030000,0.070000,19.81
368251,0.355752,-0.159576,0.939400,0.770000,-2.030000,0.210000,19.84
368262,0.352824,-0.158600,0.942816,0.630000,-2.030000,0.420000,19.84
368273,0.351360,-0.162504,0.945744,0.280000,-2.240000,0.490000,19.81
368285,0.356240,-0.168360,0.946720,0.280000,-2.240000,0.560000,19.83
368296,0.355752,-0.169336,0.945744,0.490000,-2.240000,0.840000,19.83
368307,0.357704,-0.168848,0.944280,0.490000,-2.450000,0.910000,19.88
368319,0.356240,-0.172264,0.943792,0.490000,-2.380000,0.700000,19.86
368330,0.355752,-0.169824,0.941840,0.630000,-2.590000,0.490000,19.86
368342,0.359656,-0.172264,0.943304,0.210000,-2.660000,0.420000,19.87
368354,0.356728,-0.174704,0.949648,0.280000,-2.730000,0.420000,19.87
368367,0.353312,-0.175192,0.945256,0.210000,-2.870000,0.140000,19.83
368379,0.348432,-0.175680,0.942328,1.330000,-3.080000,-0.280000,19.85
368391,0.350872,-0.171776,0.937936,2.100000,-3.150000,-0.700000,19.85
368402,0.352824,-0.174216,0.938424,2.800000,-3.010000,-0.770000,19.84
368414,0.357704,-0.165432,0.942328,2.870000,-2.940000,-0.700000,19.82
368425,0.353800,-0.154208,0.941840,2.240000,-2.660000,-0.490000,19.82
368437,0.358680,-0.158112,0.940376,0.840000,-2.310000,-0.140000,19.87
368449,0.358192,-0.165432,0.942328,0.350000,-2.100000,0.000000,19.87
368460,0.360632,-0.167872,0.943304,0.420000,-1.750000,0.280000,19.87
368472,0.357704,-0.168360,0.944280,0.560000,-1.680000,0.280000,19.79
368483,0.357704,-0.164944,0.949648,0.140000,-1.890000,0.140000,19.79
368495,0.357216,-0.168360,0.943792,-0.350000,-1.960000,0.280000,19.82
368506,0.360144,-0.170312,0.945744,-0.700000,-2.030000,0.280000,19.82
368517,0.356240,-0.179096,0.953552,-0.420000,-1.960000,0.350000,19.82
368529,0.354288,-0.175192,0.952576,0.490000,-2.030000,0.490000,19.86
368541,0.349896,-0.164456,0.951112,0.560000,-2.380000,0.560000,19.86
368552,0.352824,-0.163968,0.951600,0.070000,-2.520000,0.420000,19.82
368564,0.352824,-0.165432,0.953064,-0.700000,-2.520000,0.490000,19.79
368576,0.353800,-0.176168,0.945744,-0.140000,-2.450000,0.140000,19.79
368588,0.349896,-0.178120,0.942328,1.120000,-2.730000,-0.070000,19.86
368600,0.348920,-0.170800,0.941840,2.310000,-3.010000,-0.070000,19.86
368611,0.353800,-0.167384,0.940864,2.590000,-3.150000,0.070000,19.86
368622,0.359168,-0.163968,0.945744,2.100000,-3.010000,0.000000,19.87
368634,0.364048,-0.163968,0.946720,1.260000,-2.660000,0.210000,19.87
368646,0.359168,-0.154696,0.941352,0.140000,-2.310000,0.560000,19.83
368657,0.359656,-0.164456,0.939400,-0.910000,-2.170000,0.420000,19.86
368669,0.355264,-0.169336,0.928664,-0.490000,-2.030000,0.420000,19.86
368681,0.359656,-0.169824,0.928664,0.070000,-1.890000,0.420000,19.80
368693,0.366000,-0.176168,0.943304,0.280000,-1.750000,0.700000,19.86
368704,0.362584,-0.166408,0.948672,0.070000,-1.400000,1.050000,19.86
368716,0.358680,-0.163480,0.946232,-0.910000,-1.330000,1.470000,19.84
368727,0.353800,-0.173240,0.939400,-1.050000,-1.610000,1.400000,19.84
368738,0.354288,-0.183000,0.933544,-0.560000,-1.820000,0.700000,19.90
368750,0.353800,-0.184952,0.936472,0.700000,-1.960000,0.280000,19.83
368761,0.355752,-0.178608,0.935984,0.700000,-2.100000,-0.140000,19.83
368773,0.356728,-0.178608,0.940376,0.910000,-2.240000,-0.280000,19.82
368784,0.356240,-0.174216,0.943792,1.050000,-2.030000,-0.560000,19.82
368796,0.351360,-0.175192,0.938912,1.820000,-2.240000,-0.980000,19.86
368808,0.354776,-0.174704,0.936960,2.310000,-1.540000,0.000000,19.86
368819,0.350872,-0.163480,0.933544,2.240000,-1.750000,-0.700000,19.86
368830,0.351360,-0.161040,0.936960,1.680000,-1.890000,-0.770000,19.86
368842,0.356728,-0.158112,0.940376,1.400000,-1.680000,-0.280000,19.83
368854,0.356240,-0.156160,0.940376,0.700000,-1.400000,0.070000,19.83
368866,0.357704,-0.159576,0.950624,-0.210000,-0.770000,0.770000,19.88
368877,0.353800,-0.169336,0.956968,0.140000,-0.490000,0.910000,19.88
368888,0.349896,-0.158600,0.954528,0.210000,-0.980000,1.120000,19.80
368900,0.353312,-0.166896,0.947696,0.070000,-0.980000,1.330000,19.83
368912,0.351848,-0.162016,0.947696,-0.210000,-1.120000,1.610000,19.83
368923,0.350872,-0.157136,0.950136,-1.190000,-1.260000,1.960000,19.84
368934,0.347944,-0.174216,0.958920,-0.210000,-1.120000,1.960000,19.83
368946,0.349408,-0.160552,0.958432,0.280000,-1.330000,2.520000,19.83
368958,0.343552,-0.163480,0.958432,-0.420000,-1.610000,2.870000,19.85
368970,0.342576,-0.169824,0.962824,-0.980000,-1.960000,2.800000,19.85
368981,0.338672,-0.183000,0.959896,-0.980000,-2.450000,2.870000,19.81
368993,0.346968,-0.195200,0.947696,0.630000,-2.870000,2.590000,19.82
369004,0.345504,-0.186416,0.946232,1.820000,-3.010000,2.240000,19.82
369016,0.345504,-0.176656,0.946720,1.890000,-3.080000,2.100000,19.87
369027,0.347456,-0.180560,0.952088,0.770000,-3.290000,1.680000,19.87
369039,0.347944,-0.185440,0.949160,-0.070000,-3.500000,1.680000,19.82
369050,0.345504,-0.192272,0.944280,-0.140000,-3.500000,1.610000,19.86
369062,0.344528,-0.200568,0.931104,1.610000,-3.500000,0.630000,19.86
369074,0.346968,-0.193736,0.927200,3.710000,-3.570000,0.140000,19.90
369087,0.348432,-0.185928,0.931104,4.130000,-3.500000,0.070000,19.79
369098,0.348432,-0.172264,0.936960,3.570000,-3.220000,0.070000,19.79
369110,0.349408,-0.168848,0.933056,2.170000,-2.730000,0.140000,19.85
369121,0.352336,-0.166408,0.923784,-0.140000,-2.030000,0.140000,19.85
369133,0.357216,-0.180560,0.916464,-1.120000,-1.050000,0.280000,19.85
369145,0.352824,-0.185440,0.920856,-0.700000,-0.210000,0.070000,19.85
369156,0.351360,-0.181048,0.924760,0.560000,0.490000,0.420000,19.85
369168,0.346480,-0.165432,0.932568,0.840000,0.700000,0.420000,19.87
369179,0.350872,-0.166408,0.942816,0.140000,0.700000,0.840000,19.80
369192,0.355264,-0.163480,0.949160,-1.540000,0.840000,1.190000,19.80
369203,0.348432,-0.167872,0.949648,-2.940000,0.840000,1.050000,19.85
369215,0.347944,-0.181536,0.948672,-3.430000,1.470000,1.470000,19.83
369226,0.334768,-0.185928,0.946720,-1.960000,0.980000,0.700000,19.83
369238,0.340136,-0.182512,0.946720,-1.540000,0.210000,0.000000,19.85
369249,0.348920,-0.183488,0.959408,-2.310000,0.350000,0.000000,19.85
369260,0.347456,-0.199592,0.966728,-2.170000,0.350000,-0.140000,19.87
369272,0.340624,-0.200080,0.965752,-0.140000,0.210000,-0.280000,19.79
369284,0.336232,-0.180560,0.957944,1.610000,-0.700000,-0.210000,19.79
369296,0.336720,-0.178608,0.963312,1.470000,-1.400000,-0.490000,19.86
369308,0.340136,-0.176656,0.973560,1.190000,-1.680000,-0.630000,19.81
369319,0.341112,-0.180560,0.975512,0.840000,-2.240000,-0.700000,19.81
369331,0.339648,-0.179584,0.969168,0.840000,-2.310000,-0.980000,19.87
369343,0.338672,-0.185440,0.960872,1.820000,-2.520000,-1.190000,19.87
369354,0.339648,-0.173728,0.958920,1.960000,-2.870000,-0.980000,19.86
369366,0.344040,-0.167384,0.952576,0.840000,-3.010000,-0.630000,19.86
369377,0.349896,-0.182024,0.953064,0.630000,-2.450000,-0.560000,19.86
369389,0.346480,-0.181536,0.948184,1.330000,-2.170000,-0.350000,19.87
369400,0.344040,-0.169824,0.947696,1.470000,-2.170000,0.140000,19.87
369411,0.346480,-0.164456,0.951600,0.840000,-2.030000,0.420000,19.84
369422,0.341112,-0.161528,0.953064,-0.350000,-2.100000,0.630000,19.87
369434,0.339160,-0.173240,0.954528,-1.050000,-1.890000,0.630000,19.87
369446,0.346480,-0.181536,0.948184,-1.120000,-1.820000,0.770000,19.85
369457,0.341112,-0.182512,0.944768,0.000000,-1.820000,0.910000,19.83
369469,0.340136,-0.177632,0.938912,0.770000,-2.030000,0.700000,19.83
369480,0.341112,-0.181048,0.933544,0.980000,-1.890000,0.630000,19.88
369491,0.343064,-0.173728,0.929640,0.630000,-1.750000,0.770000,19.88
369502,0.343064,-0.177632,0.936960,-0.140000,-1.610000,0.700000,19.84
369514,0.339160,-0.183488,0.940864,0.070000,-1.610000,0.350000,19.86
369525,0.340136,-0.187392,0.945256,0.630000,-1.680000,-0.070000,19.86
369537,0.338672,-0.186904,0.947208,1.680000,-1.540000,0.070000,19.82
369549,0.342576,-0.176168,0.946720,1.260000,-1.610000,0.070000,19.82
369561,0.339648,-0.174704,0.945256,0.560000,-1.610000,0.280000,19.87
369572,0.341600,-0.178120,0.946720,0.350000,-1.330000,0.350000,19.86
369584,0.342088,-0.179584,0.948184,0.350000,-1.050000,0.490000,19.86
369595,0.334768,-0.174216,0.940864,0.280000,-0.980000,0.700000,19.89
369607,0.334280,-0.175680,0.937936,-0.280000,-0.840000,0.770000,19.86
369618,0.337696,-0.181048,0.940864,-0.210000,-0.980000,0.840000,19.86
369629,0.344040,-0.183488,0.950136,0.140000,-0.770000,0.910000,19.86
369641,0.345992,-0.183976,0.953552,-0.070000,-0.700000,1.120000,19.86
369653,0.340136,-0.186904,0.943304,-0.070000,-0.560000,1.120000,19.85
369664,0.332816,-0.188368,0.940864,0.420000,-0.560000,0.910000,19.85
369676,0.332816,-0.192272,0.941352,0.980000,-0.840000,0.770000,19.85
369687,0.338672,-0.192272,0.951112,1.750000,-0.840000,0.560000,19.85
369699,0.336720,-0.175680,0.948672,1.750000,-0.840000,0.490000,19.85
369711,0.337208,-0.171288,0.947208,0.700000,-0.840000,0.700000,19.89
369722,0.334280,-0.178608,0.945744,-0.980000,-1.190000,0.490000,19.82
369733,0.329400,-0.192272,0.947208,-0.560000,-1.610000,0.280000,19.82
369745,0.333792,-0.205936,0.946232,0.280000,-1.680000,-0.420000,19.82
369757,0.328424,-0.200080,0.942816,2.380000,-1.610000,-0.840000,19.84
369768,0.332328,-0.188368,0.935008,3.570000,-1.400000,-1.260000,19.84
369779,0.337696,-0.174704,0.942816,3.500000,-1.540000,-1.190000,19.87
369791,0.340136,-0.169336,0.945744,2.240000,-1.190000,-0.700000,19.87
369803,0.338672,-0.172752,0.954528,1.190000,-0.980000,-0.560000,19.86
369814,0.345504,-0.182512,0.953552,0.000000,-0.630000,0.070000,19.84
369825,0.336232,-0.189344,0.953064,0.560000,-0.070000,0.000000,19.84
369837,0.336232,-0.185928,0.953064,1.120000,-0.630000,-0.420000,19.84
369849,0.336720,-0.169336,0.952088,0.420000,-0.490000,0.070000,19.84
369861,0.333304,-0.177144,0.962336,-0.070000,-0.350000,-0.070000,19.86
369872,0.326472,-0.174216,0.964288,-0.700000,-0.560000,0.210000,19.84
369884,0.329400,-0.180560,0.960384,-1.260000,-1.050000,0.490000,19.84
369895,0.326472,-0.198616,0.961848,0.280000,-1.260000,0.140000,19.90
369907,0.322568,-0.184464,0.965752,1.540000,-1.960000,0.000000,19.86
369918,0.326472,-0.175192,0.967216,0.980000,-2.660000,0.000000,19.86
369930,0.323056,-0.181048,0.965752,1.400000,-2.870000,0.000000,19.88
369941,0.324520,-0.175680,0.962336,1.680000,-3.290000,0.000000,19.88
369953,0.326960,-0.178120,0.955992,1.330000,-3.570000,0.140000,19.89
369964,0.326960,-0.190320,0.953064,2.660000,-3.640000,-0.070000,19.87
369976,0.329400,-0.179096,0.949648,3.150000,-3.640000,0.280000,19.87
369987,0.329888,-0.178120,0.950624,2.870000,-3.430000,0.630000,19.86
369999,0.334280,-0.170312,0.949160,1.610000,-3.150000,0.980000,19.83
370010,0.338184,-0.187392,0.947208,0.490000,-2.800000,0.700000,19.83
370022,0.329888,-0.185928,0.948672,1.050000,-2.590000,1.190000,19.82
370033,0.331840,-0.188368,0.945256,1.190000,-2.730000,0.980000,19.82
370045,0.330376,-0.185928,0.947696,2.170000,-2.520000,1.050000,19.83
370056,0.331352,-0.174216,0.956968,1.120000,-2.450000,0.910000,19.82
370068,0.332816,-0.178608,0.961360,0.070000,-2.380000,1.050000,19.82
370079,0.329888,-0.183976,0.959896,-0.490000,-2.170000,1.190000,19.82
370091,0.330376,-0.183976,0.949648,-0.840000,-2.030000,0.910000,19.82
370103,0.324032,-0.194712,0.942328,0.140000,-1.890000,0.700000,19.86
370114,0.321104,-0.195200,0.943304,2.100000,-2.240000,0.350000,19.89
370127,0.327448,-0.183000,0.949648,2.520000,-2.660000,0.280000,19.89
370139,0.331840,-0.176656,0.951600,1.470000,-2.660000,0.420000,19.87
370150,0.331840,-0.180072,0.952576,0.280000,-2.310000,0.350000,19.86
370161,0.329400,-0.184464,0.949160,-0.280000,-2.100000,0.210000,19.86
370173,0.325984,-0.190808,0.946232,0.210000,-2.170000,0.000000,19.88
370184,0.326472,-0.197640,0.941352,1.330000,-2.100000,-0.630000,19.88
370196,0.329888,-0.190808,0.943792,2.030000,-2.170000,-0.770000,19.84
370208,0.334768,-0.175192,0.948184,1.050000,-2.030000,-0.700000,19.85
370220,0.333304,-0.183488,0.951112,0.560000,-1.680000,-0.490000,19.85
370231,0.331840,-0.184952,0.950624,0.140000,-1.540000,-0.420000,19.86
370243,0.330864,-0.184464,0.948672,0.420000,-1.470000,-0.280000,19.84
370254,0.332328,-0.186416,0.949648,0.560000,-1.540000,-0.210000,19.84
370266,0.335744,-0.186416,0.950624,0.700000,-1.330000,-0.210000,19.86
370277,0.335256,-0.179584,0.947696,0.770000,-1.190000,-0.280000,19.86
370289,0.330864,-0.173240,0.951112,0.490000,-1.330000,-0.210000,19.84
370300,0.328912,-0.176656,0.954040,-0.280000,-1.470000,-0.210000,19.86
370311,0.329888,-0.181048,0.955992,-0.070000,-1.680000,-0.210000,19.86
370323,0.328424,-0.183000,0.954528,0.280000,-1.820000,-0.070000,19.89
370335,0.319640,-0.182512,0.953552,0.980000,-2.030000,0.140000,19.89
370346,0.326960,-0.179584,0.951600,1.190000,-2.450000,0.350000,19.89
370358,0.330864,-0.177144,0.953552,0.980000,-2.520000,0.420000,19.84
370370,0.331352,-0.184464,0.950624,1.610000,-1.820000,1.120000,19.84
370381,0.334280,-0.178120,0.949160,0.770000,-2.730000,0.490000,19.89
370393,0.326960,-0.184952,0.951600,1.050000,-2.590000,0.700000,19.86
370405,0.325496,-0.182512,0.951112,0.980000,-2.870000,0.420000,19.86
370416,0.322080,-0.191784,0.954528,1.330000,-3.010000,0.140000,19.87
370428,0.326472,-0.202032,0.953064,2.870000,-2.730000,0.140000,19.86
370439,0.326472,-0.185440,0.954528,3.360000,-3.010000,-0.350000,19.86
370451,0.328912,-0.183000,0.958920,2.800000,-3.080000,-0.350000,19.87
370463,0.329400,-0.175680,0.962336,1.680000,-2.660000,-0.280000,19.87
370475,0.325496,-0.177144,0.956480,1.050000,-2.520000,17.780001,19.87
370486,0.325984,-0.179096,0.958920,0.560000,-2.520000,0.280000,19.86
370498,0.327936,-0.183000,0.959408,0.840000,-2.590000,0.490000,19.86
370509,0.330376,-0.186416,0.960384,1.050000,-2.450000,0.490000,19.86
370521,0.329888,-0.187880,0.965752,1.330000,-2.240000,0.490000,19.83
370532,0.325008,-0.181048,0.969656,0.630000,-2.590000,0.420000,19.83
370544,0.320128,-0.187392,0.963312,0.770000,-3.080000,0.490000,19.83
370555,0.319640,-0.185928,0.954040,1.050000,-3.500000,0.280000,19.83
370566,0.323544,-0.188368,0.951112,1.680000,-3.850000,0.070000,19.87
370578,0.328912,-0.188856,0.952576,2.170000,-3.780000,0.000000,19.86
370589,0.327448,-0.180072,0.958920,2.100000,-3.500000,-0.070000,19.86
370601,0.322568,-0.182024,0.958920,1.820000,-3.500000,0.000000,19.87
370612,0.322568,-0.184952,0.950136,1.260000,-3.500000,0.000000,19.87
370624,0.322080,-0.187392,0.949160,2.100000,-3.710000,0.000000,19.89
370635,0.331352,-0.184952,0.945744,2.380000,-3.780000,-0.140000,19.87
370647,0.334280,-0.181536,0.946232,2.310000,-3.430000,-0.210000,19.87
370659,0.332816,-0.176168,0.948672,1.680000,-3.290000,-0.280000,19.83
370670,0.329888,-0.172264,0.945256,0.420000,-3.290000,-0.280000,19.89
370682,0.333304,-0.187392,0.941352,0.490000,-2.940000,-0.420000,19.89
370694,0.335256,-0.186904,0.940864,0.770000,-2.590000,-0.490000,19.87
370705,0.335744,-0.189344,0.945744,1.050000,-2.030000,-0.490000,19.87
370717,0.331352,-0.180072,0.947208,1.330000,-1.680000,-0.140000,19.90
370729,0.328424,-0.181536,0.947696,1.750000,-1.960000,-0.210000,19.86
370741,0.330864,-0.179096,0.945744,1.890000,-2.240000,-0.280000,19.86
370752,0.328912,-0.178608,0.948184,1.680000,-2.030000,-0.560000,19.91
370763,0.325496,-0.174216,0.948184,1.120000,-1.960000,-0.420000,19.83
370775,0.330376,-0.178608,0.952088,0.490000,-2.100000,-0.560000,19.83
370786,0.327448,-0.180072,0.953064,0.280000,-2.310000,-0.490000,19.90
370798,0.325984,-0.186904,0.941840,0.490000,-2.170000,-0.490000,19.90
370810,0.326472,-0.189832,0.941352,1.960000,-2.450000,-0.700000,19.88
370822,0.330864,-0.186904,0.947696,3.220000,-2.660000,-0.770000,19.84
370833,0.332328,-0.177632,0.952088,3.430000,-2.520000,-0.700000,19.84
370844,0.332328,-0.170800,0.952088,2.940000,-2.380000,-0.350000,19.88
370856,0.329888,-0.171776,0.947696,1.890000,-2.380000,-0.490000,19.88
370867,0.329400,-0.178120,0.948184,1.470000,-2.380000,-0.630000,19.86
370879,0.327936,-0.177632,0.946720,1.050000,-2.380000,-0.770000,19.84
370890,0.333304,-0.184464,0.946232,1.120000,-2.030000,-0.980000,19.84
370901,0.333304,-0.178608,0.947696,1.260000,-2.030000,-1.120000,19.87
370912,0.329400,-0.173728,0.957456,1.190000,-2.030000,-1.260000,19.87
370923,0.340136,-0.181048,0.961848,0.490000,-1.330000,-0.280000,19.89
370934,0.324520,-0.190808,0.958432,1.680000,-0.770000,-0.280000,19.88
370945,0.326960,-0.170312,0.960384,1.680000,-1.820000,-0.980000,19.88
370956,0.328424,-0.168360,0.963800,1.750000,-1.540000,-0.280000,19.86
370967,0.330376,-0.164944,0.962824,1.050000,-1.680000,0.350000,19.86
370978,0.327936,-0.166896,0.965264,0.210000,-1.820000,0.630000,19.85
370989,0.326960,-0.172752,0.967216,0.210000,-2.030000,1.120000,19.86
371000,0.325496,-0.182024,0.962336,0.980000,-2.660000,0.980000,19.86
371011,0.326472,-0.183488,0.956968,1.540000,-2.800000,0.700000,19.86
371022,0.325496,-0.181536,0.957944,1.890000,-2.520000,0.770000,19.86
371033,0.325496,-0.173728,0.962824,1.610000,-2.730000,0.700000,19.84
371044,0.328424,-0.177632,0.961360,0.770000,-3.150000,0.210000,19.86
371056,0.326472,-0.184464,0.957456,0.770000,-3.500000,0.210000,19.86
371067,0.321592,-0.184464,0.955992,1.050000,-3.360000,0.140000,19.89
371078,0.321104,-0.184952,0.956480,1.680000,-3.500000,-0.420000,19.89
371089,0.322568,-0.186416,0.955992,1.680000,-3.640000,-0.490000,19.85
371100,0.326960,-0.189344,0.947696,1.540000,-3.500000,-0.560000,19.84
371111,0.324520,-0.190808,0.946720,2.800000,-3.500000,-0.560000,19.84
371122,0.329400,-0.179096,0.946720,3.290000,-3.220000,-0.560000,19.86
371134,0.330376,-0.171288,0.950624,2.730000,-2.940000,-0.490000,19.86
371146,0.331840,-0.167384,0.950136,1.050000,-2.660000,-0.280000,19.89
371156,0.330864,-0.170312,0.953064,0.210000,-2.590000,-0.280000,19.88
371167,0.332816,-0.175680,0.952088,-0.630000,-2.380000,-0.140000,19.88
371178,0.331840,-0.185928,0.950136,-0.210000,-2.170000,-0.140000,19.90
371189,0.328424,-0.182024,0.950624,-0.140000,-2.310000,-0.420000,19.90
371200,0.327448,-0.183488,0.953552,0.560000,-2.380000,-0.770000,19.84
371211,0.325984,-0.179584,0.953552,0.980000,-2.590000,-0.700000,19.89
371222,0.325984,-0.173240,0.950136,1.050000,-2.590000,-0.560000,19.89
371233,0.327448,-0.169824,0.948184,0.560000,-2.660000,-0.630000,19.85
371244,0.325496,-0.173240,0.954040,0.350000,-2.520000,-0.420000,19.85
371255,0.328912,-0.174704,0.961848,0.350000,-2.590000,-0.350000,19.90
371266,0.326472,-0.177632,0.957456,0.420000,-2.800000,-0.070000,19.90
371277,0.327448,-0.182024,0.954528,0.840000,-2.870000,-0.140000,19.84
371288,0.330376,-0.182024,0.953552,1.680000,-3.150000,-0.420000,19.91
371299,0.329400,-0.177632,0.953552,1.750000,-3.150000,-0.420000,19.91
371311,0.335256,-0.178120,0.954040,1.540000,-2.660000,-0.350000,19.86
371321,0.333792,-0.171776,0.954528,1.120000,-2.450000,-0.350000,19.86
371332,0.330864,-0.168848,0.957456,0.280000,-2.310000,-0.280000,19.86
371343,0.330376,-0.175192,0.949648,-0.070000,-2.380000,-0.350000,19.81
371354,0.331352,-0.183488,0.947208,-0.210000,-2.380000,-0.420000,19.81
371365,0.331840,-0.185928,0.954528,0.630000,-2.310000,-0.490000,19.87
371380,0.333304,-0.178120,0.955992,0.840000,-2.310000,-0.490000,19.91
371390,0.329888,-0.175680,0.957944,0.630000,-2.520000,-0.420000,19.91
371401,0.328424,-0.176168,0.958432,0.280000,-2.660000,-0.350000,19.91
371412,0.327448,-0.183488,0.955992,0.280000,-2.590000,-0.280000,19.91
371423,0.327936,-0.184464,0.953064,0.980000,-2.800000,-0.350000,19.87
371434,0.330376,-0.185440,0.953552,1.470000,-2.940000,-0.420000,19.87
371446,0.329400,-0.181048,0.946720,1.400000,-3.150000,-0.630000,19.91
371457,0.329888,-0.181536,0.947696,1.680000,-3.080000,-0.770000,19.91
371468,0.331840,-0.176168,0.952088,1.050000,-3.150000,-0.770000,19.91
371479,0.327448,-0.177144,0.952576,1.190000,-3.150000,-0.910000,19.93
371490,0.327448,-0.180560,0.948672,1.540000,-3.290000,-0.840000,19.93
371501,0.329400,-0.177144,0.947696,1.750000,-3.360000,-0.910000,19.91
371512,0.328424,-0.177632,0.946720,1.610000,-3.360000,-0.980000,19.87
371523,0.333304,-0.174216,0.948184,1.610000,-3.080000,-0.770000,19.87
371534,0.329888,-0.169824,0.953064,1.680000,-3.080000,-0.700000,19.89
371545,0.326960,-0.170312,0.947696,1.680000,-3.080000,-0.560000,19.89
371556,0.329400,-0.172752,0.943304,1.610000,-2.940000,-0.560000,19.91
371567,0.327936,-0.164944,0.949648,1.260000,-2.800000,-0.560000,19.86
371578,0.330376,-0.169824,0.953552,0.980000,-2.730000,-0.280000,19.86
371589,0.328912,-0.170800,0.951600,0.630000,-2.380000,-0.210000,19.84
371600,0.328424,-0.172752,0.947208,0.490000,-2.380000,-0.210000,19.84
371611,0.328424,-0.170800,0.949648,0.560000,-2.380000,-0.210000,19.89
371623,0.329400,-0.180560,0.953064,0.210000,-2.380000,-0.140000,19.84
371633,0.328424,-0.179096,0.951112,1.120000,-2.240000,-0.140000,19.84
371644,0.333304,-0.178608,0.950136,0.910000,-2.240000,0.070000,19.87
371655,0.331840,-0.178120,0.948184,0.560000,-1.960000,0.070000,19.87
371666,0.328424,-0.176168,0.952576,0.840000,-2.030000,0.070000,19.92
371677,0.328912,-0.182512,0.959408,1.260000,-2.380000,0.000000,19.92
371688,0.326472,-0.178608,0.962824,1.680000,-2.730000,0.070000,19.86
371699,0.328912,-0.178120,0.955992,1.540000,-2.870000,-0.210000,19.87
371710,0.326960,-0.181536,0.953064,1.400000,-2.800000,-0.490000,19.87
371721,0.331840,-0.177632,0.956968,1.120000,-2.800000,-0.700000,19.89
371732,0.328912,-0.177144,0.955992,0.910000,-2.870000,-0.700000,19.89
371743,0.330376,-0.182512,0.947208,1.050000,-2.730000,-0.700000,19.88
371754,0.330376,-0.181048,0.948184,1.260000,-2.730000,-0.840000,19.91
371765,0.327936,-0.185440,0.957456,1.960000,-2.730000,-0.980000,19.91
371777,0.331840,-0.176656,0.968680,2.450000,-2.730000,-0.910000,19.91
371788,0.331352,-0.169336,0.963800,2.100000,-2.660000,-0.560000,19.91
371799,0.329400,-0.172752,0.958920,1.820000,-2.660000,-0.420000,19.86
371810,0.329888,-0.169336,0.958432,1.400000,-2.730000,-0.350000,19.84
371821,0.329400,-0.166896,0.957944,0.980000,-2.870000,-0.280000,19.84
371833,0.332816,-0.174216,0.958920,0.560000,-2.800000,-0.350000,19.91
371844,0.329888,-0.178120,0.958920,0.840000,-3.010000,-0.070000,19.91
371855,0.330376,-0.173240,0.955992,1.120000,-3.150000,-0.140000,19.91
371866,0.329888,-0.173728,0.952088,0.700000,-3.290000,-0.140000,19.85
371877,0.333304,-0.180072,0.956968,0.980000,-3.220000,-0.280000,19.85
371888,0.330376,-0.176656,0.960384,1.330000,-3.080000,-0.350000,19.89
371899,0.326472,-0.175192,0.955504,1.820000,-3.150000,-0.420000,19.89
371910,0.329400,-0.172264,0.946720,1.540000,-3.500000,-0.350000,19.87
371921,0.330376,-0.175192,0.950136,1.540000,-3.500000,-0.490000,19.90
371932,0.330376,-0.169824,0.944768,1.330000,-3.570000,-0.490000,19.90
371943,0.334768,-0.175192,0.943792,1.120000,-3.360000,-0.420000,19.90
371955,0.335256,-0.175192,0.946720,1.190000,-3.220000,-0.280000,19.90
371966,0.333792,-0.169336,0.945256,1.050000,-2.870000,-0.210000,19.90
371977,0.333792,-0.169336,0.938912,0.770000,-2.520000,-0.140000,19.86
371988,0.334768,-0.175192,0.942816,0.630000,-2.240000,-0.140000,19.86
371999,0.334280,-0.177632,0.953064,0.980000,-2.100000,-0.140000,19.90
372010,0.332816,-0.173240,0.953064,0.840000,-2.170000,-0.140000,19.90
372022,0.333792,-0.172264,0.947208,0.000000,-2.030000,0.000000,19.87
372033,0.333792,-0.179096,0.947696,-0.210000,-1.890000,-0.210000,19.87
372044,0.332328,-0.176656,0.949160,0.000000,-1.960000,-0.280000,19.87
372055,0.328912,-0.175680,0.946720,0.000000,-1.750000,-0.420000,19.85
372066,0.327448,-0.179584,0.944280,0.280000,-1.750000,-0.560000,19.85
372077,0.328424,-0.178120,0.949160,0.840000,-1.960000,-0.490000,19.87
372088,0.327448,-0.181048,0.952576,1.400000,-2.100000,-0.630000,19.91
372099,0.331352,-0.175680,0.948184,1.050000,-1.820000,-0.350000,19.91
372110,0.332816,-0.170800,0.942328,0.700000,-1.680000,-0.350000,19.89
372121,0.332816,-0.176168,0.951600,0.630000,-1.890000,-0.490000,19.89
372132,0.331840,-0.179096,0.956968,0.770000,-2.030000,-0.700000,19.91
372145,0.329888,-0.175192,0.959896,0.770000,-2.170000,-0.770000,19.86
372156,0.328424,-0.181536,0.956968,1.190000,-2.310000,-0.770000,19.86
372167,0.331352,-0.180560,0.953064,1.330000,-2.170000,-0.840000,19.86
372178,0.330864,-0.180072,0.954528,1.680000,-2.310000,-1.050000,19.86
372189,0.328424,-0.172264,0.951112,2.030000,-2.450000,-0.980000,19.90
372199,0.330376,-0.168360,0.951112,1.960000,-2.310000,-0.910000,19.90
372210,0.330864,-0.168360,0.955504,1.610000,-2.310000,-0.840000,19.87
372221,0.330376,-0.169824,0.958920,1.260000,-2.240000,-0.910000,19.85
372232,0.331352,-0.169824,0.958432,0.910000,-2.100000,-0.840000,19.85
372243,0.329400,-0.177632,0.957944,1.260000,-1.960000,-0.770000,19.91
372254,0.331840,-0.177632,0.963800,1.820000,-2.170000,-0.560000,19.91
372265,0.329888,-0.179584,0.961360,2.030000,-2.240000,-0.560000,19.89
372277,0.330864,-0.174704,0.966728,1.960000,-2.450000,-0.490000,19.87
372287,0.334280,-0.172264,0.967704,1.400000,-2.520000,-0.490000,19.87
372298,0.327936,-0.173728,0.969656,0.910000,-2.590000,-0.490000,19.95
372310,0.327936,-0.182024,0.966728,0.770000,-2.870000,-0.560000,19.95
372322,0.324032,-0.177144,0.961360,0.700000,-3.220000,-0.770000,19.91
372333,0.325496,-0.186904,0.962336,1.680000,-3.710000,-1.050000,19.88
372344,0.323544,-0.189344,0.963312,2.730000,-4.060000,-1.330000,19.88
372355,0.324032,-0.180560,0.957456,3.710000,-4.410000,-1.610000,19.89
372366,0.325496,-0.179096,0.953552,3.990000,-4.690000,-1.750000,19.89
372377,0.326472,-0.175192,0.956480,3.500000,-4.900000,-1.960000,19.91
372388,0.331352,-0.177632,0.953064,3.360000,-4.900000,-1.960000,19.86
372399,0.336232,-0.176168,0.953552,2.940000,-4.830000,-1.890000,19.86
372411,0.335256,-0.174216,0.950136,3.290000,-4.340000,-1.820000,19.87
372422,0.335256,-0.166408,0.944280,2.520000,-3.990000,-1.750000,19.87
372433,0.333792,-0.168848,0.941840,1.610000,-3.360000,-1.680000,19.89
372445,0.334280,-0.166896,0.943304,1.050000,-3.010000,-1.470000,19.90
372456,0.334768,-0.170800,0.942816,0.980000,-2.660000,-1.400000,19.90
372467,0.335256,-0.165920,0.940864,0.980000,-2.520000,-1.330000,19.88
372478,0.337208,-0.163480,0.943304,0.210000,-1.960000,-1.190000,19.88
372489,0.335256,-0.160552,0.947696,-0.980000,-1.680000,-1.260000,19.86
372501,0.332816,-0.165432,0.949648,-1.540000,-1.470000,-1.120000,19.87
372512,0.327936,-0.168848,0.948672,-0.910000,-1.470000,-1.120000,19.87
372523,0.330376,-0.166896,0.946720,-0.070000,-1.470000,-1.190000,19.86
372534,0.326960,-0.163480,0.949648,0.560000,-1.470000,-1.190000,19.86
372545,0.332816,-0.159576,0.952576,0.420000,-1.400000,-0.980000,19.95
372556,0.332816,-0.151768,0.958920,-0.140000,-1.610000,-0.560000,19.87
372567,0.332816,-0.159576,0.958432,-0.630000,-1.610000,-0.280000,19.87
372578,0.333304,-0.161040,0.953552,-0.630000,-1.820000,-0.210000,19.89
372589,0.329888,-0.167384,0.951112,-0.140000,-1.820000,-0.070000,19.89
372600,0.332328,-0.162992,0.943792,0.350000,-1.890000,-0.210000,19.85
372611,0.331840,-0.165432,0.949160,0.490000,-1.960000,-0.210000,19.89
372622,0.334768,-0.163480,0.953552,0.490000,-1.890000,-0.210000,19.89
372634,0.333304,-0.161040,0.949160,0.210000,-1.820000,-0.140000,19.86
372646,0.334280,-0.166896,0.947696,0.140000,-2.030000,-0.350000,19.86
372658,0.331352,-0.174704,0.949160,0.770000,-2.170000,-0.280000,19.87
372670,0.337208,-0.172752,0.949160,1.540000,-2.310000,-0.280000,19.88
372682,0.340624,-0.169336,0.955992,1.470000,-2.170000,-0.210000,19.88
372694,0.339648,-0.162016,0.955504,0.490000,-2.170000,-0.140000,19.91
372707,0.333792,-0.169336,0.956968,0.000000,-2.170000,-0.280000,19.84
372718,0.330864,-0.178120,0.958432,0.350000,-2.450000,-0.560000,19.84
372730,0.332328,-0.176168,0.955504,1.190000,-2.940000,-0.910000,19.91
372741,0.335744,-0.176168,0.951600,1.750000,-2.800000,-0.980000,19.91
372752,0.334768,-0.168848,0.950624,2.170000,-2.800000,-0.980000,19.93
372763,0.334768,-0.160064,0.955992,1.680000,-2.870000,-0.910000,19.85
372774,0.333304,-0.164456,0.955016,1.190000,-2.940000,-0.980000,19.85
372785,0.330864,-0.165920,0.950624,1.680000,-2.730000,-0.770000,19.86
372797,0.328912,-0.160552,0.943304,2.170000,-2.660000,-0.770000,19.86
372808,0.332328,-0.160064,0.946720,2.170000,-2.590000,-0.840000,19.87
372819,0.334280,-0.154696,0.951112,1.680000,-2.450000,-0.420000,19.90
372830,0.334768,-0.158112,0.948672,0.910000,-2.240000,-0.140000,19.90
372841,0.330864,-0.157624,0.943304,1.050000,-2.100000,0.070000,19.90
372852,0.335744,-0.162992,0.944280,1.260000,-2.030000,0.140000,19.90
372863,0.333304,-0.164944,0.951112,1.190000,-2.030000,0.280000,19.86
372874,0.335744,-0.162992,0.952088,1.260000,-1.750000,0.560000,19.83
372885,0.334280,-0.156648,0.953552,0.770000,-1.610000,0.700000,19.83
372896,0.334768,-0.160064,0.957944,-0.210000,-1.330000,0.840000,19.87
372907,0.331840,-0.170312,0.958432,-0.630000,-1.680000,0.840000,19.87
372918,0.333792,-0.181536,0.954528,-0.210000,-1.750000,0.700000,19.90
372929,0.334280,-0.178120,0.953064,0.840000,-1.680000,0.350000,19.86
372940,0.332816,-0.178120,0.949160,1.820000,-1.610000,0.140000,19.86
372951,0.332816,-0.166408,0.948672,1.820000,-1.750000,-0.070000,19.89
372962,0.329400,-0.156648,0.945256,1.470000,-1.890000,-0.140000,19.89
372974,0.330864,-0.159088,0.950136,0.560000,-1.680000,-0.070000,19.85
372985,0.334280,-0.164456,0.951112,0.350000,-1.190000,-0.070000,19.84
372996,0.335744,-0.160064,0.946720,0.560000,-1.120000,0.280000,19.84
373007,0.326960,-0.155672,0.941352,0.420000,-1.540000,-0.210000,19.89
373018,0.333792,-0.167872,0.946232,0.420000,0.280000,1.400000,19.89
373029,0.333304,-0.157136,0.951112,0.140000,-0.490000,0.770000,19.90
373041,0.333304,-0.162016,0.956968,-0.350000,-0.490000,0.840000,19.84
373052,0.332328,-0.157624,0.963800,-0.840000,-0.070000,1.330000,19.84
373063,0.328424,-0.158112,0.968192,-2.170000,0.210000,1.820000,19.92
373074,0.326472,-0.162504,0.969168,-2.730000,0.000000,2.030000,19.92
373084,0.324032,-0.165920,0.971120,-2.590000,-0.070000,2.450000,19.86
373095,0.326960,-0.180560,0.971608,-2.170000,-0.770000,2.310000,19.86
373106,0.324032,-0.181536,0.973560,-1.190000,-0.770000,2.660000,19.87
373117,0.318664,-0.174216,0.974048,-0.770000,-1.680000,2.030000,19.86
373128,0.315248,-0.184952,0.976488,-0.560000,-2.660000,1.750000,19.86
373139,0.318176,-0.191784,0.976000,-0.070000,-3.150000,1.470000,19.90
373150,0.318664,-0.193736,0.973072,0.980000,-3.570000,1.260000,19.90
373161,0.318176,-0.190808,0.967704,1.820000,-3.710000,0.910000,19.88
373172,0.324032,-0.189344,0.968680,2.310000,-3.990000,0.560000,19.89
373184,0.323544,-0.182512,0.971120,2.100000,-4.410000,0.210000,19.89
373195,0.319640,-0.180560,0.961360,1.890000,-4.620000,-0.140000,19.89
373206,0.320616,-0.186904,0.955504,2.170000,-4.620000,-0.420000,19.89
373217,0.322080,-0.188368,0.948672,2.660000,-4.760000,-0.840000,19.87
373228,0.323544,-0.180072,0.946720,3.010000,-4.760000,-1.190000,19.87
373239,0.327936,-0.171288,0.949648,2.730000,-4.410000,-0.980000,19.87
373249,0.328912,-0.168360,0.954528,1.750000,-3.990000,-0.420000,19.84
373260,0.329400,-0.171288,0.953552,0.910000,-3.430000,0.000000,19.84
373272,0.326472,-0.176656,0.952576,0.700000,-3.290000,-0.070000,19.94
373284,0.329888,-0.179096,0.949160,1.190000,-3.220000,-0.140000,19.83
373295,0.329888,-0.175192,0.946720,1.610000,-2.940000,-0.140000,19.83
373306,0.332328,-0.164944,0.949160,1.050000,-2.660000,0.070000,19.87
373317,0.329400,-0.161528,0.956480,-0.140000,-2.520000,0.210000,19.87
373328,0.327448,-0.165432,0.958920,-1.470000,-2.590000,0.490000,19.88
373339,0.327936,-0.177144,0.953064,-1.750000,-2.380000,0.420000,19.87
373350,0.323544,-0.186416,0.950136,-0.700000,-2.240000,0.210000,19.87
373361,0.322080,-0.181048,0.955504,0.420000,-2.520000,0.000000,19.86
373372,0.323056,-0.176168,0.955504,0.910000,-2.730000,-0.210000,19.86
373383,0.323056,-0.170800,0.955504,0.910000,-3.220000,-0.210000,19.85
373394,0.326472,-0.175192,0.952088,0.630000,-3.430000,-0.140000,19.85
373405,0.327448,-0.179096,0.943792,1.330000,-3.290000,-0.350000,19.86
373416,0.330864,-0.174216,0.936472,2.030000,-3.150000,-0.350000,19.88
373427,0.335256,-0.167872,0.937936,1.400000,-2.800000,-0.210000,19.88
373438,0.337696,-0.158112,0.940864,0.070000,-2.380000,0.070000,19.89
373449,0.337208,-0.167872,0.952576,-1.540000,-1.960000,0.280000,19.89
373460,0.333304,-0.173728,0.951112,-1.750000,-1.820000,0.420000,19.91
373471,0.333792,-0.179096,0.946720,-1.400000,-1.890000,0.210000,19.82
373482,0.331352,-0.184464,0.946232,-0.700000,-1.540000,0.070000,19.82
373493,0.329888,-0.175192,0.953064,0.000000,-1.540000,0.000000,19.87
373504,0.327448,-0.169824,0.957944,0.140000,-1.750000,0.140000,19.87
373515,0.326960,-0.173240,0.959896,-0.070000,-1.750000,0.210000,19.86
373526,0.323544,-0.169824,0.959896,-0.490000,-1.610000,0.490000,19.87
373537,0.320616,-0.168360,0.956480,-0.770000,-2.030000,0.630000,19.87
373548,0.324520,-0.177632,0.953064,-0.070000,-2.170000,0.420000,19.85
373559,0.325008,-0.177632,0.955504,0.700000,-2.380000,0.630000,19.85
373570,0.324520,-0.170800,0.957944,1.120000,-2.660000,0.840000,19.87
373581,0.324032,-0.175680,0.958920,1.120000,-3.220000,1.050000,19.91
373592,0.327936,-0.179096,0.960384,0.910000,-3.570000,0.910000,19.91
373603,0.326472,-0.182024,0.954040,1.120000,-3.570000,0.910000,19.88
373614,0.330864,-0.187880,0.953064,0.910000,-3.150000,0.630000,19.88
373625,0.322568,-0.189832,0.950136,1.330000,-3.430000,0.210000,19.91
373636,0.321104,-0.192272,0.949648,2.030000,-3.640000,-0.420000,19.91
373647,0.324520,-0.193736,0.946720,3.150000,-3.850000,-0.700000,19.89
373658,0.325496,-0.184464,0.943792,3.360000,-3.780000,-0.980000,19.88
373670,0.330864,-0.176656,0.945744,2.940000,-3.360000,-0.980000,19.88
373682,0.333304,-0.173728,0.948184,2.170000,-2.940000,-0.770000,19.89
373694,0.328912,-0.163480,0.955992,1.120000,-2.730000,-0.560000,19.87
373705,0.326960,-0.168848,0.950624,0.000000,-2.520000,-0.210000,19.87
373717,0.326472,-0.183000,0.944768,0.000000,-2.100000,-0.210000,19.86
373728,0.328424,-0.184464,0.954040,0.910000,-2.100000,-0.280000,19.86
373740,0.322568,-0.175192,0.956480,1.260000,-2.310000,-0.420000,19.92
373751,0.326960,-0.176656,0.962824,1.190000,-2.380000,-0.210000,19.87
373763,0.322568,-0.166408,0.958432,0.910000,-2.590000,-0.140000,19.87
373774,0.323544,-0.169336,0.957456,0.350000,-2.730000,-0.070000,19.87
373785,0.321592,-0.177144,0.957944,0.700000,-3.010000,-0.070000,19.87
373797,0.320128,-0.175680,0.955016,1.330000,-3.080000,-0.140000,19.89
373809,0.321592,-0.173240,0.955504,1.610000,-3.080000,0.000000,19.89
373820,0.329888,-0.171776,0.956968,1.610000,-3.150000,0.000000,19.89
373832,0.325008,-0.172752,0.960872,1.190000,-3.150000,0.000000,19.92
373844,0.324520,-0.175680,0.958432,1.120000,-3.220000,-0.070000,19.85
373856,0.326960,-0.182512,0.950136,1.610000,-3.290000,0.000000,19.85
373868,0.329400,-0.181048,0.949648,2.100000,-3.220000,-0.140000,19.89
373880,0.333792,-0.181048,0.955992,2.240000,-2.940000,-0.350000,19.86
373892,0.336232,-0.168360,0.952088,1.470000,-2.800000,-0.280000,19.86
373903,0.333792,-0.174216,0.949648,0.210000,-2.520000,0.000000,19.88
373915,0.328912,-0.177632,0.950136,0.070000,-2.310000,-0.280000,19.88
373926,0.331352,-0.184952,0.954040,0.420000,-2.380000,-0.490000,19.87
373938,0.331352,-0.181048,0.955016,0.910000,-2.450000,-0.560000,19.87
373949,0.331840,-0.172264,0.957944,0.840000,-2.380000,-0.420000,19.87
373960,0.330864,-0.173728,0.956480,0.560000,-2.380000,-0.350000,19.89
373972,0.325496,-0.175192,0.957456,0.420000,-2.590000,-0.350000,19.89
373983,0.323056,-0.179096,0.955504,0.910000,-2.870000,-0.490000,19.89
373994,0.327448,-0.182024,0.946720,1.260000,-2.870000,-0.560000,19.86
374006,0.327936,-0.179096,0.950624,1.470000,-3.010000,-0.840000,19.86
374018,0.331840,-0.174704,0.957944,1.400000,-3.010000,-0.980000,19.84
374029,0.329888,-0.174216,0.956480,1.540000,-3.150000,-0.980000,19.89
374041,0.329400,-0.174704,0.948184,1.540000,-3.080000,-0.980000,19.89
374052,0.327448,-0.176656,0.943792,1.890000,-3.010000,-1.120000,19.88
374064,0.328912,-0.175680,0.949160,2.450000,-2.940000,-1.120000,19.88
374076,0.333792,-0.165432,0.947696,2.030000,-2.800000,-0.840000,19.91
374088,0.334280,-0.163968,0.947696,1.120000,-2.660000,-0.420000,19.89
374099,0.331840,-0.167872,0.945256,0.630000,-2.520000,-0.630000,19.89
374111,0.333304,-0.176168,0.941840,0.980000,-2.450000,-0.700000,19.93
374122,0.330864,-0.169336,0.939888,1.330000,-2.170000,-0.840000,19.87
374134,0.331352,-0.169336,0.945256,1.120000,-1.680000,-0.840000,19.87
374145,0.330864,-0.166896,0.948672,1.120000,-1.680000,-0.700000,19.93
374157,0.330376,-0.162016,0.949160,0.700000,-1.610000,-0.420000,19.93
374169,0.332816,-0.165432,0.951112,0.490000,-1.330000,0.000000,19.91
374181,0.329400,-0.169336,0.951600,0.490000,-1.260000,0.140000,19.92
374192,0.324520,-0.163480,0.949648,0.490000,-1.470000,0.350000,19.92
374203,0.326472,-0.169336,0.950624,0.700000,-1.540000,0.140000,19.91
374215,0.331840,-0.169824,0.950624,0.490000,-1.330000,0.420000,19.91
374226,0.327936,-0.168360,0.951112,0.140000,-1.400000,0.420000,19.90
374238,0.330376,-0.173240,0.947208,0.280000,-1.050000,0.630000,19.91
374250,0.331840,-0.171776,0.945744,0.210000,-1.050000,0.770000,19.91
374261,0.332328,-0.180072,0.954528,0.000000,-1.190000,0.700000,19.88
374273,0.328912,-0.182512,0.961360,0.420000,-1.120000,0.490000,19.87
374285,0.327448,-0.181048,0.961360,0.350000,-1.260000,0.140000,19.87
374296,0.326472,-0.180560,0.961360,0.560000,-1.330000,-0.210000,19.95
374309,0.329400,-0.181048,0.960384,0.910000,-1.330000,-0.560000,19.84
374321,0.333304,-0.181048,0.968680,1.050000,-1.750000,-0.490000,19.84
374332,0.327936,-0.174704,0.969656,0.980000,-1.820000,-0.350000,19.90
374344,0.326472,-0.173728,0.962824,0.770000,-1.890000,-0.210000,19.90
374356,0.328912,-0.176656,0.962824,0.700000,-1.750000,-0.210000,19.91
374368,0.330376,-0.174704,0.969168,0.700000,-1.960000,-0.210000,19.88
374383,0.324032,-0.177632,0.969656,0.840000,-2.380000,-0.140000,19.88
374396,0.325496,-0.173240,0.968192,0.770000,-2.730000,-0.140000,19.90
374407,0.321592,-0.175192,0.967704,0.770000,-3.080000,-0.280000,19.87
374418,0.323056,-0.177144,0.964776,1.260000,-3.500000,-0.490000,19.87
374431,0.320616,-0.174704,0.959408,1.680000,-3.850000,-0.490000,19.90
374447,0.325496,-0.171288,0.962824,2.310000,-3.430000,0.280000,19.87
374459,0.328912,-0.167872,0.964288,1.470000,-4.270000,-0.560000,19.89
374470,0.325984,-0.175192,0.964776,1.750000,-4.270000,-0.420000,19.89
374482,0.326472,-0.173728,0.956968,2.170000,-3.990000,-0.070000,19.91
374494,0.326960,-0.167384,0.953064,2.170000,-4.130000,-0.140000,19.91
374506,0.329888,-0.168848,0.953064,2.030000,-3.850000,0.000000,19.91
374517,0.328424,-0.162992,0.951112,1.820000,-3.640000,0.280000,19.87
374529,0.330864,-0.168848,0.946232,1.050000,-3.570000,0.350000,19.87
374541,0.328424,-0.171288,0.943304,0.840000,-2.800000,0.700000,19.86
374552,0.331352,-0.166408,0.940864,0.420000,-2.520000,0.420000,19.88
374564,0.326960,-0.175192,0.947696,-0.420000,-2.590000,0.280000,19.88
374576,0.328424,-0.173728,0.950624,-0.210000,-2.310000,0.630000,19.87
374587,0.328424,-0.175680,0.950624,-0.420000,-1.960000,0.770000,19.87
374599,0.324520,-0.176656,0.949648,-0.280000,-1.890000,0.630000,19.91
374611,0.324032,-0.180560,0.952576,-0.140000,-2.240000,0.280000,19.86
374623,0.321592,-0.181048,0.954528,0.350000,-2.520000,0.210000,19.86
374634,0.322568,-0.182024,0.954040,1.120000,-2.660000,0.140000,19.85
374645,0.320616,-0.176656,0.950136,1.540000,-3.010000,-0.210000,19.85
374657,0.324520,-0.180072,0.952576,1.470000,-3.150000,-0.490000,19.85
374668,0.323544,-0.177632,0.948672,1.540000,-3.290000,-0.700000,19.85
374680,0.327936,-0.177632,0.945256,1.610000,-3.360000,-0.700000,19.85
374692,0.329888,-0.179096,0.948672,2.170000,-3.150000,-0.770000,19.89
374704,0.331352,-0.175192,0.947696,2.730000,-3.150000,-0.980000,19.85
374716,0.330864,-0.165432,0.946720,2.450000,-3.150000,-0.980000,19.85
374727,0.330376,-0.165432,0.943792,1.540000,-3.080000,-0.770000,19.84
374738,0.331352,-0.170800,0.942328,1.260000,-2.730000,-0.840000,19.83
374750,0.333304,-0.165432,0.944768,0.910000,-2.310000,-0.700000,19.83
374761,0.330376,-0.167384,0.945256,0.280000,-2.030000,-0.490000,19.86
374773,0.328912,-0.170800,0.947696,0.420000,-1.610000,-0.210000,19.86
374784,0.327448,-0.167384,0.948672,0.560000,-1.610000,0.070000,19.89
374796,0.324032,-0.168360,0.953064,0.840000,-1.610000,0.000000,19.91
374807,0.325496,-0.172264,0.952576,1.400000,-1.750000,-0.140000,19.91
374818,0.327448,-0.161528,0.957456,1.680000,-1.680000,0.070000,19.84
374830,0.328424,-0.157136,0.961360,0.770000,-1.610000,0.420000,19.84
374841,0.326960,-0.160552,0.962336,-0.280000,-1.750000,0.770000,19.91
374853,0.324032,-0.168848,0.955016,-0.350000,-2.030000,0.840000,19.86
374865,0.325008,-0.181048,0.951112,0.840000,-2.170000,0.700000,19.86
374876,0.328424,-0.175192,0.957944,1.540000,-2.240000,0.630000,19.84
374888,0.328424,-0.173240,0.964776,1.680000,-2.310000,0.700000,19.86
374899,0.327936,-0.172752,0.965264,1.750000,-2.660000,0.700000,19.86
374911,0.328424,-0.184464,0.960872,2.170000,-2.870000,0.560000,19.91
374922,0.324032,-0.185928,0.953064,3.010000,-3.220000,0.070000,19.91
374934,0.325496,-0.177144,0.955992,3.220000,-3.430000,-0.280000,19.88
374945,0.326472,-0.175680,0.955504,3.080000,-3.360000,-0.630000,19.93
374957,0.329400,-0.171288,0.952576,2.590000,-2.940000,-0.070000,19.93
374969,0.328424,-0.168848,0.949648,2.380000,-2.940000,-0.350000,19.89
374981,0.334280,-0.168360,0.951112,1.750000,-3.010000,-0.560000,19.89
374993,0.329888,-0.176656,0.951600,2.450000,-2.240000,-0.210000,19.89
375004,0.330864,-0.165920,0.954528,1.470000,-2.030000,0.210000,19.90
375016,0.329400,-0.172264,0.960384,1.190000,-1.820000,0.490000,19.90
375027,0.328424,-0.172264,0.963312,0.630000,-1.680000,0.840000,19.93
375039,0.323056,-0.167872,0.961360,0.490000,-2.030000,0.630000,19.86
375050,0.324032,-0.171288,0.964288,0.560000,-2.380000,0.350000,19.86
375061,0.324520,-0.178608,0.968192,0.980000,-2.660000,0.210000,19.89
375073,0.323056,-0.170800,0.964776,1.330000,-3.220000,-0.140000,19.89
375084,0.324032,-0.177144,0.961360,1.470000,-3.500000,-0.420000,19.87
375096,0.322568,-0.172752,0.963312,1.890000,-3.710000,-0.420000,19.86
375107,0.324032,-0.173240,0.958432,2.030000,-3.710000,-0.280000,19.86
375119,0.325496,-0.175192,0.955992,2.590000,-3.710000,-0.210000,19.90
375131,0.324520,-0.168360,0.949648,3.080000,-3.780000,-0.210000,19.86
375143,0.328424,-0.165920,0.953552,2.940000,-3.640000,0.000000,19.86
375154,0.330376,-0.161040,0.953552,2.100000,-3.290000,0.140000,19.93
375166,0.331352,-0.161040,0.950136,0.980000,-3.010000,0.350000,19.93
375177,0.330376,-0.164456,0.949160,0.140000,-2.660000,0.350000,19.87
375188,0.326960,-0.173240,0.953064,-0.140000,-2.380000,0.280000,19.84
375200,0.330864,-0.176168,0.952576,0.070000,-2.240000,0.280000,19.84
375211,0.330864,-0.180072,0.953064,0.700000,-2.030000,0.140000,19.85
375223,0.332328,-0.172752,0.959896,0.770000,-2.030000,0.210000,19.85
375234,0.331840,-0.168848,0.961360,0.420000,-1.960000,0.210000,19.86
375245,0.330864,-0.166896,0.957456,-0.490000,-1.890000,0.420000,19.90
375257,0.324032,-0.172752,0.960384,-0.910000,-2.030000,0.350000,19.90
375268,0.323544,-0.179584,0.964288,-0.490000,-2.240000,0.000000,19.90
375280,0.324032,-0.181536,0.960384,0.210000,-2.520000,-0.070000,19.85
375291,0.323544,-0.180072,0.956480,1.260000,-2.660000,-0.420000,19.85
375303,0.327448,-0.176168,0.955992,1.610000,-2.730000,-0.420000,19.88
375314,0.327448,-0.169824,0.958920,1.540000,-3.220000,-0.630000,19.88
375326,0.329888,-0.176168,0.958432,1.330000,-3.220000,-0.630000,19.88
375338,0.325984,-0.170312,0.952088,1.470000,-3.290000,-0.700000,19.87
375350,0.328424,-0.168360,0.945256,1.540000,-3.220000,-0.840000,19.87
375361,0.327448,-0.163480,0.947696,1.120000,-3.080000,-0.910000,19.87
375373,0.328424,-0.164456,0.948184,0.910000,-3.080000,-0.910000,19.91
375384,0.325008,-0.162016,0.939888,1.400000,-3.010000,-0.700000,19.91
375395,0.326472,-0.162016,0.938912,1.610000,-2.800000,-0.630000,19.90
375407,0.328424,-0.158600,0.938912,1.610000,-2.520000,-0.350000,19.90
375418,0.332328,-0.154208,0.937448,1.400000,-2.170000,0.070000,19.92
375429,0.330376,-0.156160,0.946232,1.120000,-1.890000,0.490000,19.84
375441,0.332816,-0.159576,0.947696,0.630000,-1.540000,0.630000,19.84
375452,0.329888,-0.161528,0.947696,0.280000,-1.400000,0.910000,19.91
375463,0.334768,-0.166408,0.952088,-0.420000,-1.330000,0.770000,19.91
375474,0.333304,-0.172264,0.952576,-0.420000,-1.190000,0.560000,19.89
375486,0.331840,-0.176168,0.960872,-0.140000,-1.190000,0.560000,19.89
375497,0.329400,-0.170312,0.955992,0.350000,-1.470000,0.630000,19.89
375508,0.325008,-0.177144,0.952576,0.560000,-1.820000,0.560000,19.89
375520,0.329888,-0.176168,0.951600,0.840000,-2.100000,0.350000,19.89
375531,0.327936,-0.176168,0.959896,1.330000,-1.960000,0.280000,19.89
375542,0.329400,-0.174704,0.964776,1.260000,-2.170000,0.210000,19.87
375553,0.328424,-0.172264,0.965752,1.330000,-2.590000,0.210000,19.87
375565,0.326472,-0.169824,0.957944,0.980000,-2.940000,0.210000,19.89
375576,0.325984,-0.179096,0.955992,1.190000,-3.150000,-0.210000,19.89
375588,0.327936,-0.178608,0.958920,1.890000,-2.940000,-0.560000,19.88
375599,0.326472,-0.173240,0.956968,2.100000,-2.940000,-0.490000,19.85
375610,0.329888,-0.171288,0.959408,2.100000,-2.800000,-0.560000,19.85
375621,0.331352,-0.164456,0.958432,1.820000,-2.730000,-0.280000,19.83
375633,0.330376,-0.166408,0.957944,1.120000,-2.590000,-0.210000,19.83
375644,0.322568,-0.164944,0.961360,0.560000,-3.010000,0.140000,19.84
375655,0.328424,-0.172264,0.958920,1.050000,-1.190000,0.560000,19.87
375667,0.326472,-0.161528,0.958920,0.350000,-2.660000,-0.420000,19.87
375678,0.323056,-0.167872,0.961360,0.280000,-2.660000,-0.280000,19.91
375690,0.328912,-0.172264,0.962336,0.350000,-2.520000,0.140000,19.87
375701,0.328912,-0.174216,0.967216,0.560000,-2.520000,0.420000,19.87
375712,0.324032,-0.176168,0.968192,0.560000,-2.520000,0.630000,19.88
375723,0.320616,-0.178120,0.962336,1.540000,-3.010000,0.350000,19.88
375735,0.316712,-0.171288,0.962824,1.820000,-3.710000,0.210000,19.86
375747,0.318664,-0.170800,0.960872,2.240000,-3.920000,0.140000,19.87
375758,0.325984,-0.172264,0.956480,2.170000,-3.780000,0.070000,19.87
375769,0.327448,-0.166408,0.954040,1.540000,-3.920000,-0.280000,19.87
375781,0.330864,-0.170800,0.954528,0.840000,-3.850000,-0.070000,19.87
375793,0.327936,-0.178120,0.947696,1.050000,-3.360000,0.070000,19.90
375804,0.321104,-0.176168,0.948672,1.610000,-3.290000,-0.210000,19.86
375816,0.323544,-0.172264,0.948184,1.820000,-3.500000,-0.420000,19.86
375828,0.328424,-0.166408,0.947696,1.400000,-3.220000,-0.350000,19.89
375839,0.332328,-0.162992,0.953552,0.700000,-2.660000,-0.210000,19.84
375851,0.329400,-0.169824,0.950624,0.000000,-2.310000,0.210000,19.84
375863,0.329400,-0.177144,0.945744,0.560000,-2.100000,0.210000,19.85
375875,0.325496,-0.174704,0.944280,1.610000,-2.100000,-0.070000,19.85
375886,0.329400,-0.168360,0.954040,1.470000,-2.030000,0.000000,19.90
375898,0.330376,-0.160552,0.960384,0.420000,-1.820000,0.210000,19.88
375910,0.330864,-0.161528,0.965752,-1.050000,-1.890000,0.280000,19.88
375921,0.327448,-0.173240,0.960872,-1.540000,-2.100000,0.280000,19.88
375932,0.324520,-0.186416,0.955504,-0.210000,-2.310000,0.000000,19.88
375944,0.318176,-0.184464,0.951112,1.260000,-2.520000,-0.420000,19.89
375955,0.322080,-0.178120,0.949160,2.310000,-3.080000,-1.050000,19.93
375967,0.324520,-0.168360,0.945744,2.730000,-3.010000,-1.120000,19.93
375978,0.328912,-0.164456,0.947696,2.170000,-2.730000,-0.700000,19.91
375989,0.330864,-0.154208,0.950624,1.330000,-2.660000,-0.070000,19.88
376001,0.327936,-0.156160,0.944280,0.350000,-2.310000,0.070000,19.88
376013,0.331840,-0.168360,0.941840,-0.070000,-2.030000,0.140000,19.93
376025,0.334280,-0.174216,0.941840,0.140000,-1.750000,-0.140000,19.93
376036,0.335744,-0.180072,0.951112,0.700000,-1.540000,0.000000,19.88
376048,0.328912,-0.169824,0.949648,0.770000,-1.400000,0.070000,19.84
376060,0.330376,-0.166408,0.958432,0.560000,-1.470000,0.070000,19.84
376071,0.324520,-0.165920,0.959408,0.000000,-1.540000,0.000000,19.91
376082,0.329400,-0.175192,0.959896,0.070000,-1.540000,-0.070000,19.91
376094,0.327448,-0.170800,0.956968,0.350000,-1.470000,-0.070000,19.91
376106,0.326472,-0.176656,0.959896,0.840000,-1.540000,-0.140000,19.88
376117,0.327936,-0.170312,0.958432,1.260000,-1.610000,-0.280000,19.88
376129,0.328912,-0.161040,0.963800,0.770000,-1.680000,0.000000,19.89
376141,0.326960,-0.167872,0.967216,0.000000,-1.750000,0.210000,19.87
376153,0.325008,-0.172264,0.967704,-0.070000,-1.890000,0.280000,19.87
376165,0.321592,-0.171288,0.971608,0.000000,-2.170000,0.280000,19.93
376176,0.322568,-0.174216,0.967704,0.490000,-2.730000,0.140000,19.90
376188,0.325496,-0.177632,0.958920,1.330000,-3.080000,0.140000,19.90
376199,0.323056,-0.177144,0.957456,1.820000,-3.080000,0.140000,19.87
376210,0.326960,-0.180560,0.959896,2.240000,-3.290000,0.140000,19.87
376221,0.327448,-0.169824,0.958432,2.170000,-3.290000,0.070000,19.89
376233,0.324520,-0.170312,0.961848,1.610000,-3.500000,0.140000,19.86
376244,0.320616,-0.167872,0.956968,1.050000,-3.640000,-0.070000,19.86
376256,0.320616,-0.175680,0.952576,1.260000,-3.430000,-0.350000,19.85
376267,0.320128,-0.179584,0.947208,2.100000,-3.500000,-0.770000,19.85
376279,0.323544,-0.174216,0.947696,2.590000,-3.500000,-0.700000,19.86
376290,0.327448,-0.170800,0.947208,2.660000,-3.150000,-0.560000,19.87
376302,0.330376,-0.170800,0.953552,2.170000,-3.010000,-0.420000,19.87
376314,0.332328,-0.167872,0.956480,1.750000,-2.380000,-0.280000,19.88
376325,0.334280,-0.166896,0.950624,0.840000,-2.100000,-0.210000,19.86
376337,0.333792,-0.168848,0.953064,0.280000,-1.960000,-0.280000,19.86
376348,0.330864,-0.168848,0.960872,-0.490000,-1.820000,-0.280000,19.92
376360,0.327448,-0.170312,0.965752,-0.700000,-1.890000,-0.210000,19.92
376371,0.325008,-0.174704,0.960384,-0.420000,-1.960000,-0.280000,19.90
376383,0.325496,-0.171288,0.961360,-0.490000,-2.100000,-0.350000,19.90
376395,0.326472,-0.176656,0.961848,0.070000,-2.310000,-0.350000,19.90
376406,0.324520,-0.171288,0.964776,0.560000,-2.660000,-0.210000,19.90
376418,0.323056,-0.172264,0.964776,1.050000,-2.870000,-0.140000,19.86
376430,0.320616,-0.169336,0.957456,0.840000,-3.080000,-0.140000,19.86
376441,0.317688,-0.162992,0.958432,0.420000,-3.150000,-0.210000,19.92
376455,0.324032,-0.171776,0.948184,0.840000,-3.290000,-0.490000,19.88
376468,0.323056,-0.174704,0.947208,1.260000,-3.500000,-0.560000,19.88
376479,0.323056,-0.170800,0.946720,1.960000,-3.360000,-0.490000,19.93
376491,0.325984,-0.167384,0.944768,1.960000,-3.220000,-0.490000,19.93
376502,0.329888,-0.165432,0.948672,1.960000,-3.010000,-0.350000,19.87
376514,0.326960,-0.162992,0.946720,1.190000,-2.800000,-0.140000,19.88
376526,0.329400,-0.167872,0.941352,0.630000,-2.450000,0.000000,19.88
376537,0.327936,-0.175680,0.943304,0.840000,-2.170000,0.070000,19.91
376549,0.329400,-0.172264,0.943792,1.190000,-2.240000,0.000000,19.85
376560,0.332328,-0.166896,0.948184,0.980000,-1.890000,-0.140000,19.85
376572,0.325984,-0.169824,0.947696,0.770000,-1.750000,-0.210000,19.90
376584,0.332816,-0.169336,0.950136,0.700000,-1.820000,-0.210000,19.90
376595,0.332328,-0.164944,0.952088,0.070000,-1.540000,-0.210000,19.93
376607,0.325984,-0.177144,0.954528,0.280000,-1.470000,-0.420000,19.88
376618,0.323056,-0.173728,0.955504,0.490000,-1.820000,-0.490000,19.88
376630,0.325008,-0.176168,0.954040,1.120000,-2.100000,-0.490000,19.89
376641,0.323544,-0.172264,0.955992,1.750000,-2.380000,-0.770000,19.89
376653,0.329400,-0.173728,0.955016,1.960000,-2.590000,-0.980000,19.87
376665,0.328424,-0.165920,0.952088,1.820000,-2.520000,-1.050000,19.91
376677,0.325984,-0.167384,0.952576,2.170000,-2.660000,-0.840000,19.91
376688,0.328424,-0.162016,0.955992,1.750000,-2.590000,-0.490000,19.89
376700,0.329400,-0.165432,0.955016,0.980000,-2.310000,-0.350000,19.92
376712,0.330864,-0.169824,0.952576,0.910000,-2.170000,-0.420000,19.92
376723,0.330376,-0.168360,0.958920,1.260000,-2.310000,-0.630000,19.87
376735,0.325008,-0.174704,0.960384,2.310000,-2.380000,-0.910000,19.92
376746,0.325984,-0.166896,0.956968,2.660000,-2.730000,-1.050000,19.92
376758,0.324520,-0.165920,0.959408,2.240000,-2.870000,-0.980000,19.87
376770,0.328424,-0.164944,0.959896,1.470000,-2.660000,-0.840000,19.87
376781,0.329400,-0.166408,0.958920,1.120000,-2.520000,-0.560000,19.86
376793,0.329400,-0.162992,0.953552,0.700000,-2.240000,-0.490000,19.91
376805,0.331840,-0.165432,0.954040,-0.070000,-1.820000,-0.490000,19.91
376817,0.322080,-0.168848,0.957944,-0.490000,-1.750000,-0.490000,19.89
376828,0.318664,-0.170800,0.955992,-0.420000,-1.820000,-0.630000,19.89
376840,0.322568,-0.175680,0.954040,0.000000,-2.030000,-0.560000,19.89
376851,0.325496,-0.174216,0.953064,0.420000,-1.750000,-0.560000,19.89
376863,0.328912,-0.173728,0.961848,0.700000,-1.540000,-0.280000,19.89
376875,0.328424,-0.158600,0.964776,0.420000,-1.750000,0.000000,19.91
376886,0.326472,-0.166408,0.964776,-0.140000,-1.960000,0.280000,19.90
376898,0.322080,-0.169336,0.962336,-0.280000,-2.240000,0.280000,19.90
376910,0.321104,-0.177632,0.957456,0.350000,-2.450000,-0.210000,19.91
376921,0.325008,-0.178608,0.962824,1.050000,-2.520000,-0.770000,19.86
376933,0.321592,-0.174216,0.967704,1.330000,-2.660000,-0.840000,19.86
376945,0.325008,-0.171288,0.964288,1.260000,-2.800000,-0.910000,19.86
376956,0.325496,-0.170312,0.958920,1.330000,-2.800000,-0.910000,19.86
376968,0.327448,-0.172264,0.959896,1.680000,-2.590000,-0.910000,19.94
376980,0.330376,-0.164456,0.960872,1.680000,-2.450000,-0.630000,19.91
376992,0.329400,-0.159576,0.959408,0.840000,-2.170000,-0.490000,19.91
377004,0.326960,-0.158112,0.959408,-0.350000,-2.310000,-0.280000,19.88
377015,0.327448,-0.163480,0.957456,-0.980000,-2.310000,-0.350000,19.87
377026,0.322080,-0.173728,0.957944,-0.490000,-2.520000,-0.560000,19.87
377038,0.322568,-0.176168,0.956480,0.560000,-2.800000,-0.700000,19.89
377050,0.327448,-0.169824,0.959408,1.260000,-2.940000,-0.700000,19.89
377061,0.325984,-0.164456,0.959408,1.330000,-3.150000,-0.490000,19.87
377073,0.326472,-0.160552,0.957456,0.840000,-3.360000,-0.420000,19.86
377084,0.320616,-0.159576,0.954040,1.050000,-3.220000,-0.420000,19.86
377096,0.323544,-0.162992,0.952576,1.260000,-3.290000,-0.280000,19.90
377107,0.327448,-0.159576,0.952088,1.470000,-3.150000,0.000000,19.90
377118,0.324032,-0.151768,0.950136,1.120000,-3.220000,0.350000,19.87
377129,0.329400,-0.154696,0.946720,0.350000,-3.010000,0.560000,19.88
377141,0.327936,-0.162504,0.944280,0.140000,-2.870000,0.350000,19.88
377152,0.326960,-0.166408,0.941352,0.210000,-2.520000,0.560000,19.89
377164,0.331840,-0.173728,0.945744,0.560000,-1.960000,0.490000,19.89
377175,0.330864,-0.170800,0.944768,0.980000,-1.820000,0.490000,19.84
377186,0.330864,-0.167384,0.944280,0.770000,-1.680000,0.490000,19.89
377198,0.332816,-0.172752,0.949648,0.350000,-1.610000,0.420000,19.89
377210,0.332328,-0.167384,0.955504,0.070000,-1.470000,0.210000,19.93
377221,0.329888,-0.166896,0.954528,-0.350000,-1.540000,0.420000,19.88
377232,0.333792,-0.167872,0.955504,-0.840000,-1.400000,0.560000,19.88
377244,0.332328,-0.168360,0.959408,-1.120000,-1.260000,0.770000,19.89
377255,0.330864,-0.176168,0.958920,-1.260000,-1.330000,0.630000,19.89
377267,0.325984,-0.181048,0.955992,-0.420000,-1.330000,0.560000,19.90
377279,0.323056,-0.173728,0.964288,0.490000,-1.750000,0.280000,19.90
377290,0.321592,-0.176656,0.967216,0.770000,-2.240000,-0.070000,19.90
377301,0.322568,-0.172752,0.969168,0.700000,-2.590000,-0.070000,19.91
377313,0.326472,-0.172752,0.968680,0.770000,-2.940000,-0.210000,19.91
377324,0.327448,-0.173240,0.969656,1.190000,-3.430000,-0.140000,19.87
377335,0.323056,-0.173240,0.959896,1.890000,-3.640000,-0.210000,19.87
377347,0.325984,-0.168848,0.955504,2.170000,-3.780000,-0.210000,19.87
377358,0.325008,-0.168848,0.955016,2.240000,-3.710000,-0.490000,19.85
377370,0.326472,-0.162992,0.954528,1.750000,-3.990000,-0.070000,19.85
377382,0.324520,-0.162992,0.954040,2.240000,-3.570000,0.210000,19.85
377393,0.329888,-0.166896,0.945744,1.400000,-3.360000,0.210000,19.89
377405,0.324520,-0.169824,0.949160,1.610000,-3.360000,0.070000,19.89
377416,0.326960,-0.176168,0.951600,1.330000,-3.010000,0.070000,19.89
377427,0.325496,-0.166896,0.951112,1.750000,-2.870000,0.000000,19.87
377438,0.328912,-0.171288,0.949648,1.190000,-2.660000,-0.070000,19.87
377450,0.327936,-0.167384,0.955992,0.770000,-2.520000,-0.070000,19.88
377461,0.325496,-0.167872,0.959896,-0.140000,-2.450000,0.210000,19.88
377472,0.323056,-0.167384,0.954528,-0.140000,-2.450000,0.280000,19.90
377484,0.318176,-0.170800,0.950136,-0.070000,-2.240000,0.490000,19.89
377495,0.315248,-0.175680,0.949160,0.630000,-2.450000,0.490000,19.89
377506,0.321104,-0.176168,0.951600,1.610000,-2.590000,0.490000,19.90
377517,0.322080,-0.168848,0.951600,2.240000,-2.520000,0.560000,19.90
377528,0.326472,-0.168360,0.952088,1.890000,-2.310000,0.700000,19.88
377540,0.326472,-0.166896,0.950136,0.700000,-2.240000,0.840000,19.89
377551,0.320128,-0.171288,0.951112,0.070000,-2.590000,0.560000,19.89
377562,0.320616,-0.182024,0.951600,0.350000,-2.660000,0.280000,19.90
377573,0.318664,-0.184952,0.947208,0.910000,-2.590000,-0.140000,19.90
377585,0.321592,-0.183488,0.944280,1.750000,-2.380000,-0.490000,19.91
377596,0.325008,-0.175680,0.948672,2.100000,-2.170000,-0.700000,19.90
377607,0.323056,-0.171776,0.953552,1.960000,-2.240000,-0.840000,19.90
377618,0.325496,-0.171288,0.951112,1.680000,-2.170000,-0.840000,19.87
377630,0.326472,-0.176168,0.951112,1.820000,-1.820000,-0.770000,19.87
377641,0.326472,-0.174704,0.951112,1.890000,-1.470000,-0.700000,19.90
377653,0.331352,-0.168848,0.956968,1.960000,-1.120000,-0.630000,19.91
377664,0.328912,-0.165920,0.964776,1.470000,-1.120000,-0.490000,19.91
377675,0.327448,-0.168848,0.964288,0.980000,-0.980000,-0.560000,19.90
377687,0.321592,-0.175192,0.966240,0.980000,-1.120000,-1.050000,19.87
377698,0.318176,-0.178608,0.966728,2.030000,-1.470000,-1.820000,19.87
377709,0.317200,-0.183976,0.968192,3.430000,-1.680000,-2.380000,19.91
377721,0.318176,-0.175192,0.970632,4.900000,-2.030000,-2.660000,19.91
377732,0.324520,-0.172752,0.976488,6.370000,-2.380000,-2.520000,19.89
377744,0.330864,-0.164944,0.974048,7.000000,-2.520000,-2.380000,19.87
377755,0.330864,-0.166896,0.968680,7.560000,-2.310000,-2.310000,19.87
377767,0.337208,-0.162992,0.971120,7.420000,-1.960000,-1.960000,19.91
377778,0.344528,-0.163480,0.976976,6.370000,-1.190000,-1.610000,19.91
377789,0.344528,-0.155184,0.976488,4.620000,-0.560000,-1.190000,19.91
377801,0.340136,-0.154208,0.973560,2.660000,-0.140000,-0.910000,19.86
377813,0.332816,-0.161040,0.973072,1.330000,0.210000,-1.190000,19.86
377825,0.320128,-0.167872,0.977952,1.260000,0.280000,-1.260000,19.87
377836,0.310368,-0.165432,0.978928,2.380000,-0.070000,-1.330000,19.91
377848,0.303048,-0.162016,0.979904,3.010000,-0.700000,-1.190000,19.91
377859,0.302560,-0.158112,0.982832,3.360000,-1.540000,-0.770000,19.88
377871,0.301096,-0.152744,0.981368,3.220000,-2.380000,-0.350000,19.88
377882,0.305488,-0.157624,0.978928,3.290000,-2.870000,0.350000,19.90
377894,0.315736,-0.163968,0.976976,3.430000,-2.240000,1.610000,19.88
377905,0.308416,-0.146888,0.968680,2.450000,-4.620000,0.630000,19.88
377917,0.313784,-0.168848,0.963800,2.310000,-3.990000,1.960000,19.92
377928,0.325984,-0.167872,0.956480,1.750000,-3.640000,2.520000,19.92
377939,0.325496,-0.177632,0.960384,1.120000,-3.850000,2.310000,19.87
377951,0.323056,-0.189344,0.962824,1.260000,-3.990000,1.890000,19.90
377962,0.318664,-0.191296,0.953552,1.610000,-5.250000,0.840000,19.90
377973,0.319152,-0.202520,0.955504,2.520000,-5.810000,-0.280000,19.86
377984,0.320128,-0.192760,0.955992,3.920000,-5.810000,-1.120000,19.86
377995,0.319152,-0.185928,0.967704,4.130000,-5.740000,-1.820000,19.88
378007,0.319152,-0.172752,0.970632,3.640000,-5.950000,-1.960000,19.90
378018,0.319152,-0.166896,0.960384,2.730000,-6.300000,-2.170000,19.90
378030,0.320128,-0.172752,0.953064,3.080000,-6.860000,-2.520000,19.87
378041,0.325008,-0.175192,0.952088,3.990000,-7.210000,-2.660000,19.86
378053,0.326960,-0.167384,0.957944,4.830000,-7.420000,-2.660000,19.86
378064,0.326472,-0.153232,0.959896,4.830000,-7.700000,-2.450000,19.92
378076,0.331840,-0.149328,0.961360,3.850000,-7.560000,-2.100000,19.92
378087,0.326960,-0.146888,0.958432,2.800000,-7.280000,-1.680000,19.89
378099,0.323056,-0.150304,0.944768,2.660000,-7.280000,-1.820000,19.85
378111,0.319152,-0.150792,0.944280,3.290000,-7.350000,-2.170000,19.85
378122,0.321104,-0.144448,0.938912,3.850000,-7.490000,-2.450000,19.94
378134,0.331352,-0.139080,0.940864,3.430000,-7.210000,-2.310000,19.94
378145,0.329888,-0.128344,0.944280,2.240000,-6.510000,-2.030000,19.89
378157,0.320128,-0.126880,0.950136,1.260000,-6.370000,-1.890000,19.89
378168,0.315248,-0.134200,0.943792,1.050000,-6.510000,-1.890000,19.89
378180,0.311832,-0.146888,0.938912,2.520000,-6.650000,-2.100000,19.87
378192,0.312808,-0.139568,0.932080,4.690000,-6.580000,-2.240000,19.94
378204,0.319152,-0.124440,0.942328,4.690000,-6.370000,-1.960000,19.94
378215,0.321104,-0.110776,0.947208,3.150000,-6.370000,-1.540000,19.92
378227,0.319640,-0.110776,0.945744,0.910000,-6.230000,-1.330000,19.92
