timestamp_ms,ax,ay,az,gx,gy,gz,tempC
14255,0.490440,-0.362096,0.683200,-2.940000,20.160000,-27.370001,17.94
14268,0.460672,-0.316224,0.658312,18.340000,31.709999,-36.259998,17.99
14281,0.422120,-0.185928,0.651480,11.620000,24.780001,-38.500000,17.95
14292,0.399672,-0.167872,0.671488,8.750000,27.299999,-46.130001,17.95
14303,0.416264,-0.144936,0.672464,-1.960000,38.430000,-66.709999,17.97
14315,0.233264,-0.274256,0.795928,-32.619999,21.280001,-157.850006,17.91
14327,-0.293288,-0.439200,0.777384,-5.810000,85.820000,-211.470001,17.91
14339,1.587952,-0.246440,0.599264,11.760000,1.610000,-92.400002,18.00
14351,0.411872,-0.143472,0.827160,3.990000,33.599998,-80.150002,17.95
14363,0.122488,-0.087352,0.865224,12.040000,19.740000,-71.120003,17.95
14374,0.321104,-0.013664,0.874008,2.030000,20.230000,-101.290001,17.95
14385,0.241072,-0.009272,0.877912,-14.770000,36.820000,-39.340000,17.95
14396,0.167384,0.035136,0.872544,-14.770000,12.740000,-56.770000,17.94
14407,0.252784,0.016592,0.883280,-24.850000,12.320000,-60.130001,17.94
14419,0.251808,-0.081496,0.883280,-24.990000,10.080000,-59.080002,17.94
14430,0.270840,-0.163480,0.870592,-15.960000,16.240000,-54.110001,17.92
14441,0.224480,-0.075640,0.912072,-10.850000,19.670000,-50.259998,17.92
14453,0.107360,0.210816,0.857904,-21.000000,12.880000,-37.520000,17.99
14464,0.018056,0.290848,1.158512,-53.060001,11.270000,-22.469999,17.93
14475,0.235216,-0.175192,1.213656,-37.029999,13.650000,-22.820000,17.93
14487,0.366488,-0.037576,1.184376,-45.009998,38.290001,0.770000,18.02
14498,0.144448,-0.179584,1.037976,-23.100000,3.290000,-14.840000,18.02
14510,0.392352,-0.256200,0.984784,3.290000,10.990000,-10.360000,17.99
14522,0.332328,-0.296704,0.873520,29.400000,12.810000,-13.020000,17.98
14533,0.345016,-0.137128,0.858392,49.560001,9.100000,-18.340000,17.98
14544,0.350872,-0.032208,0.947208,50.400002,2.730000,-21.139999,18.00
14555,0.411872,0.029280,1.057496,40.320000,4.410000,-20.719999,17.94
14566,0.380152,0.185440,1.096536,24.360001,-0.070000,-15.190000,17.94
14577,0.383568,0.172752,1.116056,1.190000,-7.140000,-9.660000,17.96
14588,0.455792,0.011224,1.091656,-13.300000,-4.970000,-8.190000,17.96
14600,0.466040,-0.032208,1.038464,-18.760000,-1.540000,-4.060000,17.96
14611,0.471408,-0.154696,1.002840,-12.250000,-3.780000,-5.390000,17.99
14623,0.489952,-0.182512,0.932568,3.920000,-5.460000,-4.410000,17.99
14634,0.499712,-0.139080,0.914024,14.140000,-4.760000,-4.130000,17.95
14646,0.504592,-0.110288,0.930128,17.920000,-4.130000,-6.230000,17.95
14657,0.505568,-0.091256,0.935008,19.389999,-4.690000,-4.970000,17.97
14669,0.510936,-0.048312,0.931104,14.770000,-6.020000,-2.730000,17.95
14680,0.519232,-0.081984,0.924272,8.750000,-6.230000,-1.330000,17.95
14691,0.522160,-0.084912,0.904264,2.660000,-4.900000,-0.910000,18.01
14703,0.509472,-0.109800,0.890600,-3.430000,-1.610000,-0.700000,18.01
14714,0.481168,-0.152744,0.866688,-4.480000,-1.120000,-1.750000,17.98
14726,0.466528,-0.164944,0.854000,0.000000,-0.210000,-2.730000,17.98
14738,0.462624,-0.164944,0.859856,6.370000,1.610000,-4.480000,17.98
14749,0.452376,-0.113704,0.997472,6.020000,2.450000,-4.270000,17.99
14760,0.434808,-0.093696,0.902800,4.480000,2.660000,-4.480000,17.99
14771,0.423584,-0.067832,0.912072,1.960000,3.360000,-3.920000,17.97
14782,0.423584,-0.075640,0.916952,-0.910000,3.500000,-3.500000,18.01
14794,0.420168,-0.086376,0.915000,-2.100000,3.710000,-2.380000,18.01
14806,0.426512,-0.087352,0.911584,-2.380000,4.900000,-1.330000,17.96
14818,0.420656,-0.109800,0.903776,0.140000,4.690000,-2.380000,17.97
14830,0.428464,-0.087840,0.915000,3.710000,5.320000,-2.100000,17.97
14841,0.423584,-0.076616,0.929640,3.220000,4.340000,-1.820000,17.99
14852,0.439688,-0.085888,0.947696,1.400000,3.570000,-1.260000,17.99
14863,0.436760,-0.089792,0.949160,-1.120000,3.360000,-0.420000,17.97
14874,0.432368,-0.107848,0.951112,-2.310000,2.310000,-0.630000,17.96
14886,0.431880,-0.116632,0.930128,-0.980000,1.890000,-0.630000,17.96
14897,0.432368,-0.106384,0.926224,1.260000,1.680000,-1.050000,17.98
14909,0.426024,-0.081984,0.926224,-0.070000,0.910000,-0.770000,17.98
14920,0.427976,-0.082960,0.940864,-2.590000,0.980000,-0.840000,18.03
14932,0.422120,-0.090280,0.943792,-5.390000,0.490000,-0.700000,17.97
14944,0.417240,-0.099064,0.943792,-7.280000,-0.210000,-0.490000,17.97
14955,0.417240,-0.108336,0.937448,-7.630000,0.280000,-0.840000,17.99
14967,0.415776,-0.115656,0.932568,-6.650000,-0.350000,-0.910000,17.98
14979,0.425536,-0.126880,0.930616,-4.620000,-0.280000,-1.330000,17.98
14991,0.423584,-0.134688,0.932080,-0.980000,-0.700000,-1.960000,17.97
15003,0.422120,-0.106872,0.934032,0.840000,-0.210000,-2.030000,17.97
15014,0.414312,-0.085400,0.937936,0.140000,-0.630000,-1.470000,17.98
15026,0.411872,-0.075152,0.935984,-0.630000,-0.840000,-1.120000,17.98
15037,0.414312,-0.075152,0.929152,-2.100000,-1.260000,-0.350000,17.98
15049,0.423096,-0.087352,0.928176,-4.200000,-1.680000,0.000000,18.02
15060,0.421144,-0.103456,0.921832,-3.780000,-1.260000,-0.140000,17.94
15072,0.419680,-0.109312,0.920368,-2.940000,-1.190000,-0.140000,17.94
15084,0.421144,-0.123952,0.924760,-1.050000,-1.400000,-0.420000,17.98
15095,0.426024,-0.122976,0.936472,0.560000,-1.330000,-0.560000,17.98
15107,0.423096,-0.119560,0.935008,1.400000,-1.190000,-0.630000,17.98
15119,0.425048,-0.121024,0.930616,0.980000,-1.470000,-0.700000,18.00
15130,0.428464,-0.118584,0.934032,0.140000,-1.680000,-0.700000,18.00
15142,0.426512,-0.112728,0.935008,-1.190000,-1.750000,-0.770000,17.97
15154,0.424560,-0.117608,0.933056,-2.170000,-1.610000,-1.120000,17.97
15166,0.421144,-0.120536,0.926712,-2.240000,-1.750000,-1.260000,17.97
15177,0.424560,-0.121024,0.921832,-2.730000,-1.610000,-1.400000,17.98
15189,0.420656,-0.136152,0.915488,-2.100000,-1.540000,-1.540000,17.98
15200,0.420656,-0.128344,0.919392,-1.400000,-1.540000,-1.890000,18.00
15212,0.413824,-0.112728,0.922320,0.560000,-0.980000,-2.240000,17.99
15223,0.413824,-0.107360,0.923296,0.770000,-0.630000,-2.240000,17.99
15234,0.415288,-0.103944,0.923296,1.190000,-0.840000,-2.310000,18.01
15246,0.417240,-0.104920,0.927688,0.910000,-1.260000,-2.310000,17.96
15257,0.417240,-0.087840,0.933056,-0.980000,-1.260000,-1.750000,17.96
15269,0.415776,-0.097600,0.934520,-1.330000,-1.470000,-1.680000,17.99
15280,0.416264,-0.100040,0.934032,-0.840000,-1.260000,-1.400000,17.99
15292,0.413824,-0.096136,0.930616,-0.070000,-1.400000,-1.190000,17.95
15304,0.416752,-0.090280,0.930616,0.000000,-1.960000,-0.770000,18.00
15315,0.420656,-0.088816,0.927688,-1.120000,-1.890000,-0.070000,18.00
15327,0.419680,-0.100040,0.931592,-2.450000,-2.310000,0.420000,18.00
15338,0.416752,-0.098088,0.936472,-2.730000,-2.240000,1.050000,18.00
15349,0.412848,-0.104432,0.937936,-2.380000,-2.380000,1.330000,18.02
15361,0.415776,-0.115168,0.927200,-1.540000,-2.030000,1.470000,18.00
15372,0.421144,-0.121024,0.918904,0.560000,-1.890000,1.400000,18.00
15384,0.421144,-0.108824,0.927688,1.470000,-2.100000,1.470000,18.02
15395,0.422120,-0.092720,0.932568,0.980000,-2.450000,1.680000,18.01
15406,0.418216,-0.097112,0.935008,-0.700000,-2.520000,1.960000,18.01
15418,0.413336,-0.112728,0.935496,-1.610000,-2.730000,1.820000,18.00
15429,0.416264,-0.124928,0.932568,-1.960000,-2.730000,1.820000,18.00
15441,0.416264,-0.133712,0.929640,-0.910000,-2.590000,1.400000,18.03
15452,0.414800,-0.126392,0.929640,0.070000,-2.380000,1.400000,17.97
15463,0.415776,-0.129808,0.925248,0.770000,-2.380000,1.050000,17.97
15475,0.419680,-0.131760,0.921832,1.260000,-2.100000,0.910000,18.01
15486,0.412360,-0.125904,0.924760,1.540000,-2.030000,0.770000,18.01
15497,0.409920,-0.120048,0.928664,1.330000,-1.750000,0.630000,17.97
15508,0.407968,-0.126880,0.923296,2.100000,-1.540000,0.070000,18.00
15519,0.410896,-0.117608,0.920856,2.520000,-1.540000,-0.070000,18.00
15531,0.413824,-0.110288,0.929152,1.680000,-2.100000,-0.140000,18.00
15543,0.420168,-0.109800,0.929640,0.350000,-2.100000,-0.070000,18.00
15554,0.419680,-0.116632,0.931104,-0.490000,-2.100000,-0.140000,18.02
15566,0.421144,-0.123464,0.930616,-0.210000,-1.890000,-0.070000,17.98
15578,0.415776,-0.122976,0.932568,0.280000,-2.100000,0.140000,17.98
15589,0.414800,-0.121024,0.935496,1.050000,-2.100000,0.000000,17.99
15601,0.413824,-0.117120,0.935008,1.120000,-2.100000,0.210000,17.94
15612,0.418216,-0.120048,0.929640,1.540000,-2.380000,0.070000,17.94
15624,0.417240,-0.118096,0.924272,2.450000,-2.100000,-0.070000,17.96
15635,0.411872,-0.109800,0.917928,2.380000,-2.100000,0.140000,17.96
15647,0.410896,-0.103944,0.921832,0.980000,-2.730000,0.490000,18.00
15658,0.415288,-0.114680,0.927200,0.070000,-2.520000,0.630000,17.98
15669,0.412848,-0.119560,0.929640,-0.070000,-2.170000,0.770000,17.98
15681,0.408456,-0.123464,0.922808,1.260000,-1.680000,0.560000,18.00
15692,0.406992,-0.117120,0.922320,1.960000,-1.890000,0.420000,18.00
15704,0.410896,-0.112240,0.934032,1.190000,-2.520000,0.140000,17.99
15715,0.413824,-0.114192,0.937936,0.350000,-2.450000,0.140000,17.99
15726,0.416752,-0.123952,0.938912,0.070000,-2.310000,0.140000,17.99
15737,0.414800,-0.127368,0.937448,0.560000,-2.380000,-0.140000,18.02
15749,0.411872,-0.123464,0.935008,0.630000,-2.380000,0.280000,18.02
15760,0.409920,-0.119560,0.928664,0.560000,-2.520000,0.140000,18.02
15772,0.409920,-0.120536,0.926712,1.050000,-2.520000,0.210000,17.98
15784,0.412848,-0.114192,0.931592,1.050000,-2.590000,0.490000,17.98
15795,0.412848,-0.110776,0.929152,0.280000,-2.380000,0.770000,18.01
15806,0.415776,-0.120536,0.931592,0.770000,-2.450000,0.770000,18.02
15817,0.417728,-0.122000,0.932080,1.470000,-2.730000,0.980000,18.02
15828,0.416264,-0.123952,0.929640,1.750000,-2.800000,0.980000,18.00
15840,0.416752,-0.126392,0.931592,2.100000,-2.310000,1.050000,18.00
15852,0.411384,-0.124440,0.924272,2.730000,-2.240000,0.350000,18.02
15864,0.408944,-0.112728,0.925248,1.890000,-2.240000,0.420000,17.96
15876,0.406016,-0.109800,0.928176,0.000000,-2.520000,0.420000,17.96
15887,0.411384,-0.117120,0.924272,-0.630000,-2.170000,0.140000,18.00
15899,0.412848,-0.126880,0.916952,-0.770000,-1.960000,0.000000,17.99
15911,0.416752,-0.132248,0.927200,0.350000,-2.380000,-0.140000,17.99
15923,0.418704,-0.119560,0.936472,1.470000,-2.590000,-0.140000,18.05
15934,0.419192,-0.115656,0.941352,1.610000,-2.590000,17.850000,18.05
15946,0.419192,-0.121512,0.937936,1.260000,-2.520000,-0.140000,18.06
15957,0.413824,-0.122000,0.933056,0.770000,-2.660000,-0.280000,18.05
15969,0.414312,-0.125904,0.927688,1.260000,-2.590000,-0.280000,18.05
15980,0.412360,-0.116144,0.923784,1.470000,-2.660000,-0.140000,18.02
15991,0.407968,-0.102968,0.930616,0.910000,-3.010000,0.000000,18.02
16003,0.414312,-0.110288,0.924760,0.490000,-2.660000,0.140000,18.01
16014,0.411872,-0.121024,0.926224,0.140000,-2.870000,0.070000,18.02
16026,0.410896,-0.125904,0.929152,0.140000,-3.010000,0.140000,18.02
16037,0.412848,-0.127368,0.936960,0.910000,-2.730000,0.000000,18.03
16049,0.412360,-0.123952,0.932080,1.400000,-2.730000,-0.210000,18.00
16060,0.413336,-0.116144,0.930128,1.330000,-2.730000,-0.420000,18.00
16072,0.416264,-0.115168,0.933056,1.540000,-2.800000,-0.140000,18.06
16083,0.415288,-0.109800,0.927200,0.770000,-2.800000,0.140000,18.06
16095,0.413336,-0.116144,0.924272,0.210000,-3.010000,0.140000,18.04
16106,0.410896,-0.113704,0.921344,0.140000,-2.940000,0.210000,18.02
16118,0.409432,-0.116632,0.923296,0.140000,-2.940000,0.070000,18.02
16130,0.412360,-0.122976,0.927688,0.210000,-3.080000,0.000000,18.04
16141,0.414800,-0.122000,0.926712,0.000000,-2.870000,-0.140000,18.04
16152,0.413824,-0.127856,0.924760,0.210000,-2.660000,-0.350000,17.99
16163,0.418216,-0.125416,0.929640,0.630000,-2.660000,-0.210000,18.01
16175,0.414312,-0.112728,0.929640,0.630000,-2.590000,-0.070000,18.01
16186,0.412360,-0.118096,0.930128,0.630000,-2.520000,0.070000,18.02
16198,0.410896,-0.115168,0.930128,0.840000,-2.520000,0.140000,18.02
16209,0.408456,-0.122976,0.924760,1.820000,-2.590000,-0.140000,18.02
16221,0.413336,-0.112728,0.922320,1.890000,-2.590000,-0.070000,17.96
16232,0.416264,-0.114680,0.927200,1.050000,-3.080000,0.070000,17.96
16243,0.425536,-0.121512,0.929640,0.350000,-2.800000,0.070000,18.06
16255,0.416752,-0.126880,0.930616,0.210000,-2.520000,0.140000,18.02
16266,0.417728,-0.127856,0.936472,0.560000,-2.870000,0.140000,18.02
16277,0.413336,-0.122488,0.935984,1.120000,-2.730000,0.140000,18.04
16289,0.411384,-0.121512,0.935008,0.980000,-2.870000,0.140000,18.04
16300,0.412848,-0.128832,0.924272,0.980000,-2.800000,-0.210000,18.04
16312,0.415776,-0.129320,0.918416,1.400000,-2.730000,-0.490000,18.03
16324,0.414312,-0.124440,0.916952,0.840000,-2.800000,-0.420000,18.03
16335,0.411872,-0.124928,0.926712,0.490000,-3.010000,-0.630000,18.02
16346,0.414800,-0.122000,0.930616,0.280000,-2.660000,-0.630000,18.02
16358,0.414312,-0.122976,0.927688,-0.420000,-2.450000,-0.770000,18.02
16369,0.416752,-0.131760,0.921832,0.140000,-2.520000,-0.910000,18.04
16381,0.421144,-0.124928,0.915976,0.910000,-2.030000,-0.980000,18.04
16392,0.416264,-0.118584,0.914512,1.190000,-1.750000,-1.050000,18.07
16404,0.415288,-0.105896,0.924760,1.540000,-1.750000,-0.910000,18.04
16415,0.425048,-0.104920,0.927200,1.680000,-1.680000,-0.910000,18.04
16427,0.440176,-0.105408,0.918416,2.870000,-1.190000,-0.700000,17.98
16438,0.479704,-0.101504,0.896456,4.760000,-0.560000,-0.420000,17.98
16450,0.501664,-0.103944,0.879376,6.510000,1.330000,-1.470000,18.03
16461,0.501664,-0.099552,0.882792,8.050000,4.060000,-2.450000,17.99
16473,0.487512,-0.084424,0.893040,8.610000,7.840000,-1.610000,17.99
16484,0.487512,-0.075640,0.925248,7.490000,9.800000,1.190000,18.07
16495,0.467016,-0.069296,0.968680,4.340000,11.270000,4.970000,18.07
16506,0.466528,-0.069296,1.001864,-0.560000,13.580000,8.470000,18.01
16517,0.463600,-0.110776,1.009184,-4.900000,16.450001,11.760000,18.03
16528,0.438712,-0.115656,1.003328,-6.930000,19.110001,12.670000,18.03
16540,0.423584,-0.133224,1.013088,-8.960000,21.420000,14.560000,18.04
16552,0.407480,-0.155672,1.014064,-9.310000,23.309999,15.190000,18.05
16563,0.397720,-0.173240,1.019432,-8.610000,24.920000,15.470000,18.05
16574,0.377712,-0.202032,1.017968,-2.870000,25.969999,14.980000,18.06
16585,0.377224,-0.201056,1.027728,3.990000,27.020000,15.260000,18.06
16597,0.363560,-0.220088,1.021872,12.040000,25.969999,14.630000,18.06
16608,0.380152,-0.248880,1.015528,24.290001,27.230000,12.740000,18.04
16620,0.372344,-0.237168,0.998448,35.770000,28.070000,9.870000,18.04
16631,0.355264,-0.210816,1.005768,43.889999,28.280001,6.930000,18.06
16642,0.328912,-0.168848,1.017480,47.110001,25.410000,4.690000,18.06
16653,0.323544,-0.081008,1.034072,45.990002,26.040001,4.760000,18.05
16665,0.282552,-0.020984,1.045296,36.750000,24.709999,8.330000,18.05
16676,0.238144,0.042944,1.030656,20.650000,17.219999,8.610000,18.05
16688,0.227896,0.044408,1.015528,2.940000,9.240000,12.110000,18.10
16699,0.239120,0.022448,0.992592,-13.930000,6.300000,13.860000,18.10
16709,0.233264,0.005368,0.972584,-24.360001,0.840000,14.630000,18.07
16721,0.315248,-0.025376,0.953552,-38.500000,12.180000,17.010000,18.02
16732,0.213744,-0.085888,0.944280,-40.810001,6.020000,12.040000,18.02
16743,0.249368,-0.161528,0.948184,-34.020000,0.280000,14.980000,18.07
16754,0.243024,-0.183000,0.939888,-24.500000,-3.850000,17.920000,18.07
16766,0.274744,-0.182512,0.931104,-16.100000,-6.090000,19.530001,18.02
16778,0.302072,-0.146888,0.918904,-11.130000,-3.220000,12.180000,18.05
16789,0.290360,-0.137616,0.901824,-8.890000,-2.170000,8.400000,18.05
16801,0.298656,-0.129320,0.891088,-8.540000,-1.330000,7.840000,18.08
16813,0.294752,-0.095648,0.878888,-10.220000,-2.450000,7.910000,18.08
16824,0.293288,-0.089792,0.881816,-13.580000,-4.270000,8.400000,18.06
16836,0.310856,-0.094184,0.881328,-16.520000,-3.920000,8.120000,18.07
16847,0.315736,-0.116632,0.885720,-17.639999,-3.500000,7.560000,18.07
16858,0.323056,-0.124440,0.893040,-17.850000,-1.470000,7.000000,18.06
16870,0.315736,-0.143472,0.891088,-16.799999,-0.210000,5.390000,18.00
16881,0.317200,-0.156160,0.897432,-12.740000,0.350000,5.110000,18.00
16893,0.312320,-0.139568,0.899384,-9.310000,0.630000,5.040000,18.05
16904,0.310368,-0.131272,0.898896,-8.050000,1.540000,5.530000,18.05
16916,0.312808,-0.138592,0.910120,-8.120000,3.360000,6.440000,18.07
16927,0.303536,-0.150304,0.926224,-6.930000,4.690000,6.860000,18.02
16939,0.305488,-0.156648,0.937936,-5.670000,5.320000,7.700000,18.02
16950,0.300608,-0.161528,0.947696,-4.130000,5.530000,8.190000,18.07
16962,0.298656,-0.161528,0.951112,-3.920000,5.810000,8.750000,18.07
16973,0.302072,-0.171776,0.958432,-3.990000,6.020000,8.960000,18.04
16985,0.297192,-0.181048,0.969168,-4.340000,6.370000,8.820000,18.05
16996,0.294264,-0.200080,0.973072,-3.570000,5.810000,8.750000,18.05
17007,0.287432,-0.201544,0.972584,-2.030000,5.110000,7.910000,18.05
17018,0.281576,-0.206424,0.976488,-0.210000,4.480000,7.280000,18.05
17030,0.277184,-0.209352,0.977952,1.260000,3.150000,6.230000,18.05
17041,0.270352,-0.209840,0.981368,1.960000,1.960000,4.900000,18.04
17052,0.273280,-0.199104,0.979416,1.890000,1.120000,4.060000,18.04
17063,0.273280,-0.194224,0.983320,1.260000,0.490000,3.430000,18.02
17074,0.279624,-0.184952,0.984296,-0.420000,-0.630000,3.920000,18.07
17086,0.277184,-0.184464,0.989664,-2.590000,-1.610000,3.850000,18.07
17097,0.276696,-0.201544,0.986736,-3.360000,-2.450000,3.220000,18.02
17108,0.276208,-0.214720,0.980392,-2.940000,-3.290000,2.520000,18.02
17120,0.279624,-0.216184,0.974536,-0.700000,-3.710000,1.470000,18.06
17132,0.281088,-0.210328,0.970632,1.610000,-3.780000,0.560000,18.06
17143,0.278160,-0.199592,0.964288,2.030000,-4.060000,0.490000,18.06
17155,0.286456,-0.191784,0.966240,1.190000,-3.990000,0.630000,18.05
17166,0.281088,-0.189344,0.970144,-0.490000,-4.130000,0.910000,18.05
17177,0.282064,-0.196176,0.972584,-1.610000,-4.480000,0.700000,18.08
17189,0.278648,-0.206424,0.969656,-1.120000,-4.970000,0.560000,18.01
17201,0.283040,-0.211304,0.962336,-0.350000,-4.410000,0.420000,18.01
17212,0.285480,-0.217648,0.957456,1.190000,-4.340000,0.490000,18.07
17223,0.283528,-0.210816,0.952576,2.590000,-4.060000,-0.350000,18.07
17235,0.282552,-0.203008,0.952576,3.990000,-3.500000,-0.700000,18.04
17246,0.282552,-0.196176,0.948184,4.830000,-3.430000,-1.190000,18.09
17258,0.286456,-0.185440,0.952088,4.130000,-3.430000,-0.840000,18.09
17269,0.286456,-0.188368,0.955016,2.590000,-3.920000,-0.980000,18.03
17280,0.292312,-0.191296,0.951112,1.330000,-3.920000,-0.700000,18.04
17292,0.295728,-0.196176,0.954040,1.120000,-4.200000,-0.770000,18.04
17303,0.299144,-0.194224,0.956968,0.840000,-3.780000,-0.910000,18.05
17315,0.299632,-0.189344,0.961360,1.120000,-3.500000,-0.840000,18.05
17326,0.297680,-0.183488,0.963800,1.050000,-3.360000,-0.700000,18.08
17338,0.297680,-0.185928,0.962336,0.770000,-3.570000,-0.630000,18.07
17349,0.300608,-0.192272,0.960384,1.050000,-3.710000,-0.770000,18.07
17360,0.298656,-0.186904,0.961360,1.190000,-3.430000,-0.630000,18.05
17372,0.296704,-0.185928,0.955016,1.540000,-3.360000,-0.280000,18.05
17383,0.296704,-0.185440,0.957944,2.240000,-3.010000,-0.070000,18.05
17394,0.292800,-0.170312,0.965752,3.010000,-2.870000,0.140000,18.04
17406,0.291336,-0.165432,0.968680,2.240000,-3.220000,0.630000,18.04
17417,0.297192,-0.179096,0.973560,2.100000,-3.360000,0.910000,18.08
17428,0.297680,-0.174704,0.974048,1.960000,-3.710000,1.120000,18.08
17439,0.299144,-0.175192,0.974048,1.120000,-3.920000,1.540000,18.08
17451,0.296704,-0.184952,0.967704,0.910000,-4.130000,1.330000,18.09
17462,0.295728,-0.192760,0.970632,1.260000,-4.550000,1.330000,18.09
17473,0.298656,-0.194712,0.965752,2.520000,-4.760000,0.910000,18.09
17485,0.298656,-0.184464,0.965752,3.220000,-4.970000,0.840000,18.05
17496,0.303536,-0.172264,0.972096,2.100000,-5.250000,0.980000,18.05
17507,0.303536,-0.177144,0.975024,1.400000,-5.460000,0.840000,18.10
17519,0.302560,-0.179096,0.975024,0.700000,-5.810000,0.630000,18.10
17530,0.298656,-0.194224,0.970144,0.770000,-6.020000,0.350000,18.11
17541,0.295240,-0.194712,0.961360,1.680000,-5.880000,-0.140000,18.06
17553,0.298656,-0.192272,0.960384,2.660000,-5.880000,-0.140000,18.06
17564,0.296216,-0.177632,0.957456,2.240000,-5.740000,0.210000,18.11
17575,0.296216,-0.172264,0.965752,1.190000,-5.670000,0.630000,18.11
17586,0.294752,-0.181048,0.967704,1.120000,-5.670000,0.770000,18.06
17598,0.294752,-0.178608,0.970632,0.910000,-5.880000,0.770000,18.05
17609,0.296216,-0.182024,0.973072,0.980000,-5.740000,0.630000,18.05
17620,0.297680,-0.185440,0.967216,1.820000,-5.600000,0.350000,18.07
17632,0.297680,-0.176656,0.962824,1.470000,-5.460000,0.420000,18.07
17643,0.296704,-0.181048,0.960384,0.630000,-5.040000,0.840000,18.09
17654,0.294752,-0.185928,0.966240,0.210000,-5.180000,0.840000,18.12
17666,0.295240,-0.191784,0.968192,0.280000,-5.250000,0.770000,18.12
17677,0.296216,-0.197152,0.963800,0.700000,-5.320000,0.420000,18.06
17689,0.302072,-0.201544,0.955992,1.470000,-4.900000,-0.070000,18.06
17701,0.307440,-0.191296,0.959408,1.890000,-4.760000,-0.140000,18.05
17712,0.306952,-0.184952,0.965264,0.980000,-4.550000,-0.210000,18.06
17724,0.304512,-0.188368,0.963800,0.490000,-4.480000,-0.070000,18.06
17735,0.300120,-0.192272,0.961360,0.490000,-4.480000,0.000000,18.12
17747,0.303536,-0.196176,0.958920,1.610000,-4.410000,-0.280000,18.04
17758,0.305976,-0.180560,0.955504,1.610000,-4.480000,-0.280000,18.04
17770,0.307928,-0.183488,0.963312,0.910000,-4.410000,-0.490000,18.07
17781,0.308416,-0.190808,0.964776,0.980000,-4.130000,-0.770000,18.07
17792,0.301584,-0.177632,0.964776,1.190000,-4.270000,-0.560000,18.09
17804,0.300120,-0.173728,0.965264,0.490000,-4.760000,-0.280000,18.09
17815,0.306952,-0.175192,0.958432,-0.140000,-4.900000,-0.070000,18.09
17826,0.306952,-0.185928,0.956968,0.000000,-4.550000,-0.350000,18.05
17838,0.304512,-0.180560,0.961848,0.420000,-4.200000,-0.210000,18.05
17849,0.302560,-0.174216,0.961360,0.140000,-4.410000,0.350000,18.07
17861,0.303536,-0.172752,0.962824,-0.630000,-4.550000,0.700000,18.05
17872,0.305488,-0.184464,0.958920,-0.280000,-4.270000,0.560000,18.05
17883,0.300608,-0.183000,0.954040,0.350000,-4.060000,0.560000,18.07
17895,0.305000,-0.183488,0.951600,1.540000,-4.130000,0.140000,18.04
17906,0.305000,-0.174704,0.950624,1.750000,-3.850000,0.070000,18.04
17917,0.304024,-0.174216,0.948672,1.540000,-3.430000,0.350000,18.06
17928,0.302072,-0.173240,0.950136,1.260000,-3.220000,0.490000,18.06
17940,0.302072,-0.167872,0.954040,0.280000,-3.360000,0.910000,18.06
17951,0.308416,-0.178608,0.955504,-0.350000,-3.220000,0.980000,18.06
17963,0.305000,-0.192272,0.955016,0.560000,-2.940000,0.560000,18.04
17974,0.303536,-0.186416,0.957456,1.120000,-3.010000,0.490000,18.07
17986,0.305000,-0.189832,0.955016,1.400000,-3.150000,0.280000,18.07
17997,0.309392,-0.186904,0.953552,1.260000,-2.800000,0.420000,18.09
18008,0.309392,-0.194224,0.941352,2.310000,-2.030000,0.000000,18.12
18020,0.302560,-0.185440,0.935496,2.520000,-1.750000,-0.070000,18.12
18031,0.304024,-0.173240,0.952088,1.400000,-2.170000,0.350000,18.08
18042,0.301584,-0.175680,0.963800,0.070000,-2.450000,0.630000,18.08
18053,0.308904,-0.182512,0.966240,-0.560000,-2.380000,0.700000,18.07
18065,0.307928,-0.184952,0.964776,-0.770000,-2.380000,0.770000,18.06
18076,0.305488,-0.185928,0.964288,-0.420000,-2.590000,0.560000,18.06
18088,0.306952,-0.192272,0.959408,0.210000,-2.450000,0.490000,18.11
18099,0.307928,-0.200080,0.954528,1.820000,-2.240000,0.280000,18.11
18114,0.305976,-0.185440,0.955992,2.240000,-2.450000,0.490000,18.08
18126,0.310368,-0.169336,0.965264,0.980000,-2.520000,0.910000,18.06
18138,0.310856,-0.174216,0.964288,0.560000,-2.240000,0.770000,18.06
18150,0.312808,-0.176656,0.959408,0.280000,-2.030000,0.770000,18.06
18162,0.312808,-0.183976,0.958920,-0.700000,-2.030000,0.910000,18.09
18173,0.312320,-0.190320,0.961360,-0.560000,-2.100000,0.910000,18.09
18185,0.312808,-0.187880,0.963800,-0.280000,-1.890000,1.050000,18.09
18196,0.311344,-0.183976,0.967216,-0.560000,-2.030000,1.260000,18.07
18208,0.309392,-0.188856,0.967704,-0.910000,-1.960000,1.260000,18.07
18219,0.306464,-0.190808,0.965264,-0.910000,-2.240000,1.190000,18.12
18230,0.306464,-0.199104,0.961848,-0.070000,-2.170000,0.770000,18.12
18244,0.304512,-0.190320,0.958432,0.980000,-2.170000,0.770000,18.07
18255,0.309392,-0.183488,0.960384,0.490000,-2.100000,0.910000,18.08
18267,0.306952,-0.179584,0.965752,0.280000,-2.030000,1.050000,18.08
18278,0.307440,-0.175192,0.966240,-1.050000,-1.960000,1.610000,18.10
18290,0.303536,-0.185440,0.966240,-1.820000,-2.240000,1.540000,18.09
18301,0.310368,-0.198128,0.966728,-1.750000,-2.310000,1.330000,18.09
18312,0.308904,-0.203008,0.966728,-1.050000,-2.170000,0.980000,18.12
18324,0.305976,-0.196664,0.960872,-0.560000,-1.960000,0.630000,18.12
18335,0.301584,-0.197640,0.958920,-0.420000,-2.030000,0.350000,18.06
18348,0.302072,-0.193736,0.962824,-0.280000,-2.450000,0.070000,18.13
18359,0.304024,-0.192760,0.965264,-0.490000,-2.730000,0.140000,18.13
18371,0.304512,-0.192760,0.964288,-0.980000,-2.730000,-0.070000,18.10
18382,0.304512,-0.188368,0.963800,-1.610000,-2.870000,0.000000,18.08
18394,0.302072,-0.189832,0.960872,-1.750000,-2.940000,0.000000,18.08
18405,0.301096,-0.198616,0.960384,-1.120000,-3.010000,-0.140000,18.06
18417,0.301096,-0.201056,0.957944,0.070000,-3.220000,-0.280000,18.06
18428,0.302560,-0.195688,0.953552,1.190000,-3.010000,-0.560000,18.08
18441,0.305000,-0.183488,0.958920,1.120000,-2.870000,-0.350000,18.10
18454,0.301584,-0.187392,0.958432,0.630000,-2.870000,-0.070000,18.10
18465,0.305000,-0.186416,0.958432,0.140000,-2.800000,0.280000,18.10
18477,0.301584,-0.193736,0.954040,0.140000,-2.800000,0.280000,18.09
18489,0.304024,-0.203008,0.950624,0.770000,-2.800000,0.000000,18.09
18500,0.309880,-0.200080,0.940864,1.890000,-2.450000,0.000000,18.10
18512,0.305488,-0.188368,0.942816,1.750000,-2.520000,0.000000,18.09
18523,0.305488,-0.186904,0.954040,0.630000,-2.590000,-0.140000,18.09
18535,0.304024,-0.194224,0.961848,0.490000,-2.660000,-0.350000,18.14
18547,0.302560,-0.191784,0.965264,0.210000,-3.080000,-0.490000,18.14
18559,0.299144,-0.203984,0.959408,0.980000,-3.220000,-1.050000,18.09
18571,0.301096,-0.198616,0.954528,2.030000,-3.290000,-1.190000,18.11
18583,0.310856,-0.190808,0.954040,1.820000,-3.080000,-0.980000,18.11
18595,0.311344,-0.185928,0.961848,1.400000,-3.010000,-0.770000,18.07
18607,0.306464,-0.183488,0.965752,1.190000,-2.870000,-0.490000,18.06
18618,0.302560,-0.180072,0.961360,1.190000,-3.010000,-0.350000,18.06
18631,0.303536,-0.183976,0.959408,1.120000,-2.940000,-0.210000,18.10
18642,0.306952,-0.185928,0.963312,0.980000,-3.080000,-0.210000,18.07
18654,0.311344,-0.184464,0.966240,0.560000,-3.080000,0.280000,18.07
18665,0.311832,-0.182512,0.965752,0.000000,-3.150000,0.700000,18.10
18676,0.313296,-0.183976,0.964288,-0.560000,-3.010000,1.050000,18.10
18688,0.311344,-0.194712,0.963800,-0.560000,-3.080000,0.980000,18.07
18699,0.308416,-0.208864,0.964776,0.910000,-2.800000,0.490000,18.11
18711,0.305000,-0.194712,0.962824,1.890000,-2.940000,0.280000,18.11
18722,0.305488,-0.193248,0.965752,0.840000,-3.290000,0.560000,18.06
18734,0.308904,-0.198128,0.967704,-0.210000,-3.220000,0.490000,18.06
18746,0.308416,-0.200080,0.968192,-0.980000,-3.570000,0.630000,18.12
18757,0.309392,-0.206912,0.965752,-0.980000,-3.640000,0.420000,18.10
18768,0.305976,-0.208376,0.956480,-0.140000,-3.640000,0.000000,18.10
18780,0.307928,-0.204960,0.952088,0.700000,-3.990000,-0.140000,18.12
18791,0.311344,-0.203008,0.955504,0.490000,-3.570000,-0.490000,18.10
18803,0.311832,-0.200080,0.953064,1.190000,-3.080000,-0.700000,18.10
18815,0.309880,-0.188856,0.949648,0.630000,-2.940000,-0.350000,18.11
18826,0.306464,-0.191296,0.947696,0.000000,-3.010000,-0.350000,18.11
18837,0.310368,-0.198616,0.953064,0.070000,-2.870000,-0.560000,18.12
18849,0.313296,-0.192272,0.956480,-0.280000,-3.010000,-0.420000,18.05
18860,0.312808,-0.194224,0.956480,-0.980000,-2.590000,0.000000,18.05
18872,0.307440,-0.194224,0.956968,-1.050000,-2.590000,-0.070000,18.14
18883,0.309392,-0.196664,0.958920,-1.050000,-2.590000,0.070000,18.14
18895,0.307928,-0.203984,0.960384,-0.210000,-2.520000,0.140000,18.09
18906,0.311832,-0.199592,0.956480,0.700000,-2.240000,0.210000,18.12
18918,0.306952,-0.192272,0.953064,1.050000,-2.170000,0.350000,18.12
18929,0.307928,-0.193736,0.949160,0.700000,-2.100000,0.350000,18.12
18941,0.306464,-0.194712,0.950136,0.420000,-1.820000,0.420000,18.11
18952,0.305976,-0.192760,0.954040,0.000000,-2.100000,0.560000,18.11
18964,0.308904,-0.203984,0.959408,0.000000,-1.960000,0.420000,18.14
18975,0.311344,-0.203008,0.955504,0.840000,-2.030000,0.140000,18.14
18987,0.311832,-0.203008,0.952088,1.190000,-2.030000,-0.210000,18.14
18998,0.308904,-0.196664,0.943304,1.400000,-1.750000,-0.280000,18.09
19010,0.312808,-0.190808,0.952088,0.770000,-1.680000,-0.070000,18.09
19021,0.310856,-0.189832,0.958920,0.000000,-1.610000,0.070000,18.11
19033,0.309880,-0.189344,0.957456,-0.490000,-1.610000,0.420000,18.11
19044,0.305976,-0.194712,0.956968,-0.630000,-1.750000,0.490000,18.12
19055,0.305976,-0.198128,0.961848,-0.210000,-1.540000,0.560000,18.12
19067,0.306952,-0.201544,0.962824,0.070000,-1.540000,0.490000,18.12
19078,0.306952,-0.207888,0.959408,1.470000,-1.680000,0.560000,18.13
19090,0.311344,-0.197152,0.964288,1.400000,-1.960000,0.770000,18.10
19101,0.308904,-0.201056,0.967216,1.120000,-2.170000,0.770000,18.10
19112,0.308904,-0.202520,0.965264,1.120000,-2.310000,0.490000,18.11
19124,0.304024,-0.203496,0.962824,0.910000,-2.520000,0.630000,18.11
19135,0.306952,-0.203984,0.961848,0.770000,-2.870000,0.350000,18.12
19146,0.306464,-0.209352,0.959408,0.840000,-3.080000,-0.070000,18.09
19157,0.305488,-0.205448,0.957944,1.120000,-3.150000,-0.490000,18.09
19169,0.307440,-0.203008,0.950136,1.050000,-3.150000,-0.630000,18.14
19181,0.306464,-0.202032,0.954040,0.770000,-3.220000,-0.700000,18.14
19192,0.308904,-0.204960,0.955504,0.630000,-3.080000,-0.840000,18.12
19205,0.305488,-0.205936,0.959408,1.050000,-2.870000,-0.980000,18.11
19218,0.304024,-0.202032,0.961360,1.120000,-3.220000,-0.980000,18.11
19229,0.305488,-0.205936,0.957456,1.330000,-3.220000,-1.260000,18.10
19241,0.307440,-0.208376,0.957456,1.750000,-3.080000,-1.330000,18.10
19252,0.305000,-0.199592,0.953552,1.680000,-2.730000,-1.540000,18.10
19264,0.304024,-0.192272,0.959896,1.120000,-2.590000,-1.190000,18.11
19275,0.308904,-0.198128,0.959896,0.910000,-2.660000,-1.050000,18.11
19287,0.313296,-0.198128,0.961360,0.770000,-2.520000,-0.700000,18.13
19298,0.312808,-0.194712,0.958920,0.350000,-2.380000,-0.490000,18.12
19309,0.310856,-0.197152,0.960872,-0.350000,-2.100000,-0.210000,18.12
19321,0.310368,-0.203008,0.961848,-0.280000,-1.960000,-0.210000,18.12
19332,0.310368,-0.205448,0.962824,0.280000,-1.750000,-0.350000,18.11
19344,0.305976,-0.197640,0.960384,0.560000,-1.750000,-0.210000,18.11
19355,0.307928,-0.189344,0.959896,-0.420000,-1.680000,0.070000,18.13
19367,0.307440,-0.202520,0.964288,-0.490000,-1.820000,0.000000,18.13
19378,0.304024,-0.196664,0.971608,-0.910000,-1.960000,0.000000,18.12
19389,0.305488,-0.203496,0.967216,-1.190000,-2.450000,-0.070000,18.10
19401,0.301096,-0.208864,0.963800,-0.840000,-2.940000,-0.630000,18.10
19412,0.303536,-0.209840,0.961848,0.000000,-3.080000,-0.910000,18.12
19424,0.311832,-0.205448,0.957456,0.560000,-3.150000,-1.120000,18.12
19436,0.310856,-0.200080,0.951112,0.980000,-2.870000,-1.260000,18.15
19447,0.308416,-0.187880,0.946232,0.630000,-2.870000,-0.840000,18.13
19458,0.309880,-0.192272,0.945744,0.210000,-2.660000,-0.770000,18.13
19470,0.312320,-0.196176,0.952576,-0.140000,-2.730000,-0.630000,18.11
19481,0.310856,-0.194224,0.954040,-0.420000,-2.660000,-0.420000,18.09
19496,0.313784,-0.200568,0.956968,-0.350000,-2.520000,-0.490000,18.09
19507,0.309880,-0.204960,0.959408,0.490000,-2.450000,-0.490000,18.14
19519,0.305488,-0.196664,0.955504,1.190000,-2.590000,-0.630000,18.14
19530,0.306952,-0.189344,0.955992,0.280000,-2.660000,-0.420000,18.14
19542,0.307928,-0.191784,0.953552,-0.210000,-2.660000,-0.280000,18.10
19554,0.307440,-0.200568,0.954040,0.000000,-2.660000,-0.140000,18.10
19565,0.307928,-0.197152,0.955016,0.070000,-2.800000,-0.070000,18.11
19577,0.306464,-0.198616,0.956968,0.350000,-2.940000,0.280000,18.10
19588,0.305000,-0.201056,0.957456,0.910000,-2.800000,0.210000,18.10
19599,0.307928,-0.198128,0.956480,0.910000,-2.800000,0.210000,18.14
19610,0.310368,-0.198616,0.954040,0.910000,-2.590000,0.070000,18.14
19621,0.309392,-0.199592,0.946232,0.980000,-2.590000,0.000000,18.13
19633,0.310368,-0.198128,0.950624,0.700000,-2.310000,0.140000,18.07
19644,0.305488,-0.201544,0.953552,0.490000,-2.520000,0.140000,18.07
19655,0.306952,-0.200568,0.959408,0.420000,-2.660000,0.280000,18.14
19667,0.306952,-0.202520,0.957944,0.280000,-2.450000,0.210000,18.14
19678,0.306952,-0.203984,0.954528,0.490000,-2.450000,0.070000,18.13
19690,0.309880,-0.203008,0.954528,0.420000,-2.520000,0.210000,18.10
19701,0.311832,-0.204960,0.955992,0.630000,-2.100000,0.140000,18.10
19712,0.305976,-0.200568,0.952088,0.420000,-2.170000,0.350000,18.12
19723,0.306952,-0.204472,0.955504,0.350000,-2.310000,0.700000,18.12
19734,0.308416,-0.204960,0.955016,0.910000,-2.100000,0.420000,18.11
19746,0.305488,-0.199104,0.954528,0.770000,-2.170000,0.490000,18.12
19757,0.305488,-0.200568,0.957456,0.280000,-1.960000,0.490000,18.12
19768,0.306952,-0.202520,0.955992,0.140000,-1.960000,0.560000,18.14
19780,0.306952,-0.205448,0.957456,0.490000,-2.100000,0.350000,18.17
19791,0.309880,-0.206424,0.958432,0.700000,-2.030000,0.280000,18.17
19802,0.307440,-0.207888,0.959408,0.840000,-1.960000,0.210000,18.11
19813,0.307440,-0.209352,0.956480,1.050000,-1.890000,0.210000,18.11
19825,0.309880,-0.207400,0.954040,1.190000,-1.610000,0.070000,18.14
19836,0.306952,-0.204472,0.955992,1.050000,-1.400000,0.210000,18.14
19848,0.305488,-0.204472,0.960872,0.560000,-1.400000,0.210000,18.14
19859,0.305976,-0.209840,0.960384,0.350000,-1.470000,0.000000,18.12
19871,0.307440,-0.211304,0.957944,0.560000,-1.260000,-0.140000,18.12
19882,0.302560,-0.207400,0.954040,0.560000,-1.190000,-0.140000,18.16
19893,0.304024,-0.203496,0.955992,0.280000,-1.120000,0.070000,18.14
19905,0.304024,-0.201544,0.961848,-0.770000,-1.190000,0.490000,18.14
19916,0.303536,-0.209840,0.962824,-0.980000,-0.980000,0.490000,18.13
19927,0.301096,-0.208376,0.968192,-0.630000,-1.050000,0.490000,18.13
19939,0.299144,-0.208864,0.965752,-0.840000,-0.980000,0.280000,18.14
19951,0.297680,-0.215208,0.966240,-0.210000,-1.190000,0.140000,18.09
19962,0.297192,-0.214232,0.962824,-0.210000,-1.190000,0.140000,18.09
19975,0.296704,-0.216184,0.960384,0.140000,-1.400000,-0.140000,18.11
19987,0.298656,-0.208376,0.965752,0.140000,-1.890000,-0.140000,18.11
19998,0.300120,-0.209840,0.964288,0.140000,-1.680000,-0.280000,18.11
20010,0.300120,-0.206424,0.963800,-0.210000,-2.030000,-0.490000,18.13
20022,0.302072,-0.213256,0.960384,0.210000,-2.170000,-0.700000,18.13
20033,0.298656,-0.206912,0.955016,0.770000,-2.310000,-0.980000,18.14
20045,0.300608,-0.200568,0.953552,0.840000,-2.450000,-0.840000,18.14
20056,0.301584,-0.199104,0.954040,0.840000,-2.590000,-0.840000,18.14
20068,0.303536,-0.196176,0.953064,0.630000,-2.450000,-0.420000,18.18
20080,0.305488,-0.199592,0.949648,0.770000,-2.240000,-0.350000,18.12
20091,0.306464,-0.200568,0.950136,0.840000,-2.170000,-0.070000,18.12
20103,0.301584,-0.201056,0.951600,0.840000,-2.170000,0.000000,18.11
20114,0.302560,-0.208864,0.952088,1.260000,-2.100000,-0.070000,18.11
20128,0.304024,-0.202032,0.953064,1.610000,-2.240000,0.000000,18.13
20139,0.305976,-0.200568,0.946720,1.260000,-2.310000,0.280000,18.17
20150,0.305976,-0.203008,0.946232,1.260000,-1.960000,0.000000,18.17
20161,0.303048,-0.199592,0.947696,1.470000,-2.100000,-0.070000,18.12
20172,0.304024,-0.200568,0.946720,1.120000,-1.890000,0.000000,18.13
20183,0.301584,-0.206424,0.950136,0.490000,-1.960000,0.210000,18.13
20194,0.304024,-0.210816,0.953064,0.840000,-1.890000,0.070000,18.13
20205,0.306952,-0.210328,0.955016,1.120000,-1.960000,0.000000,18.13
20216,0.305976,-0.208864,0.959896,1.190000,-1.960000,0.070000,18.14
20227,0.304024,-0.208864,0.959896,1.260000,-1.890000,0.070000,18.14
20238,0.305488,-0.213744,0.959896,1.610000,-1.820000,-0.070000,18.13
20250,0.305000,-0.208376,0.961360,2.030000,-1.890000,-0.280000,18.14
20261,0.303536,-0.200568,0.964776,1.400000,-2.100000,0.070000,18.14
20272,0.304512,-0.201544,0.967704,0.630000,-2.030000,0.140000,18.15
20283,0.304512,-0.208376,0.971120,0.630000,-2.240000,0.210000,18.15
20294,0.299144,-0.212280,0.967704,0.910000,-2.730000,0.280000,18.14
20305,0.305000,-0.209840,0.967216,1.330000,-2.730000,0.280000,18.20
20317,0.301096,-0.208376,0.960872,1.050000,-2.730000,0.280000,18.20
20328,0.300120,-0.208376,0.963800,0.910000,-2.660000,0.420000,18.14
20340,0.300608,-0.206424,0.963800,1.120000,-2.870000,0.560000,18.16
20351,0.298656,-0.204960,0.959896,0.840000,-3.010000,0.630000,18.16
20363,0.299632,-0.212280,0.958920,1.470000,-2.940000,0.350000,18.14
20374,0.299144,-0.203984,0.959408,1.540000,-3.080000,0.280000,18.14
20385,0.298168,-0.201056,0.962824,1.120000,-3.220000,0.280000,18.13
20396,0.300120,-0.201544,0.966240,0.210000,-3.220000,0.140000,18.14
20408,0.300608,-0.209352,0.964776,0.070000,-3.010000,0.140000,18.14
20419,0.299632,-0.208864,0.964288,-0.140000,-3.080000,0.140000,18.17
20431,0.297192,-0.215208,0.968192,-0.070000,-3.150000,0.140000,18.17
20442,0.304024,-0.212768,0.968192,0.140000,-3.150000,0.000000,18.16
20454,0.305488,-0.213744,0.969168,0.350000,-2.870000,-0.210000,18.14
20465,0.306952,-0.206912,0.970632,0.070000,-3.080000,-0.140000,18.14
20476,0.309392,-0.212280,0.969656,0.070000,-3.150000,-0.140000,18.16
20488,0.307928,-0.208864,0.975512,-0.070000,-3.430000,-0.210000,18.16
20499,0.311832,-0.209840,0.973560,-0.840000,-3.500000,-0.350000,18.14
20511,0.310856,-0.209840,0.975024,-1.190000,-3.360000,-0.770000,18.11
20522,0.307440,-0.200568,0.979904,-1.960000,-3.220000,-0.630000,18.11
20533,0.305976,-0.200568,0.982344,-2.940000,-3.850000,-0.280000,18.15
20545,0.298656,-0.207400,0.978928,-3.360000,-4.270000,0.630000,18.15
20556,0.310368,-0.222528,0.977464,-2.590000,-4.480000,1.260000,18.17
20567,0.305000,-0.224480,0.972096,-1.610000,-4.410000,1.470000,18.15
20579,0.304512,-0.210816,0.973072,-1.610000,-4.480000,1.540000,18.15
20590,0.302560,-0.218624,0.970144,-1.890000,-4.200000,0.980000,18.19
20602,0.295240,-0.206912,0.968680,-1.820000,-3.780000,0.070000,18.14
20613,0.282064,-0.190808,0.973560,-3.920000,-4.340000,0.140000,18.14
20625,0.280600,-0.207400,0.975024,-5.950000,-4.900000,0.420000,18.15
20636,0.282064,-0.230824,0.967216,-5.740000,-5.740000,0.490000,18.15
20647,0.287432,-0.248392,0.955016,-3.570000,-5.880000,0.350000,18.16
20659,0.288896,-0.251320,0.945744,-0.210000,-5.390000,-0.770000,18.16
20670,0.295728,-0.224968,0.946232,0.980000,-4.690000,-1.540000,18.16
20681,0.293776,-0.202520,0.947208,0.350000,-4.410000,-1.260000,18.16
20693,0.299144,-0.203496,0.939400,-1.400000,-4.410000,-0.770000,18.16
20704,0.305488,-0.205448,0.929152,-3.080000,-3.920000,-1.120000,18.15
20715,0.306464,-0.215208,0.921344,-3.920000,-3.710000,-0.840000,18.17
20727,0.311832,-0.219600,0.919880,-4.410000,-3.570000,-1.330000,18.17
20738,0.317688,-0.240584,0.920856,-3.430000,-3.150000,-1.470000,18.18
20749,0.320616,-0.238632,0.924760,-1.610000,-2.660000,-2.380000,18.18
20761,0.318664,-0.222528,0.932568,-1.120000,-2.100000,-2.730000,18.15
20772,0.312320,-0.216672,0.928664,-0.980000,-2.170000,-3.150000,18.15
20783,0.309880,-0.220088,0.927688,-1.120000,-1.820000,-3.500000,18.15
20794,0.305976,-0.227408,0.922808,-0.140000,-1.540000,-4.270000,18.18
20806,0.308904,-0.223016,0.923296,0.350000,-0.910000,-4.760000,18.18
20817,0.300120,-0.221552,0.924760,0.910000,-0.350000,-5.040000,18.18
20828,0.291824,-0.220088,0.929640,0.910000,-0.280000,-5.040000,18.18
20840,0.299632,-0.214232,0.938424,0.490000,0.420000,-4.900000,18.18
20851,0.298656,-0.207400,0.943304,-0.700000,1.050000,-4.760000,18.16
20862,0.297192,-0.203984,0.947208,-1.470000,1.680000,-4.130000,18.17
20874,0.294264,-0.213744,0.942328,-1.540000,2.380000,-3.430000,18.17
20885,0.294264,-0.216672,0.941840,-1.540000,2.940000,-2.380000,18.18
20896,0.297192,-0.221552,0.946720,-1.400000,3.430000,-1.680000,18.18
20908,0.299632,-0.218624,0.959896,-1.260000,4.060000,-0.910000,18.11
20919,0.295240,-0.224968,0.964776,-1.610000,3.570000,-0.560000,18.19
20931,0.298656,-0.218624,0.971608,-2.660000,3.360000,0.280000,18.19
20942,0.297192,-0.225456,0.965264,-3.360000,2.870000,0.070000,18.14
20954,0.300608,-0.238632,0.962336,-3.010000,2.660000,-0.140000,18.14
20965,0.299144,-0.244488,0.955504,-1.890000,2.520000,-0.770000,18.15
20976,0.305976,-0.245952,0.954040,-0.700000,2.660000,-1.120000,18.11
20988,0.309392,-0.234728,0.950136,0.140000,2.660000,-1.890000,18.11
20999,0.309880,-0.223504,0.950136,-0.070000,2.590000,-2.310000,18.15
21010,0.314760,-0.216672,0.944768,-1.400000,2.730000,-2.030000,18.15
21021,0.317688,-0.225456,0.935496,-1.820000,3.010000,-2.380000,18.13
21033,0.321592,-0.220576,0.930616,-1.960000,3.920000,-2.940000,18.16
21045,0.328424,-0.211304,0.938424,-2.940000,4.970000,-2.730000,18.16
21056,0.328424,-0.204960,0.955016,-4.830000,5.810000,-2.310000,18.15
21067,0.320616,-0.209352,0.957944,-6.580000,6.510000,-2.450000,18.15
21079,0.306952,-0.221064,0.957944,-6.790000,6.370000,-1.470000,18.15
21090,0.301584,-0.225456,0.957456,-6.510000,5.740000,-1.330000,18.15
21101,0.305488,-0.233752,0.959408,-5.810000,5.390000,-1.260000,18.15
21113,0.303048,-0.232288,0.968680,-5.180000,5.040000,-1.120000,18.14
21125,0.300120,-0.230824,0.973560,-4.900000,4.340000,-1.190000,18.18
21136,0.289384,-0.229360,0.967216,-4.340000,3.850000,-1.330000,18.18
21147,0.280112,-0.232288,0.962336,-3.430000,2.660000,-1.330000,18.18
21159,0.277672,-0.231312,0.960872,-2.520000,1.330000,-1.190000,18.18
21170,0.275720,-0.222528,0.967216,-2.730000,0.350000,-0.910000,18.20
21181,0.276696,-0.224968,0.972096,-3.360000,-0.840000,-0.630000,18.22
21193,0.278160,-0.235704,0.974048,-3.290000,-1.820000,-0.350000,18.22
21205,0.279136,-0.250832,0.966728,-1.190000,-2.520000,-0.490000,18.17
21216,0.277184,-0.246440,0.963312,0.910000,-3.080000,-0.630000,18.17
21227,0.277672,-0.238632,0.967216,1.820000,-3.500000,-0.700000,18.12
21238,0.280112,-0.240096,0.964288,2.800000,-3.780000,-0.420000,18.16
21250,0.280600,-0.239120,0.962336,2.800000,-3.920000,17.850000,18.16
21261,0.284016,-0.242048,0.964288,2.800000,-4.060000,0.280000,18.19
21272,0.283528,-0.240584,0.968680,2.520000,-4.270000,0.280000,18.19
21283,0.282552,-0.246440,0.971608,2.030000,-4.410000,0.280000,18.15
21294,0.281576,-0.254248,0.974048,1.610000,-4.410000,0.420000,18.11
21305,0.278648,-0.254248,0.972096,1.890000,-4.550000,0.280000,18.11
21316,0.277672,-0.248392,0.964288,1.820000,-4.620000,0.560000,18.16
21328,0.280112,-0.247416,0.955016,1.820000,-4.340000,0.840000,18.16
21339,0.282064,-0.241560,0.951112,1.820000,-4.270000,1.050000,18.17
21350,0.282552,-0.235216,0.960384,1.050000,-3.780000,1.750000,18.13
21361,0.283040,-0.239120,0.964288,0.490000,-3.570000,2.100000,18.13
21372,0.281088,-0.242048,0.966728,0.280000,-3.500000,2.240000,18.21
21384,0.282064,-0.244000,0.958920,0.420000,-3.430000,2.100000,18.21
21395,0.277672,-0.247904,0.956968,0.420000,-3.710000,1.820000,18.18
21406,0.279624,-0.248880,0.953064,0.700000,-3.850000,1.470000,18.21
21417,0.277672,-0.241560,0.952088,0.350000,-4.200000,1.470000,18.21
21428,0.281576,-0.237656,0.955016,-0.210000,-4.270000,1.470000,18.17
21439,0.281088,-0.236680,0.959408,-0.770000,-4.200000,1.610000,18.17
21450,0.279624,-0.243512,0.950624,-0.420000,-4.270000,1.470000,18.21
21462,0.276208,-0.248880,0.950624,0.770000,-4.410000,1.120000,18.20
21473,0.269864,-0.236680,0.947696,1.680000,-4.410000,0.980000,18.20
21484,0.265472,-0.233752,0.949648,1.750000,-4.620000,1.120000,18.16
21495,0.266448,-0.233264,0.955992,1.400000,-4.620000,0.980000,18.16
21506,0.264496,-0.231312,0.954528,1.610000,-5.040000,0.840000,18.17
21518,0.268400,-0.233752,0.941840,1.610000,-5.250000,0.910000,18.14
21529,0.269864,-0.236680,0.939888,1.750000,-5.180000,0.700000,18.14
21540,0.268400,-0.234728,0.944768,2.030000,-4.900000,0.770000,18.18
21551,0.271328,-0.239120,0.950136,2.100000,-4.970000,0.840000,18.18
21562,0.272304,-0.237656,0.948672,2.030000,-4.830000,0.840000,18.20
21573,0.273280,-0.243024,0.947208,2.030000,-4.760000,0.420000,18.18
21585,0.273768,-0.250344,0.944280,2.800000,-4.620000,-0.070000,18.18
21596,0.276208,-0.248392,0.946720,3.150000,-4.550000,-0.490000,18.16
21607,0.274744,-0.237656,0.951600,2.800000,-4.480000,-0.490000,18.16
21618,0.279624,-0.236680,0.953552,2.240000,-4.340000,-0.420000,18.18
21630,0.281088,-0.236680,0.947696,1.750000,-3.920000,-0.210000,18.20
21641,0.279136,-0.240584,0.947696,1.540000,-3.850000,-0.140000,18.20
21653,0.281088,-0.244976,0.953064,1.680000,-3.500000,0.000000,18.18
21664,0.280112,-0.241560,0.951112,2.100000,-2.800000,0.210000,18.18
21676,0.278160,-0.237168,0.953552,2.030000,-2.660000,0.560000,18.20
21687,0.280600,-0.240096,0.964776,1.190000,-2.450000,0.910000,18.22
21698,0.284016,-0.248392,0.965264,0.770000,-2.380000,0.980000,18.22
21709,0.287920,-0.259616,0.967216,1.190000,-2.520000,0.630000,18.15
21721,0.284992,-0.259128,0.961360,1.680000,-2.380000,0.280000,18.20
21732,0.281088,-0.253272,0.959408,1.890000,-2.520000,-0.070000,18.20
21744,0.285480,-0.247904,0.959408,1.050000,-2.520000,-0.280000,18.18
21754,0.286944,-0.245952,0.962336,0.350000,-2.450000,-0.490000,18.18
21766,0.284016,-0.247416,0.961360,-0.280000,-2.590000,-0.420000,18.23
21778,0.287432,-0.252296,0.960872,-0.420000,-2.520000,-0.630000,18.16
21789,0.284992,-0.256688,0.957456,0.840000,-2.520000,-1.120000,18.16
21800,0.282064,-0.246928,0.953064,1.470000,-2.660000,-1.260000,18.21
21811,0.284992,-0.237656,0.950624,0.980000,-2.660000,-1.400000,18.21
21823,0.288408,-0.237656,0.954040,0.560000,-2.380000,-1.750000,18.21
21834,0.287432,-0.231312,0.949160,-0.070000,-2.170000,-1.750000,18.19
21846,0.286944,-0.227408,0.951112,-0.770000,-2.170000,-1.680000,18.19
21857,0.289384,-0.233264,0.954528,-1.190000,-2.170000,-1.470000,18.20
21869,0.295240,-0.241072,0.956968,-1.190000,-1.820000,-1.540000,18.20
21880,0.295728,-0.239120,0.955016,-0.700000,-1.610000,-1.470000,18.18
21892,0.291336,-0.233264,0.954528,-0.210000,-1.680000,-1.400000,18.20
21903,0.289872,-0.229360,0.951112,0.280000,-1.470000,-1.470000,18.20
21914,0.288896,-0.224968,0.949160,0.280000,-1.470000,-1.260000,18.22
21926,0.288408,-0.220576,0.952576,-0.490000,-1.540000,-0.770000,18.21
21938,0.288896,-0.221064,0.954528,-1.050000,-1.680000,-0.420000,18.21
21949,0.286944,-0.228872,0.953552,-0.700000,-1.610000,-0.420000,18.20
21961,0.287432,-0.228872,0.951112,-0.140000,-1.960000,-0.350000,18.20
21972,0.289872,-0.235216,0.955016,-0.070000,-2.310000,0.000000,18.19
21984,0.288896,-0.239120,0.961848,0.140000,-2.590000,-0.280000,18.15
21995,0.291824,-0.235704,0.964776,0.490000,-2.940000,0.070000,18.15
22007,0.291336,-0.235704,0.962824,0.560000,-3.290000,-0.210000,18.22
22018,0.287432,-0.238632,0.953552,0.980000,-3.430000,-0.560000,18.22
22029,0.288896,-0.238144,0.951600,1.540000,-3.780000,-0.630000,18.23
22041,0.287432,-0.228384,0.950624,1.120000,-3.780000,-0.280000,18.18
22053,0.286456,-0.232288,0.952088,0.560000,-4.200000,-0.070000,18.18
22064,0.292312,-0.238632,0.951112,0.910000,-3.990000,0.070000,18.17
22075,0.292312,-0.244000,0.950136,1.610000,-3.780000,0.000000,18.17
22087,0.289872,-0.237656,0.950136,1.750000,-3.570000,0.210000,18.17
22098,0.290360,-0.243512,0.955504,1.610000,-3.220000,0.350000,18.20
22109,0.289872,-0.243024,0.956968,1.750000,-3.010000,0.560000,18.20
22120,0.289384,-0.240096,0.950624,1.400000,-3.150000,0.770000,18.16
22132,0.290848,-0.237656,0.949648,0.700000,-3.010000,0.980000,18.14
22143,0.289384,-0.243512,0.946232,0.280000,-2.660000,0.770000,18.14
22154,0.284992,-0.254248,0.947208,0.840000,-2.100000,0.700000,18.21
22165,0.287432,-0.248392,0.946720,1.190000,-2.030000,0.840000,18.21
22177,0.284504,-0.244976,0.946232,1.400000,-2.100000,0.910000,18.19
22188,0.288408,-0.241560,0.948672,1.190000,-1.820000,0.770000,18.16
22200,0.289384,-0.244000,0.945744,1.050000,-1.750000,0.490000,18.16
22211,0.288408,-0.244000,0.944768,0.840000,-1.540000,0.350000,18.23
22222,0.286456,-0.240096,0.948184,0.490000,-1.750000,0.070000,18.23
22234,0.287432,-0.247904,0.956480,0.700000,-1.960000,-0.210000,18.22
22246,0.285968,-0.249856,0.957944,1.330000,-2.240000,-0.700000,18.21
22257,0.285968,-0.248880,0.956480,1.610000,-2.450000,-0.980000,18.21
22268,0.284992,-0.244488,0.955016,1.610000,-2.380000,-1.330000,18.19
22280,0.283528,-0.235704,0.960384,1.120000,-2.520000,-1.120000,18.19
22291,0.286944,-0.237168,0.961360,0.630000,-2.450000,-1.050000,18.18
22303,0.282552,-0.235704,0.957944,0.980000,-2.310000,-0.910000,18.19
22314,0.282552,-0.237168,0.957944,0.910000,-2.450000,-0.630000,18.19
22326,0.283040,-0.236680,0.958432,1.050000,-2.450000,-0.420000,18.19
22338,0.284504,-0.240096,0.958432,1.120000,-2.380000,-0.350000,18.20
22349,0.285968,-0.241560,0.958432,1.260000,-2.520000,-0.280000,18.20
22360,0.288896,-0.241560,0.955504,1.260000,-2.380000,-0.350000,18.18
22371,0.284992,-0.242048,0.955504,1.400000,-2.100000,-0.280000,18.18
22382,0.285480,-0.241072,0.955992,1.190000,-2.310000,0.000000,18.21
22394,0.286944,-0.239120,0.960384,0.840000,-2.380000,0.070000,18.20
22406,0.286944,-0.239120,0.954528,0.630000,-2.380000,-0.070000,18.20
22417,0.287432,-0.249368,0.950624,0.630000,-2.030000,-0.140000,18.23
22428,0.286944,-0.247416,0.953552,1.050000,-2.100000,-0.420000,18.23
22439,0.288408,-0.242536,0.961360,0.770000,-2.100000,-0.350000,18.18
22450,0.286944,-0.244488,0.958432,0.770000,-2.240000,-0.490000,18.15
22462,0.288408,-0.247904,0.957944,0.700000,-2.170000,-0.560000,18.15
22473,0.284992,-0.247904,0.956480,1.050000,-2.310000,-0.980000,18.21
22484,0.286944,-0.241072,0.954528,1.120000,-2.590000,-0.980000,18.21
22498,0.288896,-0.232288,0.956968,0.350000,-2.450000,-0.630000,18.20
22509,0.291336,-0.232776,0.956968,-0.210000,-2.590000,-0.280000,18.22
22520,0.292312,-0.237168,0.956480,-0.210000,-2.310000,-0.070000,18.22
22532,0.292312,-0.242536,0.952088,0.350000,-2.170000,-0.070000,18.18
22544,0.292800,-0.241072,0.952088,0.980000,-1.960000,0.000000,18.21
22555,0.288408,-0.238632,0.955016,1.400000,-2.030000,0.000000,18.21
22566,0.287432,-0.233752,0.955992,1.120000,-1.960000,0.070000,18.19
22578,0.285480,-0.232776,0.953064,0.840000,-2.030000,0.210000,18.19
22589,0.281576,-0.230824,0.955504,0.280000,-2.310000,0.350000,18.23
22600,0.287920,-0.237656,0.961848,-0.070000,-2.590000,0.350000,18.20
22611,0.286456,-0.245464,0.963800,0.420000,-2.450000,0.140000,18.20
22622,0.285480,-0.242536,0.959896,0.980000,-2.800000,0.070000,18.21
22633,0.286944,-0.242536,0.958432,1.120000,-2.730000,0.070000,18.21
22645,0.285480,-0.241072,0.956480,1.610000,-2.870000,0.000000,18.21
22656,0.284992,-0.241072,0.955992,1.540000,-2.940000,0.000000,18.18
22668,0.283528,-0.239120,0.951600,1.330000,-2.730000,-0.070000,18.18
22679,0.284992,-0.235216,0.955992,0.840000,-3.080000,0.000000,18.21
22690,0.288896,-0.242536,0.955992,0.490000,-2.940000,0.070000,18.21
22701,0.291824,-0.244000,0.954040,0.700000,-2.870000,-0.070000,18.19
22713,0.291336,-0.246440,0.951600,0.980000,-2.660000,-0.070000,18.25
22724,0.288408,-0.244976,0.950624,1.330000,-2.730000,-0.140000,18.25
22736,0.285968,-0.238144,0.954528,1.190000,-2.380000,0.000000,18.27
22747,0.286944,-0.237656,0.956968,0.630000,-2.170000,0.280000,18.23
22758,0.281576,-0.237656,0.957456,0.140000,-2.170000,0.280000,18.23
22771,0.285480,-0.247904,0.952088,0.280000,-2.170000,0.350000,18.23
22782,0.289384,-0.243512,0.957456,0.280000,-2.170000,0.280000,18.23
22793,0.287920,-0.250832,0.957456,0.490000,-2.170000,0.140000,18.20
22805,0.284992,-0.246928,0.962824,0.630000,-2.310000,0.140000,18.18
22816,0.282552,-0.246440,0.956480,1.050000,-2.380000,-0.140000,18.18
22827,0.287920,-0.239120,0.950624,0.840000,-2.310000,0.000000,18.27
22838,0.284992,-0.239120,0.947208,0.560000,-2.310000,-0.210000,18.27
22850,0.286944,-0.235216,0.953064,-0.070000,-2.310000,-0.140000,18.23
22861,0.286944,-0.238632,0.956480,-0.350000,-2.450000,-0.210000,18.25
22874,0.284992,-0.247416,0.955992,0.140000,-2.450000,-0.350000,18.25
22885,0.283528,-0.244488,0.955504,0.630000,-2.520000,-0.490000,18.22
22896,0.285480,-0.245952,0.957944,1.120000,-2.590000,-0.770000,18.17
22908,0.284016,-0.239120,0.954528,1.330000,-2.590000,-0.840000,18.17
22919,0.285480,-0.236192,0.957944,1.050000,-2.660000,-0.560000,18.23
22930,0.284504,-0.235216,0.957944,0.630000,-2.660000,-0.350000,18.23
22942,0.285968,-0.237168,0.958920,0.350000,-2.730000,-0.280000,18.26
22953,0.284016,-0.239608,0.957456,0.770000,-2.940000,-0.350000,18.25
22965,0.286456,-0.242048,0.955992,1.050000,-2.870000,-0.420000,18.25
22977,0.285480,-0.236680,0.954040,1.330000,-2.800000,-0.350000,18.24
22988,0.287432,-0.235216,0.956968,1.050000,-2.800000,-0.210000,18.24
22999,0.287432,-0.235704,0.960872,0.560000,-2.730000,0.000000,18.23
23010,0.284992,-0.240584,0.958432,0.350000,-2.730000,0.070000,18.20
23022,0.283528,-0.245464,0.962336,0.420000,-2.660000,0.070000,18.20
23033,0.286944,-0.249856,0.958920,0.910000,-3.010000,-0.070000,18.24
23044,0.287920,-0.247416,0.958432,1.120000,-2.800000,-0.280000,18.24
23056,0.286944,-0.243024,0.955504,0.770000,-2.730000,-0.210000,18.21
23067,0.286456,-0.244000,0.953552,0.280000,-2.800000,-0.140000,18.21
23079,0.288896,-0.245952,0.956480,0.000000,-3.010000,0.000000,18.21
23090,0.290360,-0.252296,0.956968,0.420000,-3.010000,-0.420000,18.27
23103,0.290848,-0.246440,0.953552,0.770000,-2.940000,-0.560000,18.21
23115,0.291824,-0.240584,0.951112,0.630000,-2.800000,-0.630000,18.21
23126,0.287920,-0.241560,0.948672,0.630000,-2.590000,-0.840000,18.25
23137,0.290360,-0.238144,0.947208,0.630000,-2.520000,-0.560000,18.25
23150,0.287432,-0.233752,0.950136,0.420000,-2.660000,-0.490000,18.27
23162,0.289384,-0.236192,0.955504,0.420000,-2.310000,-0.350000,18.25
23173,0.287432,-0.232288,0.957944,0.420000,-2.380000,-0.280000,18.25
23185,0.284504,-0.231800,0.954040,0.000000,-2.310000,0.140000,18.25
23198,0.284016,-0.242536,0.955504,0.140000,-2.450000,0.140000,18.26
23210,0.285968,-0.244488,0.952088,0.840000,-2.520000,0.280000,18.26
23221,0.285968,-0.242048,0.953064,1.540000,-2.520000,0.280000,18.21
23232,0.284504,-0.238632,0.955504,1.400000,-2.450000,0.210000,18.21
23243,0.287432,-0.239608,0.957456,1.190000,-2.520000,0.280000,18.21
23255,0.284992,-0.243512,0.953064,1.190000,-2.730000,0.210000,18.24
23266,0.285480,-0.242536,0.949648,1.050000,-2.800000,0.140000,18.24
23277,0.287920,-0.248392,0.949648,1.190000,-2.870000,-0.140000,18.22
23288,0.291824,-0.246928,0.952576,1.260000,-2.730000,0.000000,18.19
23299,0.295728,-0.244976,0.952576,1.120000,-2.520000,-0.140000,18.19
23311,0.293288,-0.241072,0.952576,1.330000,-2.380000,-0.070000,18.20
23322,0.291336,-0.240096,0.953064,1.120000,-2.310000,0.000000,18.20
23333,0.291336,-0.240096,0.954528,0.490000,-2.240000,0.280000,18.24
23344,0.293288,-0.246928,0.959408,0.210000,-2.240000,0.210000,18.21
23355,0.290360,-0.245464,0.962336,0.070000,-2.100000,0.210000,18.21
23366,0.288408,-0.250344,0.961848,0.350000,-2.100000,0.280000,18.25
23377,0.287432,-0.248880,0.964776,0.630000,-2.240000,0.210000,18.25
23388,0.282064,-0.246928,0.959896,0.840000,-2.310000,0.210000,18.25
23399,0.286456,-0.245952,0.960384,0.630000,-2.660000,0.420000,18.25
23411,0.291336,-0.240096,0.958920,0.420000,-2.450000,0.350000,18.22
23422,0.287432,-0.238632,0.957456,-0.280000,-2.450000,0.630000,18.24
23433,0.289872,-0.246440,0.958920,-0.700000,-2.450000,0.910000,18.24
23444,0.288896,-0.252784,0.958432,-0.350000,-2.450000,0.770000,18.27
23456,0.285480,-0.252296,0.955016,0.210000,-2.590000,0.770000,18.25
23467,0.286456,-0.253272,0.953552,1.050000,-2.520000,0.280000,18.25
23478,0.286456,-0.245464,0.951600,1.120000,-2.450000,-0.070000,18.20
23489,0.287920,-0.243512,0.948184,0.420000,-2.380000,-0.070000,18.20
23500,0.289384,-0.241560,0.954528,-0.210000,-2.310000,0.000000,18.23
23512,0.286944,-0.244976,0.954040,-0.700000,-2.590000,0.140000,18.23
23523,0.283528,-0.252296,0.952576,-0.280000,-2.520000,-0.140000,18.23
23535,0.279136,-0.255224,0.950136,0.630000,-2.590000,-0.700000,18.30
23546,0.283528,-0.242048,0.955016,0.700000,-2.660000,-0.700000,18.30
23557,0.279624,-0.239608,0.956968,0.280000,-2.660000,-0.630000,18.25
23568,0.280600,-0.237168,0.956968,0.070000,-2.940000,-0.490000,18.24
23580,0.279624,-0.244000,0.959408,0.140000,-3.010000,-0.210000,18.24
23591,0.281088,-0.251320,0.949648,0.910000,-3.220000,-0.350000,18.24
23603,0.279136,-0.253272,0.948184,1.960000,-3.360000,-0.770000,18.24
23614,0.283040,-0.244488,0.947208,2.170000,-3.500000,-0.840000,18.20
23625,0.284992,-0.234728,0.950624,1.610000,-3.570000,-0.770000,18.22
23636,0.285968,-0.233752,0.956480,0.140000,-3.570000,-0.420000,18.22
23647,0.289384,-0.245464,0.957944,-0.630000,-3.570000,-0.140000,18.25
23658,0.286456,-0.253272,0.957944,0.070000,-3.640000,-0.490000,18.25
23670,0.285480,-0.256688,0.951600,0.980000,-3.850000,-0.560000,18.23
23681,0.286456,-0.259128,0.947208,2.100000,-3.710000,-0.840000,18.20
23693,0.284016,-0.243024,0.946720,2.590000,-3.570000,-0.980000,18.20
23704,0.286456,-0.233752,0.949160,1.470000,-3.430000,-0.490000,18.28
23716,0.287432,-0.237168,0.951600,0.420000,-3.290000,-0.280000,18.28
23727,0.285480,-0.246928,0.945256,0.350000,-3.290000,-0.350000,18.25
23739,0.286944,-0.246440,0.946232,0.910000,-3.150000,-0.420000,18.23
23750,0.289384,-0.248880,0.946232,1.330000,-3.150000,-0.560000,18.23
23761,0.292800,-0.247904,0.946232,1.750000,-2.870000,-0.700000,18.25
23773,0.289872,-0.242048,0.943304,1.750000,-2.730000,-0.630000,18.25
23784,0.289872,-0.237168,0.946232,1.330000,-2.450000,-0.350000,18.21
23796,0.288408,-0.232776,0.950136,1.050000,-2.450000,-0.280000,18.26
23807,0.290360,-0.235216,0.953064,0.210000,-2.450000,0.140000,18.26
23818,0.289384,-0.244976,0.955016,-0.070000,-2.520000,0.000000,18.27
23830,0.286944,-0.252784,0.950136,0.420000,-2.590000,-0.140000,18.23
23841,0.288896,-0.252296,0.953552,1.400000,-2.450000,-0.280000,18.23
23852,0.287432,-0.243024,0.955504,1.610000,-2.730000,-0.350000,18.23
23864,0.289872,-0.242536,0.960872,1.470000,-3.010000,-0.420000,18.23
23875,0.287432,-0.244488,0.959896,1.400000,-3.220000,-0.560000,18.23
23886,0.286944,-0.244000,0.955992,1.260000,-3.430000,-0.630000,18.25
23897,0.287432,-0.242048,0.951112,0.980000,-3.640000,-0.980000,18.25
23908,0.285968,-0.245952,0.949160,1.400000,-3.500000,-1.120000,18.26
23920,0.286944,-0.245464,0.955016,1.750000,-3.710000,-1.050000,18.26
23931,0.291336,-0.237656,0.954528,1.540000,-3.500000,-0.560000,18.24
23943,0.291336,-0.238632,0.954528,1.050000,-3.710000,-0.490000,18.26
23954,0.295728,-0.249856,0.954528,1.400000,-3.290000,-0.490000,18.26
23965,0.292800,-0.244488,0.949648,2.100000,-3.080000,-0.700000,18.23
23977,0.287920,-0.238144,0.946720,2.380000,-3.080000,-0.630000,18.23
23988,0.291336,-0.241072,0.948184,1.750000,-2.730000,-0.560000,18.27
24000,0.292312,-0.237168,0.954040,1.120000,-2.590000,-0.280000,18.25
24011,0.294264,-0.240096,0.958432,0.210000,-2.450000,0.070000,18.25
24022,0.294264,-0.251320,0.956968,0.700000,-2.240000,-0.140000,18.26
24033,0.292800,-0.247416,0.954528,1.120000,-2.310000,0.000000,18.26
24045,0.298656,-0.248392,0.958432,1.260000,-2.380000,-0.140000,18.26
24057,0.293288,-0.240096,0.961360,0.700000,-2.450000,-0.070000,18.28
24068,0.290848,-0.241560,0.965264,-0.140000,-2.590000,0.280000,18.28
24080,0.287432,-0.243512,0.962824,-0.630000,-2.940000,0.280000,18.24
24091,0.285480,-0.249368,0.957944,-0.070000,-3.290000,0.280000,18.24
24102,0.283528,-0.247904,0.959896,0.700000,-3.640000,-0.070000,18.24
24114,0.284504,-0.249368,0.961360,1.540000,-4.060000,-0.350000,18.29
24125,0.285968,-0.244488,0.963312,1.820000,-4.410000,-0.630000,18.29
24137,0.286456,-0.245464,0.966240,1.610000,-4.690000,-0.910000,18.26
24148,0.283040,-0.239608,0.959896,1.540000,-4.620000,-0.840000,18.23
24160,0.277184,-0.241072,0.951600,1.680000,-4.900000,-0.980000,18.23
24172,0.284016,-0.245464,0.951112,1.610000,-5.040000,-0.840000,18.27
24183,0.286944,-0.251808,0.955016,1.610000,-5.110000,-0.560000,18.27
24195,0.293288,-0.250344,0.958432,1.540000,-5.180000,-0.630000,18.21
24206,0.291336,-0.251808,0.959896,1.400000,-5.250000,-0.770000,18.30
24217,0.292312,-0.254736,0.952576,1.470000,-5.250000,-0.980000,18.30
24229,0.296216,-0.252784,0.943792,1.750000,-5.320000,-1.330000,18.27
24240,0.295240,-0.250832,0.938912,1.610000,-5.460000,-1.400000,18.26
24252,0.295728,-0.248880,0.947208,1.190000,-5.390000,-1.400000,18.26
24264,0.296704,-0.241560,0.950624,0.630000,-5.180000,-1.610000,18.29
24275,0.296704,-0.247416,0.951112,0.280000,-5.040000,-1.680000,18.29
24286,0.298656,-0.252784,0.948672,0.630000,-4.760000,-2.030000,18.24
24298,0.294264,-0.245952,0.945744,0.980000,-4.760000,-2.380000,18.26
24309,0.290360,-0.246928,0.944280,1.190000,-4.620000,-2.520000,18.26
24321,0.294752,-0.244488,0.942816,1.400000,-4.410000,-2.100000,18.25
24332,0.297192,-0.241072,0.941840,1.330000,-4.340000,-1.960000,18.25
24344,0.300120,-0.236192,0.944280,1.260000,-4.270000,-1.960000,18.27
24355,0.300608,-0.237656,0.945256,0.980000,-4.130000,-1.890000,18.29
24367,0.303536,-0.243024,0.944280,0.980000,-4.060000,-1.890000,18.29
24378,0.302560,-0.236680,0.940864,1.120000,-3.920000,-1.750000,18.26
24390,0.299144,-0.235704,0.941840,1.190000,-3.710000,-1.610000,18.22
24402,0.302560,-0.233264,0.946232,1.050000,-3.710000,-1.540000,18.22
24414,0.301096,-0.232776,0.947696,0.770000,-3.500000,-1.260000,18.26
24426,0.302072,-0.236192,0.948184,0.910000,-3.430000,-1.120000,18.26
24437,0.303536,-0.229848,0.951112,1.050000,-3.360000,-1.120000,18.25
24449,0.307440,-0.232776,0.949160,0.700000,-3.290000,-0.770000,18.28
24460,0.308904,-0.238144,0.953064,1.050000,-3.080000,-0.840000,18.28
24472,0.305976,-0.229360,0.956968,1.330000,-3.080000,-0.840000,18.31
24484,0.300608,-0.225456,0.958432,0.840000,-3.220000,-0.840000,18.20
24495,0.304024,-0.232776,0.964776,0.210000,-3.430000,-0.630000,18.20
24506,0.304512,-0.239120,0.966728,0.420000,-3.710000,-0.700000,18.26
24518,0.305976,-0.234240,0.966240,0.140000,-3.850000,-0.140000,18.26
24529,0.305000,-0.232776,0.963312,0.000000,-4.130000,-0.140000,18.25
24541,0.305000,-0.241072,0.964288,0.280000,-4.270000,-0.140000,18.23
24552,0.306464,-0.245464,0.961360,0.910000,-4.550000,-0.140000,18.23
24564,0.311832,-0.244000,0.955992,1.470000,-4.550000,-0.070000,18.31
24575,0.309880,-0.237656,0.955504,1.400000,-4.550000,-0.210000,18.24
24586,0.310856,-0.236680,0.953552,0.980000,-4.690000,0.000000,18.24
24598,0.311832,-0.241072,0.948672,0.770000,-4.550000,0.140000,18.28
24609,0.312808,-0.240096,0.946232,0.700000,-4.690000,0.140000,18.28
24621,0.311344,-0.244488,0.942328,0.700000,-5.040000,-0.070000,18.27
24633,0.321104,-0.238632,0.940376,0.490000,-4.550000,0.000000,18.26
24645,0.320616,-0.235216,0.934520,0.420000,-4.060000,0.140000,18.26
24656,0.321104,-0.231312,0.935008,-0.070000,-3.850000,0.350000,18.27
24667,0.321104,-0.238144,0.933544,-0.420000,-3.710000,0.700000,18.27
24679,0.319152,-0.238144,0.929640,-0.070000,-3.640000,0.840000,18.26
24690,0.323056,-0.236680,0.932080,0.420000,-3.430000,1.120000,18.26
24702,0.322080,-0.237168,0.932568,0.350000,-2.800000,1.190000,18.26
24713,0.318176,-0.237168,0.930616,0.700000,-2.730000,1.330000,18.29
24725,0.318664,-0.235704,0.934032,0.770000,-2.660000,1.470000,18.29
24737,0.321592,-0.236680,0.932080,0.840000,-2.380000,1.540000,18.29
24749,0.322080,-0.230824,0.932080,0.420000,-2.170000,1.750000,18.26
24761,0.318176,-0.237168,0.933056,-0.140000,-2.100000,1.890000,18.26
24772,0.317200,-0.246440,0.933056,0.210000,-1.960000,1.890000,18.29
24783,0.311344,-0.245464,0.935984,1.050000,-1.820000,1.890000,18.25
24795,0.310856,-0.244000,0.937448,1.610000,-1.820000,1.960000,18.25
24806,0.309880,-0.244000,0.940376,1.890000,-1.820000,1.750000,18.25
24818,0.305488,-0.243024,0.943304,1.890000,-1.750000,1.820000,18.25
24829,0.310368,-0.240584,0.941352,2.520000,-1.540000,1.960000,18.23
24840,0.304024,-0.230336,0.942328,1.680000,-1.820000,2.240000,18.28
24852,0.306952,-0.242048,0.947208,1.190000,-1.540000,2.520000,18.28
24863,0.305488,-0.245952,0.947696,1.470000,-1.470000,2.450000,18.26
24875,0.302072,-0.242048,0.949160,1.610000,-1.400000,2.660000,18.27
24887,0.305488,-0.244976,0.946720,1.680000,-1.330000,2.520000,18.27
24898,0.308416,-0.237168,0.943304,1.750000,-0.980000,2.520000,18.29
24911,0.311832,-0.223504,0.948672,1.050000,-0.630000,3.080000,18.29
24922,0.307440,-0.224480,0.953552,0.140000,-0.210000,3.570000,18.29
24933,0.304024,-0.233264,0.951600,-0.490000,-0.140000,3.990000,18.25
24945,0.308416,-0.237168,0.948184,-0.140000,0.070000,4.060000,18.25
24957,0.310856,-0.235704,0.955504,0.000000,0.490000,4.060000,18.34
24968,0.309880,-0.232776,0.965752,-0.280000,0.840000,4.130000,18.27
24980,0.302072,-0.228872,0.972096,-1.050000,0.980000,4.480000,18.27
24991,0.296704,-0.237168,0.973072,-1.610000,0.210000,4.830000,18.29
25003,0.295728,-0.257664,0.968192,-0.980000,-0.630000,4.760000,18.29
25014,0.300120,-0.259128,0.967704,0.140000,-1.400000,4.270000,18.27
25026,0.304512,-0.261080,0.971608,0.700000,-1.680000,3.850000,18.25
25037,0.302072,-0.249368,0.975024,0.350000,-1.890000,3.570000,18.25
25048,0.309392,-0.247416,0.976000,-0.490000,-2.380000,3.640000,18.26
25060,0.309880,-0.248880,0.975512,-1.680000,-2.730000,3.850000,18.29
25072,0.308904,-0.264984,0.976976,-2.310000,-3.710000,4.340000,18.29
25083,0.308416,-0.274256,0.977952,-1.470000,-4.550000,4.200000,18.31
25095,0.310368,-0.265472,0.983808,-1.260000,-5.040000,3.780000,18.31
25106,0.311832,-0.262544,0.982344,-1.330000,-5.670000,3.710000,18.31
25118,0.309392,-0.264496,0.980880,-1.750000,-5.670000,4.060000,18.32
25129,0.304024,-0.263032,0.978440,-2.030000,-6.020000,4.200000,18.32
25141,0.299632,-0.267912,0.974048,-2.100000,-6.440000,4.410000,18.27
25153,0.299632,-0.268400,0.975024,-1.470000,-7.280000,4.340000,18.27
25165,0.299144,-0.265472,0.973072,-1.330000,-7.910000,4.270000,18.29
25176,0.298656,-0.269864,0.967704,-1.190000,-7.910000,4.410000,18.33
25188,0.299632,-0.261080,0.963800,-1.400000,-7.770000,4.550000,18.33
25200,0.296704,-0.247904,0.963800,-2.520000,-7.910000,4.620000,18.27
25211,0.293776,-0.252784,0.956968,-3.500000,-8.540000,4.270000,18.25
25222,0.293776,-0.269376,0.946720,-3.010000,-8.890000,3.990000,18.25
25233,0.293776,-0.268400,0.937448,-2.240000,-9.170000,3.780000,18.30
25245,0.298168,-0.263032,0.934520,-1.820000,-8.820000,4.200000,18.30
25257,0.296704,-0.261568,0.936472,-1.470000,-8.750000,4.060000,18.32
25269,0.296216,-0.254248,0.934520,-1.820000,-9.100000,3.780000,18.31
25281,0.292312,-0.266448,0.929152,-1.680000,-9.450000,2.590000,18.31
25293,0.293776,-0.271816,0.927200,-1.120000,-9.660000,2.170000,18.32
25305,0.297192,-0.274744,0.921344,-0.910000,-9.240000,2.380000,18.30
25316,0.298168,-0.282552,0.912560,0.210000,-9.170000,1.890000,18.30
25327,0.301096,-0.272792,0.913048,0.980000,-9.380000,1.260000,18.34
25338,0.303048,-0.248880,0.924760,0.350000,-9.940000,1.330000,18.34
25349,0.312808,-0.249368,0.923784,-0.420000,-10.360000,1.260000,18.32
25361,0.309392,-0.254248,0.915488,-0.840000,-10.360000,1.400000,18.35
25372,0.311344,-0.259128,0.908656,-0.350000,-10.150000,1.750000,18.35
25384,0.315248,-0.252296,0.909632,0.000000,-9.940000,2.030000,18.29
25395,0.311832,-0.253272,0.919880,-0.070000,-9.730000,1.680000,18.29
25407,0.311832,-0.256200,0.921832,0.630000,-9.730000,1.120000,18.31
25418,0.315248,-0.259616,0.921344,0.770000,-9.940000,0.980000,18.30
25430,0.320128,-0.272304,0.917440,1.750000,-10.010000,0.420000,18.30
25442,0.323056,-0.261568,0.915000,2.660000,-9.660000,0.070000,18.33
25453,0.324032,-0.258152,0.919392,2.310000,-9.450000,0.350000,18.30
25464,0.323056,-0.264984,0.919392,1.960000,-9.450000,-0.140000,18.30
25475,0.317200,-0.277184,0.922320,3.010000,-9.310000,-0.420000,18.29
25487,0.316712,-0.269864,0.922320,3.710000,-8.960000,-0.350000,18.29
25498,0.316224,-0.265960,0.923784,3.290000,-8.330000,-0.770000,18.29
25511,0.316712,-0.275232,0.926712,3.220000,-7.840000,-1.330000,18.30
25522,0.312808,-0.269864,0.930616,3.080000,-7.630000,-1.540000,18.30
25534,0.317688,-0.273280,0.928176,2.380000,-7.630000,-1.260000,18.25
25545,0.315248,-0.278160,0.925248,2.520000,-7.210000,-1.470000,18.25
25556,0.320128,-0.269864,0.920856,2.170000,-6.580000,-1.890000,18.28
25568,0.325008,-0.275232,0.923296,2.030000,-6.230000,-2.030000,18.33
25579,0.331840,-0.274256,0.917440,1.890000,-5.670000,-1.960000,18.33
25591,0.335744,-0.271816,0.918904,1.750000,-4.830000,-2.100000,18.35
25603,0.342576,-0.267912,0.926224,1.120000,-4.130000,-1.400000,18.27
25614,0.342088,-0.268888,0.927688,0.700000,-3.780000,-1.050000,18.27
25625,0.348432,-0.278648,0.927200,0.770000,-4.060000,-0.980000,18.29
25637,0.356240,-0.286944,0.918904,1.540000,-3.920000,-1.120000,18.29
25649,0.365024,-0.285968,0.912560,2.730000,-1.820000,-2.800000,18.29
25660,0.366488,-0.266936,0.923296,1.820000,-0.070000,-3.920000,18.33
25671,0.366488,-0.256688,0.944280,-0.420000,0.700000,-3.990000,18.33
25683,0.366488,-0.249368,0.948672,-2.730000,0.560000,-3.430000,18.30
25694,0.360144,-0.256200,0.943792,-5.320000,0.490000,-2.940000,18.30
25706,0.360632,-0.260592,0.934520,-6.090000,0.770000,-2.170000,18.29
25717,0.355752,-0.259616,0.939400,-6.650000,1.260000,-1.610000,18.32
25729,0.348432,-0.262544,0.949160,-6.230000,0.770000,-0.770000,18.32
25740,0.340136,-0.268888,0.953064,-5.390000,-0.910000,0.420000,18.30
25752,0.333304,-0.276696,0.949160,-3.500000,-3.080000,1.610000,18.25
25763,0.316224,-0.291336,0.934032,-0.280000,-5.320000,1.540000,18.25
25775,0.320616,-0.301584,0.916464,3.640000,-6.930000,0.280000,18.34
25787,0.325984,-0.291336,0.909632,7.420000,-6.370000,-4.130000,18.34
25799,0.331840,-0.227408,0.948672,5.810000,-4.060000,-7.280000,18.32
25810,0.315736,-0.204960,0.977464,0.070000,-4.760000,-6.510000,18.28
25821,0.310368,-0.233752,0.956968,-4.200000,-6.860000,-5.110000,18.28
25833,0.316224,-0.283528,0.928176,-4.270000,-8.190000,-4.060000,18.30
25844,0.328912,-0.291824,0.915488,-2.030000,-8.330000,-3.150000,18.27
25856,0.340136,-0.296704,0.914512,1.750000,-7.840000,-2.730000,18.27
25868,0.353312,-0.288896,0.926224,5.250000,-6.930000,-3.500000,18.30
25879,0.352824,-0.260104,0.933544,6.720000,-6.720000,-3.920000,18.30
25890,0.347944,-0.236192,0.927200,5.810000,-7.140000,-3.430000,18.33
25902,0.345992,-0.241560,0.914512,3.290000,-7.420000,-1.890000,18.28
25913,0.342576,-0.265472,0.910608,1.820000,-7.980000,-1.400000,18.28
25925,0.354776,-0.291336,0.910608,2.240000,-8.330000,-1.960000,18.30
25936,0.358680,-0.286944,0.915488,3.990000,-7.770000,-3.990000,18.30
25948,0.365512,-0.266448,0.922808,3.920000,-6.090000,-4.200000,18.27
25959,0.366488,-0.257664,0.921832,3.500000,-5.810000,-3.570000,18.30
25971,0.371368,-0.261080,0.915000,2.940000,-5.390000,-2.520000,18.30
25982,0.366976,-0.255224,0.912072,2.100000,-5.040000,-1.540000,18.32
25994,0.371856,-0.252784,0.913536,2.030000,-4.130000,-0.350000,18.29
26005,0.374296,-0.253760,0.916952,2.310000,-3.220000,0.630000,18.29
26017,0.377712,-0.263520,0.920856,2.520000,-2.030000,1.610000,18.32
26028,0.382104,-0.264008,0.918416,3.150000,-1.050000,1.960000,18.32
26040,0.380152,-0.248392,0.915000,1.960000,-0.280000,2.590000,18.31
26051,0.380640,-0.248880,0.913536,0.490000,0.210000,2.800000,18.30
26063,0.380152,-0.263520,0.910120,-0.210000,0.770000,3.430000,18.30
26074,0.379176,-0.264008,0.917440,-1.400000,1.050000,3.150000,18.36
26085,0.376736,-0.275232,0.917928,-1.960000,1.190000,2.940000,18.36
26097,0.368440,-0.277672,0.913048,-1.050000,1.120000,2.240000,18.36
26108,0.365024,-0.270352,0.910608,0.000000,1.330000,2.100000,18.30
26119,0.357704,-0.258152,0.906216,0.630000,1.190000,1.890000,18.30
26130,0.348432,-0.257176,0.908168,0.490000,0.980000,1.820000,18.33
26141,0.345504,-0.247416,0.917440,-0.560000,0.980000,1.610000,18.33
26154,0.331352,-0.247416,0.922320,-1.330000,0.420000,1.330000,18.33
26165,0.326960,-0.254248,0.921832,-1.260000,0.000000,1.190000,18.34
26176,0.323544,-0.267424,0.915976,-0.700000,-0.560000,1.260000,18.34
26189,0.329400,-0.270352,0.914512,0.840000,-1.260000,0.910000,18.29
26200,0.330864,-0.260104,0.918904,1.820000,-1.050000,0.910000,18.32
26211,0.331352,-0.252296,0.922808,1.960000,-1.190000,0.630000,18.32
26223,0.330864,-0.248392,0.921344,1.610000,-1.330000,0.910000,18.30
26235,0.334768,-0.253760,0.922320,1.330000,-1.750000,1.050000,18.30
26247,0.341112,-0.260592,0.916464,1.470000,-1.890000,1.260000,18.30
26258,0.349896,-0.261568,0.918416,1.820000,-1.330000,1.470000,18.32
26269,0.354288,-0.260592,0.921832,1.400000,-0.980000,1.260000,18.32
26281,0.352336,-0.259616,0.925248,1.190000,-0.770000,1.120000,18.32
26293,0.351848,-0.259616,0.929640,0.630000,-1.260000,1.120000,18.33
26304,0.349896,-0.267424,0.932568,0.560000,-1.820000,1.120000,18.33
26315,0.356240,-0.274256,0.927200,1.190000,-2.100000,0.700000,18.32
26327,0.358680,-0.272792,0.922320,1.470000,-1.890000,0.280000,18.32
26338,0.358192,-0.269864,0.927200,1.960000,-1.750000,-0.350000,18.30
26350,0.356240,-0.258152,0.936472,1.680000,-1.960000,-0.490000,18.26
26361,0.350872,-0.256688,0.939400,0.980000,-2.310000,-0.350000,18.26
26373,0.347944,-0.259616,0.940864,0.700000,-2.940000,-0.350000,18.36
26385,0.348920,-0.263520,0.941840,0.840000,-3.150000,-0.420000,18.36
26396,0.348432,-0.262056,0.940864,0.910000,-3.360000,-0.420000,18.31
26408,0.344528,-0.263520,0.946720,1.190000,-3.500000,-0.560000,18.34
26419,0.343064,-0.263032,0.946232,1.820000,-3.920000,-0.420000,18.34
26431,0.345016,-0.262544,0.943304,2.310000,-4.410000,-0.560000,18.28
26444,0.341112,-0.258640,0.941840,2.520000,-4.690000,-0.490000,18.31
26456,0.342088,-0.253272,0.945256,1.750000,-5.180000,-0.350000,18.31
26467,0.342576,-0.258152,0.941352,2.030000,-5.320000,-0.210000,18.32
26479,0.346480,-0.257176,0.938912,1.820000,-5.460000,0.000000,18.25
26490,0.349408,-0.264984,0.931104,2.380000,-5.390000,0.070000,18.25
26502,0.350384,-0.260592,0.930616,2.800000,-5.250000,0.070000,18.31
26513,0.354288,-0.261568,0.930616,3.010000,-5.180000,0.140000,18.31
26524,0.355264,-0.260592,0.929640,2.660000,-5.040000,0.000000,18.32
26536,0.357216,-0.264984,0.930616,2.590000,-5.110000,0.070000,18.31
26548,0.361120,-0.265960,0.924272,3.010000,-4.760000,-0.070000,18.31
26559,0.360632,-0.261080,0.920368,2.940000,-4.410000,-0.140000,18.30
26571,0.366488,-0.261080,0.921344,2.520000,-3.990000,-0.280000,18.30
26582,0.366000,-0.262544,0.922320,2.310000,-3.360000,-0.280000,18.36
26593,0.364536,-0.253272,0.916952,1.470000,-2.660000,0.000000,18.29
26604,0.365512,-0.266936,0.922808,1.190000,-2.240000,0.070000,18.29
26616,0.364048,-0.266936,0.926224,1.330000,-1.610000,-0.280000,18.32
26627,0.354288,-0.248880,0.934520,0.630000,-1.540000,0.280000,18.32
26638,0.356728,-0.263520,0.935008,-0.770000,-0.980000,0.630000,18.30
26649,0.345016,-0.260104,0.932568,-0.770000,-1.050000,0.630000,18.33
26661,0.348920,-0.274256,0.936960,-0.420000,-1.120000,0.560000,18.33
26673,0.350384,-0.274744,0.937448,0.280000,-0.700000,0.280000,18.32
26684,0.347944,-0.262544,0.939888,0.350000,-0.770000,0.420000,18.33
26697,0.342576,-0.265472,0.935496,0.140000,-0.910000,0.280000,18.33
26710,0.340624,-0.270840,0.935008,0.350000,-1.050000,-0.210000,18.38
26722,0.338184,-0.270352,0.932080,0.490000,-1.120000,-0.350000,18.34
26734,0.343552,-0.271328,0.935008,0.630000,-1.260000,-1.050000,18.34
26745,0.337208,-0.267424,0.932080,0.700000,-1.190000,-1.610000,18.33
26757,0.337208,-0.266448,0.934520,0.070000,-1.610000,-1.750000,18.33
26768,0.329400,-0.266936,0.932568,-0.350000,-1.890000,-2.170000,18.29
26779,0.324520,-0.265960,0.934032,-0.490000,-2.310000,-2.380000,18.35
26791,0.318176,-0.273768,0.933056,-0.210000,-2.730000,-2.590000,18.35
26802,0.320616,-0.271816,0.929152,0.420000,-2.800000,-2.520000,18.37
26814,0.321104,-0.269864,0.931592,1.260000,-2.870000,-2.660000,18.37
26825,0.327936,-0.266936,0.926712,1.540000,-2.870000,-2.800000,18.34
26837,0.333792,-0.260592,0.924272,1.120000,-2.520000,-2.590000,18.32
26849,0.337696,-0.257664,0.923296,0.140000,-1.750000,-2.030000,18.32
26860,0.335744,-0.265472,0.917928,-0.350000,-1.120000,-1.470000,18.37
26872,0.342088,-0.263520,0.917440,-0.700000,-0.560000,-1.120000,18.34
26883,0.347944,-0.262544,0.921832,-1.260000,-0.070000,-0.560000,18.34
26895,0.353800,-0.266936,0.921832,-1.750000,0.630000,0.070000,18.30
26907,0.353312,-0.265472,0.924760,-2.240000,1.120000,0.490000,18.30
26918,0.359656,-0.273280,0.931104,-2.660000,1.680000,0.770000,18.32
26930,0.359656,-0.272792,0.934032,-2.730000,2.030000,0.840000,18.31
26941,0.365024,-0.271816,0.939400,-3.360000,2.310000,1.050000,18.31
26952,0.363072,-0.271816,0.941352,-4.130000,2.520000,1.190000,18.35
26963,0.360144,-0.272792,0.939400,-4.200000,2.660000,1.400000,18.35
26974,0.357216,-0.268400,0.943792,-4.200000,2.450000,1.400000,18.39
26986,0.354288,-0.266448,0.945256,-4.410000,2.030000,1.050000,18.34
26998,0.356728,-0.267912,0.946232,-4.550000,1.330000,1.260000,18.34
27009,0.345992,-0.265472,0.949160,-4.550000,0.560000,1.050000,18.36
27021,0.335744,-0.267424,0.948184,-3.990000,-0.420000,0.980000,18.33
27032,0.330864,-0.269864,0.939888,-2.800000,-1.190000,1.050000,18.33
27044,0.328912,-0.266936,0.933056,-1.750000,-2.170000,0.980000,18.35
27055,0.326472,-0.269376,0.929640,-0.840000,-3.430000,0.630000,18.35
27067,0.330376,-0.267424,0.925736,-0.210000,-4.200000,0.560000,18.37
27078,0.329400,-0.266936,0.922320,0.070000,-4.760000,0.420000,18.32
27089,0.326472,-0.267912,0.915000,0.490000,-5.320000,0.350000,18.32
27101,0.329888,-0.274256,0.906704,1.190000,-5.880000,0.420000,18.30
27113,0.335744,-0.273280,0.899872,1.960000,-6.440000,-0.070000,18.30
27124,0.340624,-0.275232,0.896944,2.100000,-6.790000,-0.280000,18.37
27136,0.346480,-0.276208,0.892064,2.310000,-6.510000,-0.280000,18.34
27147,0.345016,-0.272304,0.892552,2.170000,-6.300000,-0.700000,18.34
27159,0.339160,-0.275232,0.894992,2.380000,-6.440000,-0.840000,18.39
27170,0.335256,-0.279624,0.893040,2.870000,-6.510000,-0.910000,18.34
27182,0.337208,-0.281088,0.891576,3.430000,-6.720000,-1.120000,18.34
27194,0.345504,-0.276696,0.894992,4.270000,-6.790000,-1.610000,18.36
27206,0.351360,-0.274256,0.893528,4.620000,-6.580000,-1.820000,18.36
27217,0.354288,-0.271328,0.892064,5.110000,-6.230000,-2.030000,18.34
27229,0.359656,-0.260104,0.893040,4.760000,-5.810000,-1.540000,18.35
27240,0.370392,-0.262544,0.896944,4.200000,-5.670000,-0.980000,18.35
27252,0.374296,-0.260104,0.891088,4.270000,-5.180000,-0.910000,18.36
27263,0.376248,-0.263032,0.894016,4.690000,-4.200000,-1.050000,18.36
27274,0.374784,-0.258152,0.898896,5.390000,-3.360000,-1.190000,18.36
27286,0.354776,-0.253272,0.911096,6.160000,-6.090000,-1.750000,18.36
27297,0.368440,-0.245952,0.919392,5.110000,-3.150000,-2.940000,18.36
27308,0.358192,-0.245952,0.945744,2.590000,-1.050000,-2.240000,18.40
27320,0.354776,-0.252296,0.954528,2.100000,0.770000,-2.590000,18.37
27331,0.339648,-0.251808,0.961360,1.400000,1.260000,-2.030000,18.37
27343,0.328912,-0.257176,0.967216,2.170000,0.280000,-0.210000,18.38
27354,0.339160,-0.258640,0.973560,2.240000,-0.210000,0.840000,18.38
27365,0.344528,-0.263032,0.971120,1.820000,0.700000,1.190000,18.36
27377,0.335744,-0.263520,0.967216,2.520000,0.280000,2.590000,18.32
27388,0.334280,-0.248880,0.969168,1.540000,-0.350000,3.990000,18.32
27399,0.337696,-0.249856,0.973560,-0.490000,0.490000,4.550000,18.31
27411,0.324520,-0.265960,0.970632,-1.470000,0.070000,4.690000,18.31
27422,0.317688,-0.273280,0.976000,-2.310000,-0.910000,4.970000,18.32
27433,0.321104,-0.296216,0.969656,-1.610000,-2.240000,5.180000,18.37
27445,0.321104,-0.311344,0.960384,-0.140000,-3.010000,3.500000,18.37
27457,0.318176,-0.308904,0.955504,1.820000,-4.830000,2.450000,18.34
27468,0.325984,-0.291824,0.955016,2.030000,-5.740000,1.470000,18.35
27479,0.319152,-0.274256,0.956968,0.490000,-5.460000,0.560000,18.35
27490,0.313296,-0.273768,0.953064,-0.770000,-6.440000,0.560000,18.35
27502,0.316712,-0.283040,0.944768,-0.770000,-7.350000,0.210000,18.35
27514,0.320616,-0.287432,0.929640,-0.070000,-7.980000,-0.070000,18.40
27525,0.334768,-0.286944,0.920368,0.770000,-7.420000,-0.420000,18.32
27537,0.333304,-0.281576,0.920368,1.610000,-7.420000,-0.350000,18.32
27548,0.336720,-0.264496,0.923296,0.980000,-6.930000,0.280000,18.37
27559,0.330376,-0.259128,0.913536,-0.140000,-6.440000,0.770000,18.37
27571,0.325008,-0.260104,0.902312,-0.840000,-6.720000,1.470000,18.32
27583,0.336232,-0.270840,0.892064,-0.560000,-7.140000,1.960000,18.36
27594,0.347944,-0.276208,0.887184,0.700000,-7.140000,1.680000,18.36
27606,0.360144,-0.271328,0.886208,1.470000,-6.930000,1.260000,18.40
27617,0.363072,-0.271328,0.887184,1.960000,-6.930000,-0.210000,18.36
27629,0.359656,-0.257176,0.890112,2.170000,-7.280000,-0.700000,18.36
27641,0.358680,-0.248880,0.896944,1.190000,-7.560000,-1.260000,18.36
27652,0.353800,-0.253760,0.903288,0.280000,-7.700000,-1.890000,18.36
27663,0.345016,-0.252784,0.904752,1.330000,-8.120000,-2.100000,18.34
27674,0.342576,-0.247416,0.901824,1.820000,-8.890000,-1.750000,18.35
27686,0.351360,-0.252784,0.902312,2.590000,-9.590000,-1.820000,18.35
27698,0.361120,-0.251808,0.900360,3.920000,-9.940000,-1.750000,18.35
27709,0.369904,-0.246928,0.906704,5.670000,-9.940000,-1.680000,18.35
27721,0.378200,-0.238632,0.905728,6.510000,-9.870000,-1.680000,18.38
27733,0.385032,-0.234240,0.902312,7.070000,-9.310000,-1.260000,18.41
27746,0.399184,-0.240096,0.899384,7.280000,-8.820000,-0.140000,18.41
27757,0.396744,-0.234240,0.895968,6.580000,-8.680000,-0.560000,18.34
27768,0.416752,-0.215696,0.908656,4.270000,-7.140000,0.210000,18.29
27779,0.411872,-0.248392,0.918416,2.450000,-5.600000,0.700000,18.29
27791,0.416752,-0.264008,0.924272,2.170000,-4.130000,1.260000,18.32
27803,0.403088,-0.264008,0.923296,2.730000,-3.710000,1.750000,18.32
27815,0.407968,-0.269864,0.921832,2.800000,-2.660000,1.680000,18.33
27827,0.399672,-0.265960,0.917440,2.660000,-1.260000,1.750000,18.32
27838,0.391376,-0.252296,0.920368,2.030000,-1.190000,2.660000,18.32
27849,0.394792,-0.251808,0.926224,0.840000,-1.260000,3.500000,18.41
27861,0.389424,-0.254736,0.926224,-1.120000,-0.420000,3.920000,18.37
27873,0.384544,-0.264984,0.925248,-2.030000,-0.280000,3.850000,18.37
27885,0.375760,-0.280112,0.924272,-1.400000,-0.350000,3.500000,18.36
27896,0.376248,-0.285968,0.927688,-0.910000,-0.070000,3.010000,18.36
27907,0.374784,-0.292800,0.932080,-0.140000,-0.140000,2.800000,18.32
27919,0.377224,-0.280600,0.931104,0.280000,0.070000,2.170000,18.37
27930,0.376736,-0.278648,0.927688,0.070000,0.210000,1.540000,18.37
27941,0.366976,-0.277672,0.923296,-0.280000,-0.280000,1.190000,18.39
27953,0.364536,-0.270840,0.925248,-0.770000,-0.280000,0.280000,18.37
27965,0.357704,-0.272304,0.930128,-1.400000,-0.560000,-0.420000,18.37
27977,0.355264,-0.272304,0.929640,-1.680000,-0.840000,-0.700000,18.35
27988,0.351848,-0.266936,0.935984,-2.100000,-0.910000,-0.910000,18.35
28000,0.339160,-0.275720,0.937448,-1.400000,-1.820000,-1.330000,18.33
28012,0.345992,-0.277184,0.932080,-0.280000,-1.470000,-1.960000,18.36
28024,0.335744,-0.264984,0.932568,0.770000,-2.450000,-2.100000,18.36
28036,0.339160,-0.258152,0.935984,1.400000,-3.150000,-1.610000,18.37
28048,0.338672,-0.248392,0.934032,0.560000,-3.150000,-1.400000,18.35
28059,0.342088,-0.255712,0.933544,0.350000,-3.570000,-0.910000,18.35
28071,0.347456,-0.257176,0.931592,0.210000,-3.640000,-0.700000,18.39
28083,0.349408,-0.254736,0.934032,0.000000,-3.850000,-0.770000,18.39
28095,0.349408,-0.268400,0.928664,0.770000,-3.780000,-1.260000,18.34
28106,0.351360,-0.265960,0.920856,1.120000,-3.570000,-0.980000,18.36
28118,0.357216,-0.270352,0.920856,1.260000,-3.430000,-0.770000,18.36
28130,0.355752,-0.271816,0.916952,1.610000,-3.500000,-0.210000,18.37
28141,0.357216,-0.270840,0.917440,1.750000,-3.220000,-0.280000,18.33
28152,0.361608,-0.266936,0.914512,1.750000,-2.660000,-0.490000,18.33
28168,0.357216,-0.262544,0.911584,1.260000,-2.520000,-0.910000,18.35
28181,0.360632,-0.261568,0.909144,0.420000,-2.310000,-0.630000,18.40
28192,0.364536,-0.262544,0.911584,-0.560000,-1.750000,-0.560000,18.40
28204,0.365024,-0.268400,0.906216,-1.120000,-1.190000,-0.630000,18.38
28215,0.363560,-0.273768,0.905728,-0.840000,-0.980000,-1.190000,18.39
28227,0.366976,-0.275232,0.907192,-0.210000,-0.910000,-1.540000,18.39
28239,0.372344,-0.274256,0.909144,0.490000,-0.700000,-2.030000,18.39
28251,0.367952,-0.260104,0.912072,0.350000,-0.420000,-2.100000,18.32
28263,0.367952,-0.251808,0.915488,-0.350000,-0.490000,-1.960000,18.32
28274,0.366488,-0.247904,0.920368,-1.120000,-0.840000,-1.610000,18.40
28285,0.364536,-0.253760,0.917928,-1.400000,-1.050000,-1.330000,18.40
28297,0.361608,-0.263520,0.919880,-0.770000,-1.330000,-1.260000,18.39
28308,0.361608,-0.267424,0.921832,0.630000,-1.260000,-1.680000,18.39
28320,0.353312,-0.254736,0.923296,1.610000,-1.260000,-1.820000,18.39
28331,0.350384,-0.239608,0.926712,1.330000,-1.820000,-1.400000,18.41
28343,0.347456,-0.245464,0.926224,1.120000,-2.520000,-0.560000,18.41
28355,0.352824,-0.244976,0.923784,0.840000,-2.590000,-0.280000,18.39
28367,0.345992,-0.256688,0.915976,1.470000,-3.010000,-0.140000,18.37
28378,0.356240,-0.271328,0.914512,2.240000,-3.500000,0.910000,18.37
28390,0.359168,-0.267912,0.920856,3.430000,-3.780000,-0.070000,18.37
28401,0.358680,-0.265960,0.918416,3.640000,-3.570000,0.420000,18.36
28413,0.363072,-0.271816,0.907680,4.270000,-3.990000,0.700000,18.36
28425,0.372832,-0.265960,0.908656,3.780000,-3.500000,0.350000,18.37
28436,0.371368,-0.266448,0.909144,2.590000,-2.940000,0.350000,18.37
28448,0.372832,-0.271328,0.908168,1.750000,-2.590000,0.420000,18.39
28459,0.377224,-0.274744,0.907192,1.610000,-1.960000,0.210000,18.40
28470,0.372344,-0.277672,0.904752,1.610000,-1.960000,0.000000,18.40
28482,0.379176,-0.279624,0.908168,1.470000,-1.330000,-0.350000,18.42
28494,0.377224,-0.279624,0.913048,1.330000,-0.770000,-0.420000,18.42
28506,0.369416,-0.276696,0.915488,1.190000,-0.210000,-0.840000,18.43
28518,0.364048,-0.274256,0.916464,1.260000,-0.210000,-1.190000,18.39
28530,0.356728,-0.278160,0.916952,1.750000,-1.120000,-0.980000,18.39
28542,0.368928,-0.269376,0.920856,1.400000,-0.420000,-1.470000,18.35
28554,0.365024,-0.269864,0.920856,1.050000,-0.420000,-1.680000,18.36
28565,0.365512,-0.268888,0.925736,1.540000,-0.770000,-1.750000,18.36
28576,0.366000,-0.268400,0.927200,1.470000,-0.490000,-1.960000,18.39
28588,0.361608,-0.264496,0.926224,1.330000,-0.560000,-2.240000,18.36
28599,0.359168,-0.269376,0.928176,1.610000,-0.630000,-2.240000,18.36
28611,0.360632,-0.266448,0.929152,2.030000,-1.050000,-1.890000,18.40
28622,0.365512,-0.260104,0.930128,1.960000,-1.260000,-1.750000,18.40
28634,0.368440,-0.263520,0.937448,1.680000,-1.260000,-1.680000,18.39
28645,0.365512,-0.263032,0.946232,1.820000,-1.260000,-1.680000,18.39
28657,0.362584,-0.259128,0.941840,1.610000,-1.750000,-1.680000,18.39
28668,0.357216,-0.267912,0.937448,1.820000,-2.240000,-1.820000,18.41
28679,0.358680,-0.266448,0.935008,2.520000,-2.800000,-1.960000,18.41
28690,0.359656,-0.258640,0.935496,2.800000,-3.080000,-1.680000,18.42
28702,0.356240,-0.249856,0.937448,2.170000,-3.430000,-1.050000,18.39
28714,0.355264,-0.253272,0.938424,1.610000,-3.500000,-0.700000,18.39
28725,0.351848,-0.256200,0.935496,1.820000,-3.710000,-0.560000,18.40
28737,0.351848,-0.252296,0.933056,1.890000,-4.550000,-0.280000,18.36
28748,0.349896,-0.256200,0.934032,1.890000,-4.970000,-0.490000,18.36
28760,0.350384,-0.264496,0.931104,2.730000,-5.460000,-0.770000,18.41
28771,0.351360,-0.256200,0.928664,3.360000,-5.530000,-0.560000,18.41
28782,0.352824,-0.252296,0.928176,3.710000,-6.020000,-0.350000,18.39
28794,0.357704,-0.250344,0.928664,3.430000,-5.950000,-0.070000,18.36
28805,0.361120,-0.249368,0.926712,2.730000,-5.740000,-0.070000,18.36
28816,0.364048,-0.257664,0.923296,2.660000,-5.250000,-0.140000,18.39
28828,0.359656,-0.254736,0.918904,2.800000,-5.110000,-0.140000,18.39
28840,0.363560,-0.251808,0.915976,2.450000,-4.970000,0.000000,18.40
28851,0.369416,-0.253272,0.915976,1.820000,-4.410000,-0.140000,18.37
28863,0.372344,-0.260104,0.923296,1.750000,-3.780000,-0.140000,18.37
28875,0.372344,-0.258640,0.919880,1.610000,-3.150000,-0.350000,18.45
28886,0.369416,-0.254736,0.920368,1.540000,-2.590000,-0.490000,18.41
28898,0.369416,-0.256200,0.923296,0.980000,-2.170000,-0.560000,18.41
28909,0.371856,-0.253760,0.931104,0.420000,-2.240000,-0.210000,18.43
28921,0.373320,-0.250832,0.935008,-0.770000,-2.240000,0.420000,18.43
28933,0.373808,-0.262056,0.932080,-1.120000,-1.960000,0.490000,18.39
28944,0.374296,-0.269864,0.931104,-0.560000,-1.890000,0.560000,18.35
28956,0.366488,-0.270840,0.922808,0.280000,-1.890000,0.350000,18.35
28967,0.364536,-0.266936,0.919880,0.700000,-2.030000,0.140000,18.38
28978,0.361608,-0.256688,0.922320,0.420000,-1.960000,-0.140000,18.38
28989,0.363560,-0.251808,0.923784,-0.770000,-1.680000,-0.280000,18.40
29001,0.364048,-0.262056,0.925736,-1.750000,-1.470000,-0.420000,18.38
29012,0.367952,-0.268400,0.922320,-1.890000,-1.120000,-0.840000,18.38
29024,0.370880,-0.273768,0.915000,-1.470000,-0.630000,-0.980000,18.35
29036,0.369904,-0.273280,0.910608,-0.490000,-0.210000,-1.750000,18.39
29048,0.365512,-0.259128,0.902800,-0.560000,0.770000,-2.240000,18.39
29059,0.365024,-0.255224,0.905728,-0.840000,0.770000,-2.380000,18.41
29071,0.368928,-0.248880,0.911096,-1.330000,1.400000,-2.100000,18.41
29082,0.367952,-0.243512,0.913536,-2.310000,2.170000,-1.750000,18.39
29094,0.366976,-0.253272,0.915488,-3.010000,2.870000,-1.960000,18.36
29106,0.364536,-0.256688,0.918416,-2.590000,3.500000,-2.030000,18.36
29117,0.354776,-0.255224,0.922320,-2.100000,3.780000,-2.170000,18.43
29129,0.357216,-0.254248,0.922808,-1.680000,4.060000,-2.170000,18.40
29140,0.351848,-0.250344,0.923784,-1.680000,4.270000,-1.890000,18.40
29152,0.350872,-0.242536,0.923296,-2.660000,4.620000,-1.470000,18.44
29164,0.347456,-0.250344,0.927200,-3.360000,4.970000,-1.680000,18.44
29176,0.337208,-0.249368,0.935496,-3.570000,4.480000,-1.190000,18.46
29187,0.335744,-0.257176,0.940864,-3.290000,4.060000,-0.770000,18.38
29199,0.338184,-0.262056,0.936960,-2.800000,4.200000,-0.560000,18.38
29211,0.336720,-0.264008,0.926712,-2.380000,4.200000,-0.420000,18.39
29222,0.344040,-0.258152,0.929152,-2.240000,4.130000,-0.140000,18.44
29234,0.345992,-0.262056,0.930128,-2.800000,4.130000,0.350000,18.44
29245,0.349408,-0.264984,0.932080,-3.220000,4.480000,0.560000,18.38
29256,0.345992,-0.272304,0.927200,-3.360000,4.690000,0.770000,18.38
29267,0.345016,-0.273280,0.920368,-2.870000,3.710000,0.910000,18.37
29279,0.346968,-0.267912,0.922320,-2.730000,3.990000,0.770000,18.41
29290,0.349408,-0.261568,0.923296,-3.220000,3.850000,0.840000,18.41
29302,0.343552,-0.267912,0.918904,-3.220000,3.570000,1.120000,18.45
29313,0.343064,-0.277672,0.913536,-2.030000,3.360000,0.980000,18.45
29325,0.339160,-0.271816,0.916464,-0.420000,2.310000,0.350000,18.40
29336,0.341112,-0.263032,0.919392,0.140000,2.170000,0.210000,18.46
29347,0.335744,-0.263520,0.921832,0.350000,1.610000,-0.070000,18.46
29359,0.337208,-0.266936,0.918904,0.630000,1.260000,0.000000,18.44
29370,0.335256,-0.256200,0.916952,0.700000,1.750000,-0.630000,18.44
29381,0.327936,-0.255712,0.916952,0.560000,1.890000,-1.050000,18.39
29393,0.329888,-0.262544,0.917440,1.120000,1.190000,-0.700000,18.38
29404,0.332816,-0.261568,0.919880,1.750000,1.330000,-1.050000,18.38
29416,0.335256,-0.252784,0.924272,1.750000,2.030000,-0.700000,18.39
29427,0.332816,-0.245952,0.920856,1.120000,2.450000,-0.210000,18.41
29439,0.329400,-0.254736,0.921832,1.120000,2.450000,0.700000,18.41
29450,0.326960,-0.261568,0.922808,1.680000,2.520000,1.470000,18.39
29461,0.333304,-0.256688,0.925736,1.610000,2.870000,2.240000,18.39
29472,0.335744,-0.259616,0.930128,1.050000,3.500000,2.520000,18.40
29484,0.331840,-0.257664,0.931104,0.350000,3.920000,2.870000,18.34
29495,0.328912,-0.258152,0.933544,-0.490000,3.780000,3.150000,18.34
29507,0.319640,-0.267424,0.935984,-0.490000,3.430000,3.220000,18.43
29518,0.313784,-0.273280,0.933544,-0.420000,3.850000,2.940000,18.43
29529,0.301584,-0.274744,0.934520,-0.070000,3.570000,2.660000,18.41
29541,0.295728,-0.277672,0.940376,0.700000,2.590000,2.590000,18.35
29554,0.293776,-0.274744,0.944768,1.540000,1.680000,2.660000,18.35
29565,0.294264,-0.275232,0.948184,1.890000,1.120000,2.380000,18.45
29577,0.289872,-0.276696,0.948184,2.450000,0.770000,2.240000,18.35
29588,0.286944,-0.275232,0.944768,3.080000,0.210000,1.960000,18.35
29599,0.284016,-0.277672,0.941352,3.640000,-0.560000,1.750000,18.44
29611,0.287920,-0.277184,0.939400,3.920000,-1.120000,1.540000,18.44
29622,0.293776,-0.271816,0.936960,4.130000,-1.470000,1.540000,18.40
29634,0.295728,-0.268400,0.935008,3.710000,-1.470000,1.540000,18.40
29645,0.305488,-0.271816,0.935496,3.010000,-1.120000,1.190000,18.40
29657,0.309880,-0.273768,0.931104,2.870000,-0.700000,1.050000,18.41
29668,0.308904,-0.267912,0.930616,1.960000,-0.210000,1.330000,18.41
29680,0.314272,-0.271328,0.929152,0.980000,0.140000,1.610000,18.41
29691,0.316224,-0.272304,0.935984,0.420000,0.910000,2.100000,18.42
29703,0.313296,-0.276208,0.935008,-0.140000,1.540000,2.310000,18.42
29714,0.310856,-0.281576,0.932568,0.000000,2.240000,2.170000,18.40
29726,0.310856,-0.284992,0.935496,0.210000,2.800000,2.520000,18.44
29737,0.310856,-0.281576,0.940864,-0.350000,2.870000,2.520000,18.44
29749,0.307928,-0.284992,0.948184,-1.120000,3.500000,2.380000,18.44
29760,0.300120,-0.286944,0.954040,-1.610000,3.290000,2.100000,18.44
29772,0.297192,-0.289384,0.959408,-2.100000,3.220000,1.400000,18.40
29783,0.292312,-0.301584,0.961360,-1.890000,2.800000,0.980000,18.43
29795,0.295240,-0.299144,0.957456,-1.120000,2.240000,0.420000,18.43
29807,0.293288,-0.299632,0.959408,-0.140000,1.540000,-0.140000,18.43
29818,0.290360,-0.291824,0.960384,0.280000,0.770000,-0.630000,18.43
29830,0.292312,-0.294752,0.958432,0.700000,0.000000,-1.470000,18.40
29841,0.289872,-0.295240,0.957944,0.770000,-0.420000,-2.170000,18.42
29853,0.289872,-0.285968,0.954528,0.630000,-1.540000,-2.520000,18.42
29864,0.292800,-0.281088,0.951600,0.280000,-2.030000,-2.730000,18.40
29876,0.294264,-0.285480,0.948672,0.210000,-2.380000,-3.080000,18.46
29887,0.295240,-0.283040,0.944280,0.560000,-2.380000,-3.360000,18.46
29898,0.296704,-0.275720,0.941840,1.260000,-2.660000,-3.430000,18.41
29910,0.296216,-0.268400,0.944768,1.050000,-2.940000,-3.360000,18.41
29921,0.295728,-0.267424,0.945744,0.910000,-2.870000,-3.150000,18.42
29933,0.297192,-0.267424,0.945744,0.700000,-2.940000,-2.940000,18.45
29944,0.298656,-0.268400,0.939400,0.700000,-3.080000,-2.800000,18.45
29955,0.303536,-0.271816,0.941840,1.470000,-3.010000,-2.520000,18.45
29967,0.301096,-0.264984,0.943792,1.890000,-3.080000,-2.170000,18.45
29979,0.301584,-0.263520,0.944280,1.470000,-3.290000,-1.820000,18.43
29990,0.305000,-0.267424,0.947208,1.190000,-3.080000,-1.470000,18.43
30002,0.305488,-0.265472,0.943792,1.190000,-3.080000,-1.330000,18.43
30013,0.305976,-0.271328,0.937936,1.120000,-3.150000,-1.190000,18.43
30025,0.307928,-0.273280,0.933056,1.820000,-2.800000,-1.400000,18.42
30037,0.308416,-0.267424,0.933544,2.240000,-3.010000,-1.470000,18.42
30048,0.309392,-0.262544,0.939400,1.190000,-3.150000,-1.050000,18.42
30060,0.311832,-0.269864,0.944280,0.420000,-2.730000,-1.190000,18.42
30071,0.306952,-0.274256,0.945744,0.490000,-2.240000,-1.050000,18.45
30083,0.305976,-0.274256,0.938912,0.770000,-2.100000,-1.260000,18.43
30094,0.302072,-0.270352,0.939400,0.910000,-2.030000,-0.840000,18.43
30106,0.301584,-0.244976,0.938912,-1.750000,-2.520000,0.070000,18.43
30118,0.309880,-0.276208,0.948672,-2.100000,-2.030000,-0.140000,18.41
30129,0.306952,-0.261080,0.950624,-3.640000,-1.610000,0.350000,18.41
30140,0.298168,-0.282552,0.949160,-3.220000,-2.310000,-0.070000,18.43
30152,0.307440,-0.291824,0.946720,-1.610000,-2.030000,-0.280000,18.43
30167,0.297680,-0.286456,0.947208,0.490000,-2.100000,-0.560000,18.48
30179,0.297192,-0.270840,0.955016,0.840000,-2.590000,-0.070000,18.43
30191,0.299144,-0.270352,0.958920,0.560000,-2.800000,0.210000,18.43
30202,0.297680,-0.272304,0.955504,0.490000,-3.430000,0.280000,18.44
30214,0.291824,-0.275720,0.954528,0.770000,-4.270000,0.350000,18.46
30225,0.298656,-0.274744,0.954040,0.350000,-3.920000,0.070000,18.46
30237,0.294752,-0.280112,0.951600,0.630000,-3.780000,0.210000,18.44
30249,0.294752,-0.275720,0.949160,0.910000,-4.690000,0.280000,18.40
30260,0.303048,-0.274256,0.947696,0.700000,-4.690000,0.560000,18.40
30272,0.303048,-0.276208,0.944280,0.560000,-4.270000,0.070000,18.41
30283,0.301584,-0.276696,0.939400,1.120000,-4.620000,-0.070000,18.41
30295,0.303048,-0.269376,0.940864,1.190000,-5.040000,0.280000,18.45
30306,0.303536,-0.273280,0.943304,0.980000,-4.690000,0.350000,18.39
30317,0.304512,-0.275232,0.936960,0.910000,-4.410000,0.280000,18.39
30329,0.305976,-0.282064,0.933056,1.330000,-4.760000,0.000000,18.44
30340,0.307928,-0.280600,0.933544,1.680000,-4.620000,-0.070000,18.44
30352,0.309392,-0.279136,0.931592,1.820000,-3.990000,-0.420000,18.41
30363,0.305976,-0.271328,0.930128,1.610000,-3.850000,-0.280000,18.45
30375,0.300120,-0.268400,0.930616,1.120000,-3.850000,-0.280000,18.45
30387,0.303536,-0.271328,0.929640,0.770000,-3.570000,-0.140000,18.43
30399,0.305000,-0.275720,0.934520,0.490000,-3.360000,-0.140000,18.47
30411,0.303048,-0.275232,0.935984,0.280000,-2.940000,-0.140000,18.47
30422,0.301584,-0.283040,0.931104,0.910000,-2.660000,-0.420000,18.43
30434,0.302560,-0.278160,0.926712,1.750000,-2.590000,-0.350000,18.43
30446,0.303048,-0.271816,0.928176,1.820000,-2.520000,-0.140000,18.41
30457,0.303536,-0.272792,0.934520,1.400000,-2.310000,-0.140000,18.46
30469,0.305488,-0.270840,0.935008,1.120000,-1.960000,-0.210000,18.46
30480,0.303536,-0.275720,0.931592,1.050000,-1.960000,-0.280000,18.42
30492,0.302560,-0.277184,0.930616,1.260000,-1.890000,-0.280000,18.45
30504,0.304024,-0.278160,0.931104,1.470000,-1.680000,-0.420000,18.45
30516,0.305000,-0.274744,0.933056,1.610000,-1.330000,-0.280000,18.42
30527,0.303048,-0.267424,0.933544,1.330000,-1.120000,-0.070000,18.42
30539,0.301584,-0.272792,0.936472,0.630000,-1.120000,-0.070000,18.42
30550,0.300120,-0.279136,0.938424,1.050000,-0.980000,-0.210000,18.41
30562,0.299144,-0.270840,0.939888,1.330000,-0.910000,0.070000,18.41
30573,0.292800,-0.278160,0.937936,1.820000,-2.590000,-0.070000,18.45
30585,0.315736,-0.268888,0.937936,0.910000,-1.120000,-0.420000,18.41
30597,0.294264,-0.281576,0.941840,1.260000,-1.610000,0.070000,18.41
30608,0.301584,-0.276208,0.939400,1.750000,-2.240000,0.000000,18.49
30619,0.304024,-0.279624,0.939400,1.680000,-1.120000,0.210000,18.49
30631,0.297680,-0.278160,0.935496,1.960000,-1.400000,-0.140000,18.43
30642,0.304512,-0.277184,0.937448,2.100000,-1.610000,0.140000,18.41
30653,0.300608,-0.269376,0.944768,1.470000,-1.400000,0.000000,18.41
30665,0.301096,-0.274744,0.942328,0.840000,-1.120000,-0.350000,18.45
30677,0.297192,-0.282064,0.940376,0.910000,-0.910000,-0.560000,18.45
30688,0.294752,-0.284992,0.935984,1.820000,-1.330000,-0.770000,18.45
30700,0.298168,-0.279624,0.936960,2.310000,-1.470000,-0.770000,18.46
30711,0.302560,-0.274744,0.937936,2.030000,-1.050000,-0.770000,18.46
30723,0.299144,-0.269864,0.943304,1.400000,-1.050000,-0.560000,18.41
30735,0.299632,-0.272304,0.944280,1.050000,-0.980000,-0.770000,18.44
30747,0.296216,-0.276208,0.947696,0.840000,-1.190000,-0.840000,18.44
30758,0.297680,-0.284016,0.953064,0.910000,-1.540000,-1.050000,18.45
30770,0.301096,-0.280600,0.953064,1.190000,-1.680000,-1.050000,18.45
30782,0.302560,-0.276696,0.954040,0.910000,-1.820000,-0.980000,18.41
30794,0.299632,-0.273768,0.956968,0.490000,-2.030000,-0.770000,18.45
30806,0.299144,-0.273280,0.955992,0.140000,-1.890000,-0.560000,18.45
30818,0.297680,-0.282064,0.960384,0.280000,-2.170000,-0.420000,18.49
30829,0.297680,-0.283040,0.957944,0.840000,-2.520000,-0.490000,18.45
30841,0.296216,-0.280600,0.958432,1.330000,-3.150000,-0.350000,18.45
30852,0.299144,-0.277184,0.954040,1.400000,-3.570000,-0.560000,18.45
30863,0.295728,-0.273768,0.949160,0.980000,-3.430000,-0.560000,18.45
30875,0.297192,-0.272792,0.942328,0.630000,-3.990000,-0.700000,18.40
30886,0.299144,-0.274256,0.944280,0.560000,-4.270000,-0.700000,18.46
30898,0.301584,-0.277672,0.943792,0.420000,-4.200000,-0.840000,18.46
30909,0.307440,-0.277672,0.939400,0.770000,-4.200000,-0.980000,18.47
30921,0.306464,-0.274744,0.932568,1.050000,-3.850000,-0.910000,18.38
30932,0.303048,-0.273280,0.932568,0.980000,-3.640000,-0.980000,18.38
30943,0.302560,-0.272792,0.932080,1.050000,-3.430000,-0.910000,18.45
30955,0.305488,-0.264496,0.929152,0.350000,-3.290000,-0.770000,18.45
30966,0.305488,-0.268888,0.930128,0.630000,-2.870000,-0.910000,18.46
30978,0.303048,-0.268400,0.929152,0.630000,-2.380000,-0.630000,18.47
30989,0.299144,-0.260104,0.928664,0.350000,-2.240000,-0.420000,18.47
31001,0.298656,-0.264496,0.935496,0.280000,-2.240000,-0.350000,18.45
31012,0.301584,-0.267424,0.941840,0.350000,-2.240000,-0.210000,18.45
31023,0.300120,-0.265472,0.945744,0.280000,-2.030000,-0.210000,18.45
31035,0.301584,-0.267912,0.939400,0.840000,-1.960000,-0.280000,18.41
31046,0.299632,-0.267912,0.936472,1.120000,-2.240000,-0.140000,18.41
31058,0.301584,-0.270840,0.937936,1.190000,-2.100000,-0.070000,18.43
31070,0.303536,-0.268400,0.938912,1.330000,-1.960000,0.140000,18.41
31080,0.302072,-0.265472,0.938424,1.050000,-2.170000,0.140000,18.41
31092,0.304024,-0.271816,0.938912,0.770000,-1.820000,0.210000,18.46
31104,0.301584,-0.274744,0.943304,0.770000,-1.610000,0.210000,18.46
31115,0.300608,-0.275720,0.938424,1.190000,-1.890000,0.140000,18.46
31127,0.303536,-0.280112,0.934032,1.610000,-1.750000,0.000000,18.41
31138,0.300608,-0.276696,0.937448,1.610000,-1.750000,0.000000,18.41
31150,0.305488,-0.270840,0.943304,1.470000,-1.750000,0.070000,18.46
31161,0.305488,-0.271328,0.942816,1.050000,-1.540000,0.070000,18.46
31172,0.305000,-0.272792,0.939888,0.560000,-1.330000,0.070000,18.45
31184,0.304512,-0.277672,0.942816,0.560000,-1.260000,0.070000,18.45
31195,0.303536,-0.278160,0.946232,0.560000,-1.260000,0.210000,18.45
31206,0.301096,-0.275232,0.947208,0.840000,-1.260000,0.070000,18.48
31217,0.300608,-0.273280,0.944280,0.770000,-1.400000,0.070000,18.48
31229,0.299632,-0.274256,0.948184,0.420000,-1.540000,0.140000,18.46
31240,0.297192,-0.271816,0.952088,0.070000,-1.820000,0.140000,18.42
31252,0.296216,-0.273768,0.958432,0.140000,-2.170000,0.210000,18.42
31263,0.294752,-0.274256,0.954528,0.070000,-2.450000,0.350000,18.46
31274,0.299632,-0.283040,0.954040,0.630000,-3.080000,0.140000,18.48
31286,0.302072,-0.280600,0.950624,1.190000,-3.010000,0.140000,18.48
31298,0.300120,-0.274256,0.948672,1.330000,-3.290000,0.350000,18.47
31309,0.300120,-0.274256,0.952088,1.190000,-3.500000,0.420000,18.47
31321,0.300608,-0.274256,0.947208,0.980000,-3.570000,0.350000,18.44
31332,0.297192,-0.275232,0.943304,0.700000,-3.780000,0.140000,18.43
31343,0.298656,-0.280112,0.946720,0.770000,-4.200000,-0.070000,18.43
31355,0.300608,-0.281088,0.943304,0.910000,-4.270000,-0.350000,18.39
31366,0.302560,-0.276696,0.939400,1.120000,-4.270000,-0.630000,18.39
31377,0.301096,-0.273768,0.938912,0.980000,-4.340000,-0.700000,18.44
31389,0.304512,-0.276208,0.938424,0.980000,-4.200000,-0.980000,18.47
31401,0.301096,-0.270352,0.939400,0.560000,-3.990000,-0.350000,18.47
31413,0.302560,-0.271816,0.941352,0.280000,-3.920000,-0.210000,18.48
31424,0.303536,-0.275232,0.936472,0.490000,-3.570000,-0.140000,18.45
31436,0.302560,-0.279624,0.936960,1.050000,-3.150000,-0.140000,18.45
31448,0.301584,-0.278160,0.937936,1.540000,-3.360000,-0.140000,18.48
31460,0.301096,-0.271816,0.939888,1.400000,-3.500000,-0.140000,18.48
31471,0.299144,-0.264496,0.942816,0.700000,-3.360000,-0.070000,18.45
31482,0.300120,-0.267424,0.945256,-0.210000,-3.430000,0.070000,18.44
31494,0.303536,-0.275232,0.942328,-0.210000,-3.360000,0.070000,18.44
31506,0.297680,-0.281088,0.941352,0.490000,-3.500000,0.350000,18.47
31518,0.300608,-0.280600,0.940864,1.400000,-3.570000,0.420000,18.43
31531,0.302560,-0.273768,0.939400,1.610000,-3.640000,0.560000,18.43
31543,0.301584,-0.269864,0.943304,1.330000,-3.710000,0.770000,18.44
31555,0.304024,-0.275232,0.941840,0.700000,-3.710000,0.840000,18.40
31567,0.304024,-0.279136,0.936960,0.350000,-3.430000,0.700000,18.40
31578,0.303536,-0.282064,0.935008,0.350000,-3.360000,0.420000,18.46
31589,0.306464,-0.283528,0.936472,0.490000,-3.640000,0.420000,18.46
31601,0.308416,-0.282064,0.940376,0.280000,-3.220000,0.210000,18.46
31612,0.308904,-0.277672,0.936472,0.280000,-3.360000,0.000000,18.43
31624,0.304512,-0.275720,0.936960,0.000000,-3.010000,-0.070000,18.43
31636,0.305000,-0.273280,0.931592,-0.280000,-3.080000,-0.210000,18.45
31647,0.305488,-0.276696,0.933056,-0.210000,-2.730000,0.000000,18.45
31658,0.300120,-0.274256,0.935008,0.210000,-2.660000,0.070000,18.46
31670,0.302072,-0.268400,0.934520,0.560000,-2.730000,0.210000,18.44
31681,0.299632,-0.269376,0.939888,0.560000,-2.450000,0.140000,18.44
31693,0.297680,-0.267912,0.939400,0.630000,-2.520000,0.280000,18.42
31704,0.295728,-0.271328,0.935008,0.420000,-2.730000,0.280000,18.44
31716,0.298168,-0.274256,0.936960,0.700000,-2.870000,0.280000,18.44
31727,0.300120,-0.279136,0.939400,1.400000,-2.940000,0.210000,18.48
31738,0.300120,-0.276208,0.937936,1.890000,-2.870000,0.070000,18.48
31750,0.302560,-0.276208,0.937448,1.820000,-2.800000,0.000000,18.48
31761,0.298168,-0.274256,0.936472,1.820000,-2.660000,0.000000,18.41
31773,0.301584,-0.273280,0.931592,1.750000,-2.730000,-0.140000,18.41
31784,0.302072,-0.278160,0.930616,1.120000,-2.660000,-0.210000,18.48
31796,0.305488,-0.285480,0.932080,0.840000,-2.450000,-0.350000,18.48
31808,0.307440,-0.284992,0.934032,1.050000,-2.240000,-0.490000,18.48
31819,0.308904,-0.284504,0.934032,1.330000,-2.100000,-0.700000,18.47
31831,0.304512,-0.281088,0.932080,1.330000,-1.890000,-0.910000,18.47
31843,0.305000,-0.280600,0.934032,1.050000,-1.820000,-0.980000,18.50
31854,0.305000,-0.279624,0.932080,0.840000,-1.820000,-1.050000,18.45
31866,0.308904,-0.280112,0.933544,0.700000,-1.820000,-0.770000,18.45
31877,0.311832,-0.280112,0.939400,0.980000,-1.470000,-0.840000,18.45
31889,0.309880,-0.271816,0.940376,0.910000,-1.470000,-0.770000,18.45
31900,0.311832,-0.267424,0.946720,0.420000,-1.680000,-0.630000,18.45
31912,0.310368,-0.267424,0.946232,-0.420000,-1.610000,-0.350000,18.44
31923,0.309392,-0.273280,0.952088,-1.050000,-1.540000,-0.140000,18.44
31935,0.306952,-0.281576,0.952088,-0.280000,-1.960000,0.000000,18.46
31946,0.311832,-0.280600,0.948672,0.630000,-2.170000,0.140000,18.48
31958,0.310368,-0.271816,0.946232,0.980000,-2.310000,0.140000,18.48
31970,0.307928,-0.268400,0.947696,0.700000,-2.730000,0.350000,18.49
31981,0.306952,-0.264008,0.951112,0.140000,-3.010000,0.560000,18.49
31993,0.305976,-0.265472,0.949648,-0.350000,-3.080000,0.840000,18.46
32005,0.301584,-0.274744,0.946720,-0.070000,-3.360000,0.490000,18.48
32017,0.304024,-0.282064,0.939888,1.050000,-3.570000,0.280000,18.48
32030,0.305488,-0.279624,0.939888,2.030000,-3.780000,0.210000,18.50
32042,0.301584,-0.272792,0.940376,2.240000,-3.850000,0.280000,18.43
32053,0.302072,-0.266936,0.940864,1.680000,-3.780000,0.560000,18.43
32065,0.303048,-0.267912,0.937936,1.330000,-3.780000,0.560000,18.45
32076,0.304024,-0.273280,0.935008,1.050000,-3.360000,0.700000,18.45
32087,0.305976,-0.279136,0.934520,1.330000,-3.150000,0.700000,18.43
32099,0.308416,-0.279624,0.935496,1.820000,-3.080000,0.770000,18.48
32110,0.302072,-0.276208,0.937448,1.750000,-2.660000,0.630000,18.48
32122,0.303048,-0.275232,0.935984,1.540000,-2.730000,0.560000,18.45
32133,0.300608,-0.278648,0.938912,1.190000,-2.800000,0.630000,18.45
32144,0.304512,-0.283040,0.938912,1.050000,-2.800000,0.490000,18.45
32156,0.299632,-0.278648,0.942328,0.910000,-2.800000,0.490000,18.50
32169,0.301096,-0.278160,0.941840,0.630000,-3.010000,0.350000,18.50
32181,0.299144,-0.280600,0.943792,0.560000,-2.870000,0.140000,18.45
32192,0.297192,-0.282552,0.937448,0.910000,-3.080000,0.000000,18.48
32204,0.298656,-0.281088,0.935496,1.330000,-3.290000,0.070000,18.48
32216,0.299144,-0.279624,0.937936,1.470000,-3.220000,-0.070000,18.47
32227,0.300120,-0.278160,0.940376,1.540000,-3.220000,0.000000,18.45
32240,0.301584,-0.274256,0.934520,1.260000,-3.080000,-0.140000,18.45
32251,0.300608,-0.278648,0.930128,1.120000,-2.730000,-0.350000,18.45
32263,0.301584,-0.281088,0.927688,1.330000,-2.310000,-0.630000,18.45
32274,0.304512,-0.272792,0.926224,1.680000,-2.380000,-0.700000,18.47
32286,0.305000,-0.270840,0.923296,1.470000,-1.680000,-0.490000,18.48
32297,0.307440,-0.269864,0.926712,0.980000,-1.190000,-0.420000,18.48
32308,0.308904,-0.266448,0.925736,0.560000,-0.980000,-0.210000,18.47
32319,0.305976,-0.269376,0.931592,0.490000,-0.560000,-0.280000,18.48
32331,0.302072,-0.270352,0.935008,0.000000,-0.210000,-0.140000,18.48
32343,0.301096,-0.276208,0.936960,0.140000,-0.420000,0.000000,18.52
32354,0.303048,-0.278648,0.941840,0.350000,-0.280000,0.140000,18.52
32365,0.299144,-0.277184,0.943304,0.910000,-0.070000,-0.070000,18.50
32377,0.301584,-0.273280,0.940376,0.980000,-0.490000,0.070000,18.49
32388,0.300120,-0.275720,0.944768,0.980000,-0.700000,0.000000,18.49
32399,0.299144,-0.276696,0.941840,0.910000,-0.560000,-0.070000,18.48
32411,0.299144,-0.276208,0.947696,0.770000,-0.910000,-0.140000,18.48
32422,0.298656,-0.275232,0.949160,0.700000,-1.330000,-0.210000,18.45
32433,0.301584,-0.280112,0.944280,0.980000,-1.470000,-0.560000,18.44
32444,0.301096,-0.284016,0.944280,1.400000,-1.680000,-0.700000,18.44
32455,0.301096,-0.282064,0.943304,1.540000,-1.960000,-0.840000,18.46
32467,0.300608,-0.279136,0.945256,1.680000,-2.030000,-0.910000,18.46
32478,0.300120,-0.278648,0.942816,1.680000,-2.240000,-0.770000,18.46
32489,0.303048,-0.280112,0.941840,1.610000,-2.240000,-0.840000,18.45
32500,0.305000,-0.278648,0.941840,1.890000,-2.170000,-0.840000,18.45
32512,0.304024,-0.271328,0.937448,1.960000,-2.100000,-0.910000,18.48
32524,0.305000,-0.270840,0.940864,1.330000,-2.170000,-0.770000,18.48
32535,0.304512,-0.272792,0.944768,0.980000,-1.960000,-0.630000,18.41
32547,0.303048,-0.272792,0.944280,0.630000,-1.890000,-0.490000,18.50
32558,0.303048,-0.273768,0.944768,0.490000,-1.750000,-0.420000,18.50
32570,0.302560,-0.275232,0.943792,0.910000,-1.750000,-0.280000,18.48
32581,0.299632,-0.270352,0.948672,0.840000,-1.890000,-0.140000,18.47
32592,0.301096,-0.271816,0.951600,0.770000,-2.030000,0.070000,18.47
32604,0.295728,-0.270352,0.953064,0.630000,-1.820000,0.280000,18.45
32615,0.293776,-0.273280,0.948184,1.190000,-2.170000,0.210000,18.45
32627,0.300120,-0.272304,0.947208,1.260000,-2.660000,0.490000,18.47
32638,0.299632,-0.269864,0.944280,0.700000,-2.660000,0.630000,18.44
32649,0.304024,-0.279624,0.948184,0.560000,-2.520000,0.630000,18.44
32660,0.302072,-0.283040,0.946232,0.980000,-2.660000,0.700000,18.55
32671,0.302560,-0.282064,0.945256,1.330000,-2.730000,0.560000,18.55
32683,0.299632,-0.281576,0.941840,1.680000,-3.010000,0.350000,18.48
32694,0.298168,-0.278648,0.940864,1.610000,-3.010000,-0.070000,18.48
32706,0.299144,-0.272792,0.939888,0.910000,-2.940000,-0.070000,18.48
32717,0.299144,-0.272792,0.939400,0.420000,-3.080000,-0.070000,18.49
32728,0.301096,-0.279624,0.941840,0.350000,-2.870000,-0.140000,18.49
32739,0.299632,-0.279624,0.942328,0.700000,-2.660000,-0.140000,18.50
32750,0.294264,-0.281088,0.942328,0.980000,-2.730000,-0.210000,18.45
32762,0.297680,-0.279136,0.938424,1.260000,-2.800000,-0.140000,18.45
32773,0.295728,-0.276208,0.938912,1.330000,-2.870000,-0.140000,18.50
32785,0.300608,-0.272304,0.939888,1.050000,-2.660000,-0.140000,18.50
32796,0.301096,-0.272304,0.941840,0.560000,-2.590000,-0.210000,18.49
32808,0.299144,-0.273280,0.944280,0.280000,-2.590000,-0.280000,18.48
32819,0.294752,-0.271816,0.944280,0.000000,-2.590000,-0.280000,18.48
32831,0.296216,-0.276696,0.939888,-0.140000,-2.800000,-0.420000,18.48
32842,0.296704,-0.279136,0.944280,0.280000,-2.870000,-0.280000,18.50
32854,0.297680,-0.274744,0.949648,0.560000,-3.150000,-0.280000,18.50
32865,0.298656,-0.281576,0.945744,1.610000,-3.290000,-0.350000,18.47
32877,0.296704,-0.267424,0.942816,1.470000,-3.080000,-0.140000,18.47
32888,0.294752,-0.271328,0.936960,1.190000,-3.360000,0.000000,18.48
32899,0.296216,-0.274744,0.936960,1.190000,-3.430000,0.140000,18.50
32911,0.297680,-0.273280,0.940376,0.980000,-3.570000,0.210000,18.50
32922,0.300608,-0.273280,0.940864,1.050000,-3.710000,0.280000,18.46
32933,0.302560,-0.272792,0.937936,0.630000,-3.640000,0.140000,18.46
32944,0.303048,-0.280112,0.937448,0.980000,-3.360000,-0.210000,18.47
32956,0.300608,-0.276208,0.935008,1.330000,-3.360000,-0.280000,18.50
32967,0.299632,-0.271328,0.934520,1.190000,-3.640000,-0.420000,18.50
32979,0.299632,-0.271816,0.940376,1.190000,-3.430000,-0.280000,18.51
32990,0.299144,-0.273280,0.939400,1.330000,-3.360000,-0.350000,18.51
33002,0.298656,-0.271816,0.939888,1.400000,-3.570000,-0.350000,18.49
33013,0.299144,-0.269864,0.941840,1.470000,-3.500000,-0.280000,18.49
33025,0.297680,-0.268888,0.939888,1.330000,-3.570000,0.000000,18.49
33036,0.298168,-0.274256,0.936472,1.470000,-3.500000,0.000000,18.53
33047,0.299632,-0.272304,0.938912,1.610000,-3.360000,0.210000,18.53
33058,0.298656,-0.278160,0.941352,1.890000,-3.430000,0.210000,18.48
33069,0.300608,-0.278648,0.938912,2.100000,-3.430000,0.210000,18.50
33081,0.303048,-0.279136,0.936472,2.100000,-3.500000,-0.070000,18.50
33092,0.304024,-0.278160,0.930616,2.100000,-3.290000,-0.210000,18.49
33104,0.305000,-0.276696,0.931104,1.820000,-2.870000,-0.280000,18.51
33115,0.305976,-0.277184,0.935984,1.400000,-2.800000,-0.280000,18.51
33126,0.306952,-0.277184,0.936472,1.050000,-2.450000,-0.350000,18.45
33138,0.305976,-0.278648,0.938912,0.980000,-2.170000,-0.490000,18.45
33149,0.306952,-0.284992,0.937448,1.190000,-1.890000,-0.560000,18.50
33160,0.306952,-0.283040,0.934032,1.820000,-1.610000,-0.630000,18.48
33171,0.305000,-0.270840,0.935984,1.400000,-1.610000,-0.280000,18.48
33183,0.305976,-0.272304,0.937936,0.490000,-1.400000,-0.210000,18.50
33194,0.305488,-0.275232,0.941840,0.140000,-1.120000,-0.070000,18.50
33205,0.304512,-0.275720,0.943304,-0.140000,-1.120000,0.140000,18.52
33216,0.305000,-0.280600,0.946232,-0.070000,-0.840000,0.070000,18.50
33228,0.306464,-0.283040,0.945744,0.560000,-0.910000,-0.210000,18.50
33239,0.302072,-0.279136,0.945744,0.770000,-1.120000,-0.280000,18.48
33251,0.302560,-0.276208,0.948672,0.490000,-1.330000,-0.140000,18.48
33262,0.302072,-0.273280,0.952088,0.140000,-1.610000,0.070000,18.52
33273,0.301584,-0.269864,0.949648,-0.420000,-1.960000,0.000000,18.48
33285,0.297680,-0.277672,0.953552,-0.280000,-2.100000,-0.280000,18.48
33296,0.300120,-0.283528,0.952576,0.490000,-2.660000,-0.350000,18.47
33307,0.299144,-0.282552,0.951112,1.260000,-3.220000,-0.630000,18.47
33318,0.301584,-0.276696,0.945744,1.750000,-3.360000,-0.700000,18.49
33330,0.301584,-0.271328,0.943792,1.400000,-3.570000,-0.700000,18.46
33341,0.301096,-0.273768,0.938912,0.910000,-3.640000,-0.700000,18.46
33352,0.303048,-0.273768,0.938424,0.840000,-3.570000,-0.560000,18.46
33364,0.304512,-0.277672,0.936472,0.980000,-3.710000,-0.700000,18.46
33374,0.304512,-0.278160,0.936472,1.400000,-3.500000,-0.770000,18.51
33386,0.309880,-0.280600,0.934520,1.610000,-3.150000,-0.980000,18.50
33397,0.307928,-0.273768,0.934520,1.400000,-2.870000,-0.910000,18.50
33408,0.308904,-0.270352,0.935496,1.260000,-2.870000,-0.770000,18.51
33419,0.307928,-0.269376,0.930128,0.980000,-2.310000,-0.630000,18.51
33431,0.299632,-0.267912,0.930128,0.420000,-2.100000,-0.490000,18.52
33442,0.303536,-0.275232,0.936472,0.280000,-2.170000,-0.560000,18.46
33453,0.302560,-0.276208,0.940864,0.490000,-2.030000,-0.560000,18.46
33464,0.297680,-0.273768,0.946232,0.700000,-2.100000,-0.560000,18.51
33476,0.300120,-0.270840,0.944768,0.700000,-2.520000,-0.490000,18.51
33487,0.303048,-0.273280,0.942328,0.770000,-2.450000,-0.560000,18.48
33498,0.301584,-0.274256,0.940376,0.840000,-2.240000,-0.420000,18.50
33510,0.301584,-0.268400,0.941840,0.840000,-2.590000,-0.140000,18.50
33521,0.301096,-0.270840,0.944768,0.630000,-2.800000,-0.070000,18.50
33533,0.303536,-0.278160,0.945256,0.840000,-2.730000,-0.140000,18.51
33544,0.303048,-0.278648,0.940864,1.400000,-2.870000,-0.350000,18.51
33555,0.299632,-0.275720,0.937936,1.400000,-2.940000,-0.280000,18.50
33566,0.302560,-0.270352,0.937448,0.840000,-2.940000,-0.140000,18.50
33578,0.301584,-0.276696,0.942816,0.770000,-2.940000,-0.210000,18.52
33589,0.303048,-0.280112,0.935984,1.120000,-2.940000,-0.280000,18.49
33601,0.303048,-0.273768,0.934032,1.470000,-2.870000,-0.420000,18.49
33612,0.306464,-0.272304,0.934032,1.470000,-2.590000,-0.490000,18.50
33623,0.302560,-0.270352,0.930616,1.400000,-2.380000,-0.630000,18.50
33635,0.304024,-0.265472,0.928664,0.980000,-2.100000,-0.560000,18.49
33646,0.305488,-0.265960,0.928176,0.350000,-1.680000,-0.280000,18.45
33658,0.303048,-0.265472,0.932568,0.140000,-1.470000,-0.070000,18.45
33669,0.304024,-0.273280,0.935496,0.560000,-1.190000,0.000000,18.52
33681,0.299632,-0.273768,0.939888,0.980000,-0.910000,0.000000,18.52
33692,0.301096,-0.271816,0.938424,1.260000,-0.840000,0.280000,18.48
33703,0.298656,-0.271328,0.940376,1.190000,-0.910000,0.350000,18.51
33714,0.298656,-0.272304,0.943304,1.050000,-1.050000,0.350000,18.51
33726,0.299144,-0.271328,0.944768,0.910000,-0.980000,0.420000,18.49
33737,0.299144,-0.269864,0.945256,0.560000,-1.050000,0.420000,18.49
33749,0.297192,-0.277184,0.947208,0.630000,-1.190000,0.070000,18.50
33760,0.297192,-0.283040,0.947696,0.770000,-1.400000,-0.070000,18.52
33771,0.295240,-0.283528,0.947696,0.910000,-1.610000,-0.210000,18.52
33782,0.299632,-0.283040,0.946232,1.400000,-1.750000,-0.280000,18.52
33794,0.297680,-0.278648,0.942816,1.680000,-1.820000,-0.280000,18.49
33805,0.301096,-0.270352,0.945744,1.050000,-1.960000,-0.280000,18.49
33816,0.300120,-0.274256,0.946232,0.560000,-1.890000,-0.420000,18.54
33828,0.298656,-0.277672,0.945256,0.350000,-1.890000,-0.560000,18.54
33839,0.299144,-0.279624,0.944280,0.560000,-2.310000,-0.630000,18.53
33850,0.303048,-0.281088,0.943792,1.120000,-2.310000,-0.700000,18.50
33862,0.301584,-0.273768,0.943304,0.910000,-2.170000,-0.630000,18.50
33873,0.301584,-0.273280,0.942328,1.050000,-2.170000,-0.700000,18.50
33884,0.301584,-0.270840,0.942328,0.980000,-2.030000,-0.560000,18.50
33895,0.298168,-0.267912,0.942816,0.840000,-2.240000,-0.350000,18.51
33907,0.296704,-0.268400,0.944768,0.910000,-2.380000,-0.140000,18.46
33919,0.301584,-0.269376,0.942328,0.910000,-2.590000,0.070000,18.46
33930,0.299632,-0.269864,0.943792,0.770000,-2.310000,0.070000,18.51
33941,0.298656,-0.267912,0.942816,0.770000,-2.240000,0.210000,18.51
33953,0.295240,-0.272792,0.942816,0.840000,-2.380000,0.070000,18.53
33964,0.294752,-0.275720,0.938424,1.330000,-2.310000,0.140000,18.48
33975,0.297680,-0.272792,0.939888,1.470000,-2.730000,0.140000,18.48
33986,0.302560,-0.271328,0.940864,1.190000,-2.380000,0.350000,18.49
33997,0.303536,-0.275232,0.939888,0.490000,-2.030000,0.350000,18.49
34008,0.300608,-0.277672,0.937448,0.420000,-1.890000,0.350000,18.51
34019,0.299144,-0.279624,0.935496,0.700000,-1.610000,0.210000,18.47
34030,0.294264,-0.274744,0.935984,0.840000,-1.680000,0.000000,18.47
34041,0.293776,-0.276208,0.932568,0.770000,-1.820000,-0.210000,18.49
34053,0.297192,-0.276696,0.935984,0.770000,-1.680000,-0.490000,18.49
34065,0.296216,-0.276696,0.936472,0.840000,-1.540000,-0.630000,18.50
34077,0.294264,-0.273280,0.937448,0.910000,-1.540000,-0.700000,18.50
34088,0.296216,-0.272304,0.939888,1.120000,-1.680000,-0.840000,18.50
34099,0.294752,-0.273768,0.944280,1.050000,-1.680000,-0.630000,18.51
34111,0.300120,-0.272304,0.945256,1.190000,-1.540000,-0.350000,18.51
34122,0.299144,-0.270840,0.943792,1.190000,-1.400000,0.000000,18.51
34133,0.300120,-0.270840,0.944280,1.190000,-1.470000,0.140000,18.45
34144,0.298168,-0.271328,0.944280,1.400000,-1.400000,0.000000,18.45
34155,0.297680,-0.271328,0.947208,1.470000,-1.540000,-0.210000,18.51
34167,0.299632,-0.264984,0.956480,1.120000,-1.960000,-0.070000,18.52
34178,0.297680,-0.265472,0.957944,0.280000,-2.170000,0.070000,18.52
34189,0.290360,-0.273768,0.963800,-0.140000,-2.520000,0.140000,18.50
34201,0.286944,-0.275720,0.963800,0.210000,-3.500000,0.420000,18.50
34212,0.284992,-0.288896,0.963800,1.120000,-4.130000,0.350000,18.54
34223,0.283040,-0.287920,0.960384,2.590000,-4.620000,0.140000,18.54
34234,0.283528,-0.283040,0.958920,3.360000,-5.320000,0.000000,18.54
34245,0.285480,-0.279136,0.954040,3.500000,-5.810000,0.210000,18.51
34257,0.290848,-0.281088,0.945744,3.080000,-6.090000,0.420000,18.51
34268,0.296704,-0.283528,0.936472,2.520000,-6.090000,0.420000,18.48
