timestamp_ms,ax,ay,az,gx,gy,gz,tempC
159814,0.535824,0.065392,0.756888,-24.219999,-7.070000,-74.339996,19.11
159827,0.475800,0.219112,0.808616,-38.220001,-5.110000,-71.120003,19.10
159839,0.485560,0.296216,0.795928,-57.750000,-5.320000,-64.889999,19.10
159851,0.500688,0.269864,0.772504,-79.589996,-5.530000,-62.020000,19.13
159863,0.532896,0.198128,0.869616,-91.910004,-5.600000,-56.349998,19.11
159875,0.546560,0.081496,0.739320,-86.660004,0.700000,-56.070000,19.11
159887,0.564616,0.021472,0.729072,-66.150002,9.100000,-54.110001,19.12
159898,0.516304,0.049288,0.725168,-46.270000,11.060000,-59.360001,19.12
159910,0.512888,0.083448,0.762744,-33.110001,14.560000,-59.779999,19.16
159921,0.479216,0.218624,0.813984,-33.529999,16.590000,-57.540001,19.12
159933,0.465552,0.279624,0.871080,-39.619999,17.920000,-52.779999,19.12
159945,0.426512,0.248880,0.860344,-44.799999,14.770000,-48.509998,19.14
159956,0.441152,0.210328,0.832528,-47.180000,17.080000,-44.590000,19.10
159968,0.439688,0.162992,0.791048,-48.160000,19.879999,-43.119999,19.10
159980,0.435784,0.084424,0.770064,-43.119999,21.350000,-42.139999,19.11
159991,0.419680,0.081984,0.825696,-36.540001,22.330000,-40.389999,19.11
160003,0.348432,0.200080,0.899384,-33.529999,21.070000,-35.840000,19.12
160015,0.335256,0.242048,0.923296,-34.860001,19.040001,-30.660000,19.11
160026,0.350384,0.287432,0.916952,-46.340000,19.530001,-24.780001,19.11
160038,0.355264,0.222528,0.902312,-55.650002,18.620001,-21.770000,19.10
160050,0.371856,0.103456,0.883280,-53.619999,18.690001,-20.370001,19.13
160062,0.389912,0.032208,0.874496,-44.799999,18.830000,-19.740000,19.13
160074,0.391376,-0.032208,0.860832,-31.080000,19.530001,-19.320000,19.09
160086,0.384056,-0.018544,0.878888,-18.340000,20.440001,-17.430000,19.18
160098,0.365024,0.070760,0.894992,-15.120000,20.020000,-14.070000,19.18
160109,0.352824,0.099064,0.933544,-15.330000,18.760000,-12.880000,19.16
160121,0.351360,0.117120,0.948672,-17.430000,18.830000,-11.200000,19.16
160132,0.353312,0.086864,0.964776,-19.110001,17.570000,-10.360000,19.10
160143,0.362584,0.038552,0.967216,-17.920000,17.360001,-9.240000,19.15
160155,0.366976,0.008784,0.965264,-15.400000,16.030001,-7.980000,19.15
160169,0.369904,-0.031720,0.958432,-8.890000,15.120000,-7.490000,19.13
160181,0.361608,-0.012688,0.953064,-5.390000,14.280000,-6.370000,19.09
160192,0.357216,0.016592,0.975024,-5.810000,12.810000,-5.040000,19.09
160203,0.355752,0.040016,0.988688,-8.260000,11.480000,-3.920000,19.17
160215,0.353800,0.026352,0.997472,-9.870000,10.920000,-3.150000,19.17
160226,0.345504,-0.004392,0.998936,-9.730000,9.940000,-2.590000,19.11
160238,0.352824,-0.033184,0.991616,-7.280000,9.310000,-1.890000,19.11
160249,0.352824,-0.048312,0.982344,-2.940000,8.260000,-1.330000,19.11
160261,0.355264,-0.051240,0.969656,2.380000,7.980000,-1.260000,19.16
160273,0.345016,-0.043920,0.964288,7.000000,6.860000,-1.190000,19.10
160285,0.344040,-0.020984,0.969168,9.240000,5.950000,-0.490000,19.10
160296,0.345992,-0.018544,0.973560,11.340000,4.830000,0.210000,19.17
160308,0.358680,0.015616,0.976000,7.770000,4.410000,2.030000,19.17
160320,0.363072,0.001952,0.970144,1.610000,3.710000,3.010000,19.12
160331,0.361120,-0.022936,0.962824,-1.330000,4.130000,3.290000,19.13
160343,0.369416,-0.046360,0.942328,-1.540000,3.850000,3.360000,19.13
160356,0.368440,-0.063928,0.931104,0.560000,3.990000,3.360000,19.11
160369,0.371856,-0.074176,0.929152,4.060000,4.690000,3.220000,19.12
160380,0.369904,-0.059536,0.938912,5.040000,4.690000,3.010000,19.12
160393,0.358192,-0.050752,0.942816,5.670000,4.620000,2.590000,19.13
160404,0.353800,-0.044408,0.950624,5.040000,4.270000,1.820000,19.10
160416,0.334280,-0.023912,0.965264,2.380000,3.290000,1.190000,19.10
160427,0.342576,-0.034160,0.959408,0.140000,2.940000,0.910000,19.13
160439,0.332816,-0.059536,0.962336,1.260000,2.730000,0.210000,19.13
160450,0.335744,-0.020984,0.976000,0.420000,1.540000,0.560000,19.11
160461,0.330376,-0.012200,0.979904,-2.100000,0.280000,0.770000,19.11
160473,0.337696,-0.024888,0.979416,-3.570000,-0.280000,0.700000,19.11
160484,0.340624,-0.033672,0.982344,-4.410000,-1.120000,0.770000,19.14
160496,0.346480,-0.049288,0.985760,-3.990000,-1.890000,0.630000,19.12
160507,0.344528,-0.046848,0.976488,-2.310000,-2.100000,0.280000,19.12
160519,0.346480,-0.045384,0.965752,-0.630000,-2.730000,0.140000,19.13
160530,0.350384,-0.038064,0.957944,-0.840000,-3.080000,0.140000,19.13
160542,0.352336,-0.040504,0.945744,-0.490000,-3.500000,0.420000,19.13
160553,0.362096,-0.063440,0.956968,1.330000,-3.710000,0.700000,19.11
160565,0.352336,-0.047824,0.952088,2.800000,-3.640000,0.840000,19.11
160576,0.349408,-0.055144,0.952576,3.920000,-3.570000,1.120000,19.13
160587,0.344040,-0.062952,0.951600,6.440000,-3.220000,1.260000,19.13
160598,0.338184,-0.054168,0.952576,7.770000,-3.500000,1.960000,19.13
160609,0.348920,-0.058560,0.954040,7.980000,-3.570000,2.240000,19.12
160621,0.348432,-0.054168,0.955504,8.610000,-2.940000,2.380000,19.12
160632,0.342088,-0.048312,0.947208,8.400000,-2.450000,2.030000,19.12
160644,0.341112,-0.057096,0.937448,8.260000,-2.030000,1.400000,19.12
160655,0.344040,-0.063440,0.934520,7.770000,-1.610000,1.050000,19.11
160666,0.360144,-0.053680,0.931592,4.760000,-1.120000,1.050000,19.14
160678,0.374296,-0.055632,0.931592,0.490000,-0.140000,0.910000,19.14
160689,0.373320,-0.055144,0.934520,-2.870000,1.400000,0.560000,19.14
160700,0.365512,-0.058072,0.937936,-4.690000,2.450000,0.070000,19.14
160711,0.368440,-0.063928,0.945744,-5.740000,3.010000,-0.140000,19.10
160722,0.366000,-0.062464,0.954040,-6.230000,3.570000,-0.560000,19.14
160734,0.360632,-0.064416,0.961848,-6.720000,4.200000,-0.630000,19.14
160745,0.363072,-0.064904,0.972584,-7.210000,4.480000,-0.770000,19.14
160757,0.354288,-0.061976,0.977952,-8.540000,4.200000,-0.840000,19.11
160770,0.347944,-0.078568,0.986248,-9.800000,3.990000,-0.700000,19.11
160781,0.335744,-0.081008,0.986248,-10.220000,3.570000,-0.910000,19.11
160793,0.328424,-0.075640,0.981368,-8.610000,2.940000,-0.350000,19.11
160804,0.333792,-0.060024,0.974536,-7.210000,2.660000,0.070000,19.17
160816,0.328424,-0.068808,0.979904,-5.320000,2.940000,-0.280000,19.12
160827,0.325496,-0.067344,0.996984,-4.340000,2.380000,-0.140000,19.12
160839,0.324520,-0.073200,1.012600,-3.780000,1.540000,0.350000,19.16
160851,0.319152,-0.071248,1.005280,-3.640000,0.420000,0.630000,19.11
160862,0.324520,-0.073688,0.985760,-3.850000,-1.050000,0.770000,19.11
160873,0.325496,-0.070272,0.972584,-4.060000,-1.190000,0.490000,19.13
160885,0.319152,-0.064416,0.966240,-4.550000,-1.400000,0.420000,19.13
160896,0.324032,-0.071248,0.961848,-4.830000,-1.330000,0.840000,19.10
160908,0.319152,-0.072224,0.958920,-3.360000,-1.820000,0.980000,19.12
160919,0.321592,-0.066368,0.957944,-2.310000,-2.240000,0.840000,19.12
160931,0.327448,-0.066368,0.959408,-0.420000,-2.380000,0.700000,19.13
160942,0.327936,-0.044896,0.955992,0.140000,-2.100000,0.910000,19.13
160953,0.322568,-0.044896,0.957456,-0.770000,-2.030000,1.260000,19.09
160965,0.323544,-0.049776,0.950136,-1.960000,-1.680000,1.610000,19.10
160977,0.330376,-0.061976,0.939400,-3.010000,-1.960000,2.310000,19.10
160988,0.339648,-0.072224,0.936472,-2.240000,-1.610000,2.380000,19.13
161000,0.337208,-0.067344,0.927688,-1.610000,-1.190000,3.220000,19.14
161012,0.335744,-0.071736,0.927200,-0.770000,-0.630000,3.710000,19.14
161023,0.335256,-0.065392,0.930128,-0.560000,-0.070000,4.270000,19.12
161035,0.336232,-0.059536,0.937936,-1.750000,0.770000,4.760000,19.12
161046,0.333304,-0.070760,0.937936,-1.960000,1.260000,4.970000,19.12
161059,0.335744,-0.074176,0.939400,-2.240000,1.400000,5.460000,19.10
161070,0.336232,-0.079056,0.944768,-2.240000,1.050000,5.600000,19.10
161081,0.343064,-0.075152,0.947208,-2.520000,0.980000,5.530000,19.16
161093,0.334768,-0.077592,0.953064,-2.240000,0.910000,5.390000,19.16
161105,0.331840,-0.079544,0.948672,-1.820000,0.770000,4.970000,19.16
161117,0.335256,-0.086864,0.951600,-1.050000,0.560000,4.550000,19.14
161130,0.333304,-0.093208,0.958920,-0.490000,0.280000,4.410000,19.14
161141,0.334768,-0.100528,0.960872,17.850000,0.070000,4.550000,19.11
161153,0.338184,-0.104920,0.968680,0.420000,-0.210000,4.410000,19.14
161165,0.330864,-0.103944,0.971120,1.470000,-0.630000,4.550000,19.14
161176,0.328424,-0.096136,0.971608,2.030000,-0.840000,4.200000,19.12
161188,0.326472,-0.092720,0.967704,2.100000,-0.770000,4.060000,19.08
161200,0.325496,-0.094672,0.969656,1.470000,-0.490000,4.060000,19.08
161212,0.325008,-0.093696,0.975512,0.140000,-0.770000,4.480000,19.12
161223,0.324032,-0.086376,0.969168,-1.610000,-0.840000,5.460000,19.14
161235,0.330376,-0.096624,0.965752,-2.870000,-0.420000,5.880000,19.14
161247,0.327936,-0.105896,0.957944,-2.870000,0.420000,6.580000,19.13
161258,0.323544,-0.113216,0.962824,-2.170000,1.190000,6.720000,19.13
161270,0.325984,-0.111752,0.974048,-1.540000,1.470000,7.000000,19.13
161281,0.329400,-0.111752,0.978928,-1.820000,1.610000,7.560000,19.12
161293,0.332816,-0.115168,0.976976,-2.240000,1.890000,7.770000,19.12
161304,0.329888,-0.110288,0.983320,-3.220000,1.610000,7.910000,19.08
161316,0.322080,-0.107848,0.982344,-4.340000,1.190000,7.630000,19.08
161328,0.324032,-0.125416,0.977952,-4.550000,0.700000,7.140000,19.10
161340,0.321592,-0.124928,0.975024,-3.290000,0.630000,6.790000,19.14
161351,0.323056,-0.111264,0.971120,-3.570000,0.210000,6.720000,19.14
161363,0.325984,-0.122976,0.962824,-3.290000,0.420000,5.950000,19.12
161374,0.321592,-0.110776,0.963312,-3.430000,0.140000,5.530000,19.09
161386,0.318664,-0.109800,0.971608,-3.570000,-0.210000,5.110000,19.09
161397,0.321592,-0.109800,0.969656,-4.060000,-0.910000,4.550000,19.13
161409,0.325496,-0.121024,0.967704,-4.410000,-1.330000,3.920000,19.13
161421,0.330376,-0.128832,0.957456,-3.290000,-1.610000,3.430000,19.14
161432,0.326960,-0.124440,0.948184,-1.050000,-1.890000,2.590000,19.12
161443,0.318176,-0.102968,0.952576,0.210000,-2.100000,1.890000,19.12
161455,0.318664,-0.092720,0.956480,-0.350000,-2.380000,1.470000,19.14
161467,0.317200,-0.098576,0.955504,-0.980000,-2.380000,1.610000,19.12
161478,0.313296,-0.098088,0.955016,-0.280000,-2.730000,1.750000,19.12
161490,0.309880,-0.095160,0.951600,-0.350000,-3.360000,2.100000,19.13
161501,0.307928,-0.103456,0.951600,0.490000,-3.640000,2.030000,19.13
161513,0.305976,-0.099064,0.951600,1.470000,-3.640000,1.890000,19.16
161525,0.305976,-0.098088,0.951112,1.400000,-3.640000,1.610000,19.14
161536,0.303536,-0.096624,0.935984,1.330000,-3.360000,1.400000,19.14
161548,0.306952,-0.101016,0.933056,0.910000,-3.150000,1.190000,19.12
161560,0.305488,-0.112240,0.935984,1.400000,-2.800000,0.910000,19.11
161571,0.302072,-0.108336,0.940864,2.380000,-2.380000,0.980000,19.11
161583,0.305976,-0.095160,0.942328,2.030000,-1.820000,1.120000,19.08
161594,0.304024,-0.091744,0.946720,1.330000,-1.260000,1.400000,19.08
161605,0.301584,-0.092232,0.954040,0.210000,-0.980000,2.170000,19.14
161617,0.303536,-0.098576,0.954528,-0.420000,-0.700000,2.940000,19.13
161629,0.298168,-0.105408,0.959896,0.140000,-0.630000,3.360000,19.13
161640,0.298656,-0.108824,0.962824,0.980000,-0.560000,3.570000,19.15
161652,0.299144,-0.108824,0.968192,1.330000,-0.420000,3.500000,19.15
161663,0.296216,-0.115168,0.971608,1.260000,-0.420000,3.290000,19.10
161675,0.297680,-0.120048,0.976000,2.240000,-0.700000,3.290000,19.17
161686,0.295728,-0.113704,0.985272,2.730000,-1.190000,2.940000,19.17
161698,0.294752,-0.113704,0.996496,2.940000,-1.890000,2.590000,19.16
161709,0.299144,-0.115168,1.004304,3.010000,-2.310000,2.380000,19.09
161721,0.295240,-0.114192,1.010160,2.660000,-2.730000,2.310000,19.09
161733,0.298168,-0.123464,1.016504,2.940000,-3.360000,2.310000,19.12
161744,0.303048,-0.120048,1.012112,3.640000,-3.920000,2.520000,19.12
161756,0.300608,-0.123952,1.004792,4.200000,-4.200000,2.310000,19.14
161767,0.300120,-0.119072,1.001864,4.410000,-4.830000,1.960000,19.15
161779,0.295728,-0.121024,0.999424,4.480000,-5.110000,1.470000,19.15
161790,0.291336,-0.116632,0.998936,4.270000,-5.670000,1.050000,19.12
161801,0.301096,-0.118584,0.996984,3.850000,-6.090000,1.050000,19.12
161813,0.311832,-0.128344,1.002352,3.850000,-5.880000,0.980000,19.09
161824,0.313784,-0.126880,1.002840,3.780000,-5.810000,1.120000,19.14
161835,0.316712,-0.132736,0.992592,3.990000,-5.810000,0.420000,19.14
161847,0.308904,-0.133224,0.982832,4.970000,-5.880000,-0.350000,19.12
161858,0.311344,-0.132248,0.975512,5.670000,-5.740000,-0.980000,19.13
161870,0.317200,-0.125416,0.971608,5.180000,-5.180000,-1.260000,19.13
161882,0.321104,-0.123464,0.971120,4.480000,-4.550000,-1.960000,19.14
161894,0.325008,-0.131272,0.966728,4.130000,-3.990000,-3.290000,19.14
161905,0.332328,-0.131760,0.961848,4.970000,-3.640000,-4.340000,19.13
161917,0.334280,-0.143960,0.961848,6.930000,-3.290000,-5.530000,19.11
161929,0.331352,-0.137128,0.956480,8.680000,-2.660000,-6.510000,19.11
161940,0.321592,-0.113704,0.958432,7.630000,-2.030000,-6.650000,19.15
161952,0.313784,-0.101016,0.965752,4.970000,-1.540000,-7.000000,19.11
161964,0.312808,-0.096624,0.974536,2.940000,-0.910000,-6.860000,19.11
161975,0.313296,-0.106384,0.981368,2.310000,-0.490000,-6.930000,19.13
161986,0.320128,-0.096136,0.976488,1.750000,-0.630000,-6.790000,19.13
161998,0.331840,-0.105408,0.970632,0.560000,-0.070000,-6.930000,19.11
162010,0.330864,-0.123464,0.967704,0.700000,0.910000,-7.630000,19.13
162021,0.323056,-0.136640,0.972584,2.800000,1.540000,-8.400000,19.13
162032,0.315736,-0.131272,0.966240,3.920000,1.610000,-9.240000,19.14
162044,0.309392,-0.125904,0.954528,5.810000,2.240000,-10.080000,19.14
162056,0.305976,-0.096136,0.940376,6.440000,3.220000,-10.990000,19.14
162067,0.305976,-0.081984,0.931104,5.460000,4.550000,-11.200000,19.13
162078,0.305000,-0.077592,0.944768,3.850000,5.880000,-11.410000,19.13
162090,0.301096,-0.074664,0.951600,1.680000,6.860000,-11.480000,19.10
162101,0.299632,-0.090280,0.942328,0.490000,8.120000,-11.620000,19.12
162113,0.299632,-0.106872,0.935984,1.120000,10.220000,-11.900000,19.12
162124,0.291824,-0.104432,0.925248,3.570000,12.250000,-11.550000,19.13
162135,0.283040,-0.077104,0.936472,3.990000,12.740000,-10.570000,19.13
162146,0.283040,-0.078568,0.958432,2.730000,13.300000,-9.660000,19.16
162157,0.283040,-0.074176,0.960872,0.140000,13.440000,-9.240000,19.13
162169,0.289872,-0.084424,0.961848,-2.380000,14.490000,-9.380000,19.13
162180,0.288896,-0.099064,0.962336,-3.290000,15.400000,-10.010000,19.12
162192,0.291336,-0.107360,0.955992,-3.780000,15.820000,-11.060000,19.12
162204,0.295728,-0.111264,0.952576,-5.600000,16.379999,-11.340000,19.14
162216,0.284992,-0.110776,0.953552,-6.300000,16.450001,-12.040000,19.13
162227,0.276696,-0.116144,0.955504,-6.790000,15.960000,-12.670000,19.13
162239,0.257176,-0.122488,0.963800,-5.320000,15.330000,-14.490000,19.12
162250,0.240584,-0.093696,0.958920,-3.220000,14.840000,-15.680000,19.16
162261,0.231312,-0.085888,0.966728,-1.190000,14.070000,-16.870001,19.16
162273,0.227896,-0.041968,0.968680,-2.730000,13.440000,-17.080000,19.15
162284,0.223016,-0.034648,0.975024,-5.810000,12.810000,-17.010000,19.15
162296,0.232288,-0.050264,0.978440,-8.120000,11.900000,-16.100000,19.14
162308,0.231800,-0.072712,0.972584,-8.050000,11.830000,-15.680000,19.12
162319,0.214232,-0.066368,0.969168,-6.090000,11.060000,-15.120000,19.12
162331,0.214232,-0.042456,0.966240,-5.180000,10.780000,-14.980000,19.16
162343,0.220576,-0.050264,0.982832,-4.830000,10.220000,-14.140000,19.16
162354,0.239608,-0.078080,0.997472,-3.780000,9.730000,-13.370000,19.09
162366,0.232288,-0.088328,0.990152,-0.070000,8.260000,-12.810000,19.17
162377,0.243024,-0.108824,0.979904,2.870000,7.490000,-12.880000,19.17
162388,0.241560,-0.119072,0.971120,7.280000,7.630000,-13.090000,19.12
162400,0.233264,-0.094184,0.979416,10.010000,7.070000,-12.460000,19.14
162412,0.239608,-0.090280,0.994056,11.200000,7.280000,-11.270000,19.14
162423,0.228384,-0.077592,0.992592,12.040000,7.070000,-10.010000,19.17
162435,0.231800,-0.041480,0.997960,8.820000,6.020000,-7.630000,19.17
162447,0.241072,-0.046360,1.010648,4.480000,5.460000,-5.950000,19.12
162458,0.228384,-0.052216,1.006256,2.730000,5.180000,-4.480000,19.12
162470,0.233264,-0.043432,1.007720,1.050000,4.690000,-3.290000,19.12
162482,0.221064,-0.047336,1.012600,0.700000,3.570000,-1.750000,19.10
162493,0.223504,-0.059048,1.007232,2.660000,2.940000,-0.210000,19.10
162504,0.224480,-0.055144,1.003328,3.850000,2.100000,1.400000,19.10
162515,0.218136,-0.050752,1.006744,5.040000,1.050000,2.590000,19.10
162527,0.218136,-0.049288,1.011624,6.650000,-0.140000,3.150000,19.10
162538,0.214232,-0.054656,1.021872,8.120000,-0.490000,2.730000,19.13
162550,0.206424,-0.058560,1.022848,9.100000,-0.560000,2.170000,19.19
162561,0.195688,-0.052704,1.034560,9.870000,-0.840000,1.330000,19.19
162573,0.195200,-0.040992,1.045784,8.820000,-1.960000,1.190000,19.12
162585,0.207400,-0.030256,1.046760,5.180000,-4.130000,1.330000,19.12
162596,0.238632,-0.062952,1.040904,3.150000,-5.180000,1.540000,19.14
162608,0.250832,-0.063440,1.039928,2.380000,-5.390000,1.470000,19.14
162619,0.258640,-0.071248,1.039928,2.100000,-5.040000,0.840000,19.14
162631,0.264008,-0.078080,1.041880,2.310000,-4.690000,0.280000,19.15
162642,0.265472,-0.076616,1.049200,1.610000,-4.900000,-0.070000,19.11
162654,0.270352,-0.082960,1.058472,-0.070000,-5.040000,-0.350000,19.11
162665,0.261568,-0.081008,1.052128,-1.750000,-5.810000,-0.560000,19.14
162677,0.254736,-0.096624,1.047248,-0.770000,-7.210000,-0.490000,19.14
162689,0.245952,-0.088328,1.040416,0.280000,-8.960000,-0.560000,19.12
162700,0.253760,-0.102480,1.030656,1.260000,-9.730000,-0.210000,19.12
162712,0.245464,-0.121024,1.018456,5.740000,-9.030000,-1.190000,19.12
162723,0.227408,-0.086376,1.018944,8.680000,-9.520000,-1.330000,19.18
162735,0.224968,-0.069784,1.028704,8.260000,-10.220000,-1.470000,19.12
162746,0.221064,-0.078568,1.035048,7.560000,-10.710000,-1.680000,19.12
162758,0.224480,-0.070760,1.034072,6.860000,-11.620000,-1.260000,19.14
162770,0.248880,-0.065880,1.029192,5.390000,-11.970000,0.000000,19.14
162781,0.261568,-0.071248,1.028704,4.130000,-11.690000,1.050000,19.13
162792,0.260592,-0.055632,1.024312,3.290000,-11.620000,2.100000,19.11
162803,0.258640,-0.056120,1.001864,2.310000,-11.410000,3.150000,19.11
162815,0.252296,-0.045384,0.985760,0.770000,-11.130000,4.200000,19.19
162826,0.254248,-0.044896,0.976976,-1.610000,-10.710000,4.550000,19.19
162838,0.261080,-0.062464,0.981856,-2.450000,-9.660000,5.320000,19.13
162850,0.257176,-0.049776,0.989176,-3.500000,-8.890000,5.950000,19.10
162861,0.244000,-0.046848,0.992592,-5.040000,-8.260000,6.720000,19.10
162872,0.238144,-0.048800,0.990640,-6.580000,-7.630000,7.700000,19.13
162884,0.230336,-0.049288,0.976976,-9.030000,-7.070000,8.540000,19.13
162895,0.229848,-0.072712,0.968192,-10.710000,-6.230000,8.890000,19.16
162906,0.226432,-0.087840,0.953552,-10.640000,-5.110000,8.470000,19.16
162918,0.217160,-0.079544,0.940376,-10.570000,-4.340000,7.700000,19.16
162929,0.198616,-0.081008,0.948672,-11.410000,-3.850000,6.370000,19.12
162940,0.181536,-0.090280,0.956968,-10.990000,-3.080000,5.250000,19.16
162952,0.181048,-0.102480,0.950136,-9.380000,-2.870000,3.430000,19.16
162964,0.199592,-0.114192,0.946720,-6.860000,-2.660000,2.030000,19.16
162976,0.219112,-0.112728,0.942816,-4.270000,-1.330000,0.840000,19.16
162987,0.210328,-0.098088,0.941840,-2.800000,-0.420000,-0.140000,19.16
162998,0.221064,-0.088816,0.934520,-3.080000,0.630000,-0.840000,19.15
163010,0.226920,-0.084424,0.931592,-4.550000,1.540000,-0.980000,19.15
163021,0.238144,-0.090280,0.935984,-5.740000,2.030000,-1.190000,19.15
163033,0.243512,-0.091256,0.949160,-7.280000,2.870000,-2.170000,19.15
163044,0.238144,-0.094672,0.961360,-7.630000,2.310000,-2.870000,19.14
163056,0.241560,-0.097600,0.965752,-6.930000,1.120000,-2.590000,19.12
163067,0.231312,-0.084912,0.954528,-6.370000,0.000000,-2.520000,19.12
163079,0.224968,-0.091256,0.956480,-5.600000,-0.490000,-2.310000,19.14
163091,0.212768,-0.074664,0.961360,-3.780000,-0.770000,-2.450000,19.13
163102,0.219112,-0.071248,0.968680,-2.730000,-1.400000,-2.310000,19.13
163114,0.214232,-0.086376,0.980392,-2.380000,-1.610000,-2.030000,19.16
163126,0.217648,-0.084424,0.979416,-1.400000,-3.150000,-1.330000,19.16
163138,0.240584,-0.078568,0.976488,-0.070000,-4.900000,-0.280000,19.16
163150,0.271816,-0.088328,0.972584,0.770000,-5.110000,0.560000,19.19
163161,0.295240,-0.101016,0.969656,2.100000,-4.550000,1.820000,19.19
163172,0.298168,-0.091744,0.973072,2.660000,-3.500000,2.590000,19.13
163184,0.296216,-0.098088,0.987712,1.890000,-2.870000,3.010000,19.11
163195,0.294752,-0.099064,0.996984,0.560000,-3.010000,3.220000,19.11
163206,0.306952,-0.122976,0.995520,-0.630000,-3.220000,3.150000,19.16
163217,0.322568,-0.142496,1.003328,-1.470000,-3.010000,2.940000,19.16
163229,0.322080,-0.142008,1.015528,-2.100000,-2.730000,2.870000,19.14
163240,0.320616,-0.138104,1.031632,-3.430000,-2.730000,3.290000,19.14
163252,0.316224,-0.153720,1.037000,-3.920000,-3.150000,3.640000,19.14
163264,0.298656,-0.162992,1.027728,-3.220000,-3.500000,3.570000,19.15
163275,0.287920,-0.160552,1.024312,-2.450000,-3.570000,3.920000,19.15
163286,0.284992,-0.139568,1.039440,-2.870000,-4.130000,3.500000,19.17
163298,0.279136,-0.125416,1.043832,-4.550000,-4.620000,3.290000,19.12
163309,0.274744,-0.130784,1.047736,-6.160000,-5.320000,2.730000,19.12
163321,0.260104,-0.120536,1.045784,-7.910000,-6.160000,2.590000,19.16
163332,0.253760,-0.129320,1.048712,-9.100000,-7.140000,2.240000,19.16
163344,0.251808,-0.149816,1.044808,-8.120000,-7.910000,1.960000,19.16
163355,0.237168,-0.144936,1.030656,-6.300000,-8.470000,1.820000,19.16
163366,0.232288,-0.145912,1.013576,-3.710000,-9.730000,1.890000,19.16
163377,0.239608,-0.141032,0.996984,-0.840000,-10.570000,1.960000,19.16
163389,0.244000,-0.124440,0.998936,1.190000,-10.710000,1.890000,19.15
163400,0.235704,-0.107360,0.997960,1.120000,-10.780000,2.170000,19.15
163411,0.228384,-0.089304,0.986736,-1.610000,-10.710000,2.450000,19.14
163423,0.226432,-0.108824,0.969168,-2.520000,-10.710000,2.590000,19.14
163435,0.236680,-0.117120,0.954040,-2.380000,-10.290000,2.520000,19.17
163446,0.238144,-0.119560,0.942328,-1.470000,-9.100000,2.170000,19.13
163458,0.245464,-0.117120,0.938912,-0.630000,-7.980000,2.100000,19.13
163469,0.264984,-0.115656,0.940864,-0.910000,-6.930000,2.310000,19.14
163480,0.271328,-0.112728,0.929152,-2.800000,-5.670000,2.170000,19.14
163492,0.260104,-0.123952,0.933056,-3.640000,-4.480000,1.820000,19.11
163503,0.255712,-0.130296,0.950624,-3.710000,-3.990000,1.470000,19.15
163514,0.261568,-0.141032,0.954040,-2.450000,-3.850000,0.910000,19.15
163526,0.278648,-0.142496,0.951112,-2.240000,-3.290000,0.350000,19.19
163537,0.267912,-0.126880,0.948184,-2.100000,-2.170000,-0.420000,19.17
163549,0.261568,-0.118584,0.951600,-2.730000,-1.400000,-1.190000,19.17
163560,0.247416,-0.133224,0.957456,-1.750000,-1.120000,-2.450000,19.15
163572,0.237656,-0.128832,0.942816,-0.910000,-1.470000,-2.870000,19.15
163584,0.253760,-0.134200,0.934520,0.070000,-2.030000,-3.640000,19.15
163596,0.261568,-0.127368,0.945744,1.190000,-1.050000,-4.200000,19.10
163607,0.259616,-0.105408,0.955016,1.260000,0.280000,-4.760000,19.10
163618,0.250344,-0.108336,0.968680,1.750000,0.700000,-5.250000,19.14
163630,0.240584,-0.121512,0.976488,2.590000,0.350000,-5.670000,19.14
163641,0.236680,-0.112728,0.967704,4.270000,-0.630000,-5.040000,19.14
163653,0.254248,-0.094672,0.958920,2.380000,-0.770000,-4.340000,19.14
163664,0.262544,-0.084912,0.953552,-0.210000,-0.490000,-4.200000,19.14
163676,0.264984,-0.086864,0.958432,-3.150000,0.420000,-3.850000,19.15
163687,0.265472,-0.116144,0.957456,-3.570000,1.470000,-2.100000,19.14
163699,0.273280,-0.116632,0.959896,-2.730000,1.680000,-2.030000,19.14
163711,0.262544,-0.139080,0.969656,-0.700000,2.170000,-2.450000,19.11
163722,0.260592,-0.145424,0.979416,1.120000,2.730000,-1.470000,19.11
163733,0.252784,-0.125416,0.982344,1.680000,2.380000,-1.120000,19.15
163744,0.249368,-0.131272,0.977464,1.330000,2.100000,-0.560000,19.13
163755,0.253272,-0.127368,0.979904,1.260000,2.590000,0.840000,19.13
163766,0.254248,-0.102480,0.988688,-2.030000,2.240000,1.330000,19.12
163778,0.253760,-0.110288,0.993080,-6.160000,2.310000,1.960000,19.12
163790,0.260104,-0.129808,0.993568,-9.100000,2.870000,3.430000,19.14
163801,0.258152,-0.134200,0.995032,-10.220000,2.800000,3.920000,19.18
163812,0.254736,-0.145912,0.995520,-9.240000,2.870000,4.550000,19.18
163823,0.266448,-0.157624,1.003816,-7.490000,3.220000,5.040000,19.15
163834,0.265960,-0.154208,1.004792,-5.040000,3.430000,4.760000,19.15
163846,0.265960,-0.157136,1.006744,-3.710000,3.360000,4.620000,19.13
163857,0.258640,-0.150792,1.010648,-3.430000,3.010000,4.550000,19.13
163869,0.256200,-0.138104,1.017480,-4.900000,2.380000,4.060000,19.13
163880,0.257664,-0.150304,1.022360,-6.580000,2.520000,3.220000,19.11
163891,0.250832,-0.153232,1.026752,-7.630000,2.380000,2.030000,19.11
163902,0.242048,-0.159576,1.027728,-8.540000,1.750000,1.050000,19.11
163914,0.229360,-0.181536,1.025288,-7.280000,0.840000,-0.350000,19.13
163925,0.215208,-0.172264,1.018456,-4.900000,-0.910000,-1.610000,19.13
163937,0.213744,-0.167384,1.012600,-2.800000,-2.870000,-2.590000,19.15
163948,0.207400,-0.157624,1.011624,-1.540000,-4.410000,-3.430000,19.16
163960,0.203984,-0.145424,1.007720,-0.210000,-5.950000,-3.990000,19.16
163972,0.216672,-0.152256,0.998936,1.610000,-7.350000,-4.200000,19.18
163983,0.221064,-0.147376,0.982832,2.940000,-8.050000,-4.480000,19.18
163994,0.221552,-0.148840,0.968192,5.390000,-8.190000,-4.900000,19.19
164006,0.222040,-0.148352,0.960384,8.610000,-8.190000,-5.320000,19.14
164017,0.227408,-0.126392,0.960872,9.170000,-8.330000,-4.550000,19.14
164028,0.241560,-0.113216,0.952576,8.050000,-7.630000,-3.290000,19.17
164040,0.259128,-0.111264,0.950136,6.160000,-6.510000,-2.380000,19.17
164051,0.260104,-0.090768,0.952576,2.450000,-5.040000,-1.400000,19.14
164063,0.259128,-0.097112,0.951600,-1.050000,-3.780000,-0.700000,19.11
164075,0.256200,-0.122488,0.961360,-2.660000,-2.730000,-0.140000,19.11
164086,0.256688,-0.131760,0.958920,-2.730000,-1.680000,0.700000,19.15
164097,0.256688,-0.138592,0.957456,-2.310000,-0.840000,0.770000,19.17
164108,0.254248,-0.131272,0.961360,-2.170000,-0.070000,1.120000,19.17
164119,0.254736,-0.131272,0.962824,-3.640000,0.210000,1.190000,19.12
164130,0.254736,-0.149816,0.979416,-3.640000,0.770000,1.120000,19.12
164141,0.251320,-0.152744,0.983808,-3.010000,0.980000,0.910000,19.15
164152,0.254248,-0.153720,0.981368,-2.730000,0.980000,1.190000,19.15
164163,0.258152,-0.133712,0.981368,-3.780000,1.260000,1.260000,19.16
164174,0.259616,-0.131760,0.993568,-5.740000,1.260000,1.190000,19.14
164185,0.258640,-0.134200,1.007232,-7.630000,0.770000,1.470000,19.14
164196,0.259128,-0.149328,1.004304,-8.820000,0.560000,1.470000,19.16
164207,0.262544,-0.168848,0.993568,-8.610000,0.840000,1.050000,19.16
164218,0.260104,-0.183976,0.989176,-5.530000,1.120000,0.280000,19.15
164228,0.257664,-0.185440,0.987224,-2.660000,1.260000,-0.350000,19.11
164239,0.251808,-0.175680,0.990152,0.210000,0.770000,-0.700000,19.11
164250,0.244488,-0.166408,0.996008,1.260000,-0.210000,-1.050000,19.14
164261,0.240096,-0.158112,1.002352,1.190000,-1.050000,-1.260000,19.14
164272,0.236192,-0.146400,1.002352,-0.350000,-1.820000,-1.470000,19.16
164284,0.239608,-0.154208,0.995032,-1.820000,-2.240000,-1.750000,19.11
164295,0.234240,-0.165920,0.987712,-0.910000,-2.520000,-2.240000,19.11
164306,0.240584,-0.176168,0.982344,0.420000,-3.080000,-2.380000,19.16
164317,0.231800,-0.170312,0.978928,3.080000,-3.570000,-2.170000,19.16
164328,0.235216,-0.164456,0.973072,5.040000,-4.060000,-1.890000,19.19
164340,0.242048,-0.153720,0.982344,5.880000,-4.200000,-1.120000,19.15
164350,0.239120,-0.134688,0.996008,4.620000,-4.270000,-0.700000,19.15
164361,0.230824,-0.123464,0.997960,2.030000,-4.480000,-0.560000,19.14
164372,0.229848,-0.129808,0.983320,0.350000,-4.760000,-0.420000,19.14
164383,0.226920,-0.143472,0.974536,-0.070000,-5.040000,-0.490000,19.16
164394,0.224480,-0.151768,0.971608,0.840000,-5.250000,-0.420000,19.16
164405,0.238632,-0.160064,0.967216,2.380000,-5.320000,-0.350000,19.12
164416,0.238144,-0.163968,0.971120,5.320000,-5.040000,0.070000,19.10
164427,0.236680,-0.135176,0.973560,6.020000,-4.900000,0.280000,19.10
164438,0.240584,-0.131760,0.976488,4.620000,-4.620000,0.560000,19.17
164449,0.239608,-0.133712,0.973072,3.290000,-4.060000,0.770000,19.17
164459,0.248392,-0.144936,0.967704,1.540000,-3.780000,0.770000,19.18
164470,0.253272,-0.145424,0.962336,0.490000,-3.220000,1.120000,19.13
164481,0.256688,-0.147864,0.965264,-0.840000,-2.380000,1.120000,19.13
164493,0.256688,-0.157624,0.968680,-0.700000,-2.100000,0.770000,19.16
164504,0.256200,-0.161528,0.967216,-0.420000,-1.890000,0.770000,19.16
164515,0.261568,-0.164456,0.970632,0.140000,-1.330000,0.630000,19.13
164526,0.259128,-0.153720,0.974536,-0.280000,-0.770000,1.120000,19.09
164537,0.254248,-0.146400,0.978440,-1.050000,-0.840000,1.330000,19.09
164548,0.250344,-0.147864,0.984296,-2.030000,-1.190000,1.120000,19.18
164559,0.243024,-0.150304,0.981368,-2.520000,-1.470000,0.910000,19.18
164570,0.240096,-0.159576,0.981856,-2.520000,-1.960000,0.140000,19.19
164581,0.237656,-0.167872,0.985760,-0.700000,-2.310000,-0.280000,19.19
164592,0.235216,-0.164456,0.981856,1.820000,-2.870000,-0.490000,19.15
164602,0.233752,-0.158600,0.976488,3.850000,-3.430000,-0.700000,19.15
164613,0.231800,-0.149328,0.979416,5.950000,-3.920000,-0.980000,19.15
164624,0.241072,-0.142496,0.976976,6.860000,-4.200000,-1.050000,19.17
164635,0.246928,-0.127856,0.975512,5.810000,-3.710000,-0.770000,19.17
164646,0.247416,-0.118584,0.978440,4.270000,-3.150000,-0.280000,19.14
164657,0.248880,-0.108824,0.981368,1.890000,-3.010000,0.210000,19.16
164668,0.253272,-0.120536,0.984784,0.070000,-2.520000,0.700000,19.16
164678,0.259128,-0.135664,0.987224,-0.420000,-2.240000,1.260000,19.15
164689,0.256200,-0.143472,0.983320,0.210000,-1.890000,1.610000,19.15
164700,0.256688,-0.147376,0.983808,0.630000,-1.750000,1.960000,19.17
164711,0.254736,-0.145912,0.982832,0.910000,-1.540000,2.380000,19.17
164722,0.248880,-0.142496,0.982832,0.210000,-1.540000,2.590000,19.19
164732,0.242048,-0.149328,0.989664,0.140000,-1.750000,2.520000,19.16
164743,0.239608,-0.145424,0.993568,-0.490000,-2.100000,2.240000,19.16
164754,0.237656,-0.152744,0.992592,-0.490000,-2.310000,2.030000,19.17
164765,0.238144,-0.155184,0.984784,-0.420000,-2.590000,1.400000,19.17
164776,0.230824,-0.162992,0.975512,0.700000,-2.730000,1.050000,19.18
164787,0.227896,-0.162992,0.976000,2.100000,-2.940000,0.560000,19.18
164797,0.225456,-0.160552,0.980880,3.850000,-3.290000,0.490000,19.12
164808,0.233752,-0.155184,0.981856,4.270000,-3.570000,0.490000,19.19
164819,0.238632,-0.152744,0.978928,4.200000,-3.360000,0.980000,19.19
164830,0.239608,-0.145424,0.978928,4.200000,-3.220000,1.260000,19.16
164841,0.243512,-0.141520,0.984784,3.920000,-3.290000,1.820000,19.16
164851,0.247904,-0.137128,0.986248,2.730000,-3.220000,2.590000,19.11
164862,0.259128,-0.145424,0.992104,0.490000,-2.940000,3.290000,19.15
164873,0.259616,-0.154208,0.990152,-1.050000,-2.660000,3.570000,19.15
164884,0.254736,-0.156160,0.985272,-1.750000,-2.590000,3.570000,19.11
164895,0.248392,-0.156648,0.979904,-2.380000,-3.010000,3.360000,19.11
164906,0.242536,-0.174216,0.980392,-1.820000,-2.940000,2.800000,19.15
164916,0.245952,-0.178608,0.979416,-0.140000,-2.870000,2.520000,19.15
164927,0.240096,-0.171776,0.979904,1.610000,-2.730000,2.240000,19.13
164938,0.238144,-0.157136,0.986736,2.100000,-2.870000,2.240000,19.11
164949,0.236680,-0.150792,0.988688,1.680000,-2.730000,2.100000,19.11
164960,0.230336,-0.145912,0.987712,0.910000,-2.730000,1.960000,19.23
164971,0.227896,-0.149328,0.981856,0.490000,-2.870000,1.680000,19.23
164981,0.236192,-0.162992,0.976976,1.260000,-2.870000,1.470000,19.16
164992,0.236680,-0.162016,0.979904,2.590000,-2.800000,1.190000,19.16
165004,0.240096,-0.154208,0.981368,3.570000,-2.870000,1.400000,19.17
165015,0.244488,-0.155184,0.989176,3.570000,-2.870000,1.680000,19.17
165026,0.247904,-0.164456,0.992104,3.500000,-2.310000,1.400000,19.17
165037,0.251320,-0.153232,0.994056,3.010000,-2.240000,1.820000,19.16
165049,0.255224,-0.142984,0.992104,0.910000,-2.450000,2.380000,19.14
165060,0.253272,-0.149816,0.989176,-1.540000,-2.590000,2.450000,19.14
165071,0.248392,-0.156648,0.989664,-3.010000,-2.800000,2.310000,19.18
165082,0.239608,-0.171776,0.986736,-3.220000,-2.870000,1.820000,19.18
165093,0.234728,-0.174704,0.981368,-1.750000,-3.080000,1.330000,19.21
165104,0.237168,-0.185440,0.977952,-0.070000,-3.220000,0.770000,19.21
165116,0.232776,-0.188856,0.980880,2.310000,-3.220000,0.070000,19.15
165128,0.230824,-0.165920,0.982832,4.480000,-3.710000,-0.630000,19.15
165139,0.227896,-0.158600,0.983808,5.250000,-4.060000,-1.260000,19.15
165150,0.229848,-0.155672,0.985760,5.320000,-4.200000,-1.260000,19.16
165161,0.239120,-0.150304,0.986248,4.690000,-4.340000,-1.050000,19.14
165172,0.240096,-0.141520,0.987712,3.360000,-4.200000,-0.560000,19.14
165183,0.243024,-0.140544,0.984296,2.310000,-4.410000,-0.280000,19.15
165194,0.245952,-0.141520,0.977952,1.680000,-4.200000,-0.140000,19.15
165205,0.249856,-0.150792,0.982344,1.610000,-4.130000,-0.070000,19.18
165216,0.251320,-0.156160,0.980392,2.310000,-3.780000,-0.140000,19.18
165227,0.249856,-0.151768,0.982832,2.590000,-3.710000,-0.070000,19.12
165237,0.250832,-0.145424,0.984296,1.960000,-3.710000,0.140000,19.15
165248,0.250832,-0.142984,0.987224,0.770000,-3.850000,0.280000,19.15
165259,0.251808,-0.144448,0.986736,0.210000,-3.850000,0.420000,19.16
165271,0.253272,-0.144936,0.983320,-0.420000,-3.710000,0.280000,19.16
165282,0.250832,-0.143472,0.983320,-0.560000,-3.710000,0.490000,19.16
165293,0.245464,-0.145424,0.985760,-0.210000,-3.850000,0.350000,19.14
165305,0.244488,-0.150304,0.988200,0.770000,-4.200000,0.140000,19.14
165316,0.246928,-0.158112,0.989176,1.960000,-4.130000,0.140000,19.17
165327,0.246440,-0.153720,0.988688,3.290000,-3.990000,0.000000,19.17
165338,0.246440,-0.145424,0.989176,3.150000,-4.130000,0.000000,19.20
165349,0.245464,-0.136640,0.991128,2.380000,-4.270000,0.000000,19.19
165360,0.248880,-0.146400,0.994056,1.260000,-4.620000,0.140000,19.19
165371,0.248880,-0.148352,0.996496,0.770000,-4.620000,0.070000,19.17
165382,0.248392,-0.144936,0.988200,1.120000,-4.830000,0.210000,19.17
165393,0.248880,-0.143472,0.984784,1.540000,-4.830000,0.000000,19.16
165405,0.243024,-0.143960,0.990640,2.450000,-5.250000,0.210000,19.18
165415,0.240584,-0.134200,0.988200,2.590000,-5.740000,0.910000,19.18
165426,0.246928,-0.131272,0.984296,2.030000,-6.230000,1.190000,19.16
165437,0.253272,-0.139080,0.982344,2.030000,-6.020000,1.890000,19.16
165448,0.255712,-0.139568,0.982832,2.170000,-5.880000,2.380000,19.18
165459,0.259616,-0.141520,0.991128,2.240000,-5.880000,2.730000,19.14
165470,0.257664,-0.137616,0.987712,1.960000,-6.020000,3.360000,19.14
165481,0.257664,-0.140544,0.977464,1.540000,-6.160000,3.710000,19.17
165492,0.263520,-0.144936,0.973072,0.980000,-6.020000,3.710000,19.17
165504,0.263520,-0.145912,0.971608,0.140000,-5.460000,3.920000,19.18
165515,0.266936,-0.151280,0.973072,0.350000,-5.040000,3.920000,19.10
165526,0.262056,-0.152256,0.974536,0.350000,-4.830000,3.990000,19.10
165537,0.258152,-0.149328,0.971120,-0.350000,-4.690000,3.990000,19.12
165548,0.256688,-0.155184,0.972584,-0.980000,-4.480000,3.710000,19.12
165559,0.251808,-0.155672,0.974536,-0.980000,-4.480000,3.080000,19.20
165570,0.254736,-0.156160,0.970144,-0.980000,-4.410000,2.730000,19.20
165581,0.251808,-0.163968,0.965752,-0.420000,-4.200000,2.240000,19.12
165592,0.250832,-0.162992,0.959896,0.630000,-4.340000,1.750000,19.14
165603,0.248880,-0.155672,0.963800,1.120000,-4.200000,1.540000,19.14
165615,0.250344,-0.146400,0.961360,1.190000,-4.340000,1.610000,19.14
165625,0.257664,-0.148840,0.967216,0.840000,-4.060000,1.540000,19.14
165636,0.267424,-0.151768,0.970144,0.560000,-3.360000,1.750000,19.14
165647,0.264496,-0.151768,0.970144,0.140000,-2.800000,1.820000,19.15
165658,0.270352,-0.157136,0.973560,-0.070000,-2.660000,1.890000,19.15
165669,0.270352,-0.160552,0.978928,-0.070000,-2.380000,1.750000,19.16
165681,0.270352,-0.160552,0.979416,-0.630000,-2.100000,1.680000,19.16
165692,0.272792,-0.168848,0.979904,-1.260000,-1.960000,1.610000,19.17
165702,0.269376,-0.163968,0.979416,-1.820000,-1.820000,1.260000,19.12
165714,0.265472,-0.167384,0.982832,-2.590000,-1.610000,0.910000,19.12
165725,0.257664,-0.168848,0.983808,-2.660000,-1.540000,0.630000,19.20
165736,0.251808,-0.173728,0.982832,-2.170000,-1.610000,0.210000,19.20
165748,0.249856,-0.171288,0.984784,-1.470000,-2.030000,0.070000,19.18
165759,0.248880,-0.169336,0.987712,-0.560000,-2.450000,-0.210000,19.14
165770,0.252296,-0.168360,0.983808,-0.070000,-2.870000,-0.490000,19.14
165781,0.252784,-0.167872,0.984784,0.630000,-3.150000,-0.490000,19.17
165792,0.252296,-0.162992,0.986736,0.700000,-3.430000,-0.420000,19.17
165803,0.255224,-0.160064,0.979904,0.700000,-3.570000,-0.280000,19.16
165814,0.259616,-0.162992,0.978440,0.770000,-3.430000,-0.210000,19.20
165824,0.261080,-0.164944,0.977952,0.910000,-3.220000,-0.210000,19.20
165835,0.262056,-0.162992,0.979904,0.770000,-3.220000,-0.070000,19.14
165846,0.266936,-0.158112,0.978928,0.140000,-3.150000,0.000000,19.14
165857,0.262544,-0.156160,0.977464,-0.420000,-2.730000,-0.210000,19.19
165868,0.257176,-0.157624,0.976488,-0.980000,-2.730000,-0.420000,19.19
165880,0.257176,-0.160064,0.979416,-1.120000,-2.730000,-0.560000,19.20
165890,0.252296,-0.164456,0.981368,-0.490000,-3.010000,-0.770000,19.16
165901,0.254248,-0.158112,0.972096,0.070000,-3.150000,-0.700000,19.16
165912,0.254736,-0.158112,0.972096,0.140000,-3.080000,-0.840000,19.17
165923,0.255712,-0.157136,0.976488,0.560000,-2.870000,-0.910000,19.17
165934,0.256688,-0.151280,0.975024,0.560000,-2.940000,-0.910000,19.13
165945,0.255224,-0.149816,0.976488,0.070000,-3.150000,-0.490000,19.16
165956,0.256688,-0.153720,0.972584,-0.560000,-3.220000,-0.630000,19.16
165967,0.258152,-0.156160,0.970632,-0.560000,-3.150000,-0.420000,19.15
165978,0.262056,-0.165920,0.972096,0.070000,-3.010000,-0.560000,19.15
165989,0.259616,-0.154208,0.976976,0.840000,-3.010000,-0.210000,19.18
166000,0.257664,-0.151768,0.974048,0.840000,-3.220000,-0.280000,19.18
166012,0.253760,-0.148352,0.972584,0.140000,-3.080000,-0.280000,19.16
166023,0.253272,-0.149816,0.970632,-0.280000,-2.940000,-0.350000,19.15
166034,0.253760,-0.159088,0.971608,-0.280000,-2.730000,-0.210000,19.15
166045,0.257664,-0.158600,0.972096,0.070000,-2.660000,0.210000,19.15
166056,0.253272,-0.154696,0.969656,0.490000,-2.940000,0.280000,19.16
166067,0.255224,-0.157136,0.969168,0.420000,-2.940000,0.490000,19.16
166078,0.263032,-0.157136,0.969168,0.280000,-2.730000,0.700000,19.14
166089,0.262056,-0.154208,0.967704,-0.280000,-2.310000,0.840000,19.14
166100,0.262056,-0.160552,0.972584,-0.490000,-2.100000,0.840000,19.18
166111,0.261080,-0.163480,0.975512,-0.280000,-1.960000,1.050000,19.18
166123,0.258640,-0.162992,0.973560,-0.140000,-2.170000,1.120000,19.16
166134,0.258640,-0.162504,0.969656,-0.420000,-2.450000,1.190000,19.15
166146,0.264008,-0.169824,0.970144,-0.350000,-2.240000,0.910000,19.15
166159,0.262544,-0.164944,0.970632,-0.420000,-2.030000,0.840000,19.18
166170,0.256688,-0.164944,0.973072,-0.490000,-2.030000,0.840000,19.18
166182,0.252296,-0.162504,0.974536,-0.770000,-2.450000,0.910000,19.18
166193,0.248392,-0.164944,0.973072,-1.050000,-2.660000,0.840000,19.17
166204,0.245952,-0.177144,0.969168,0.070000,-2.730000,0.420000,19.17
166216,0.249368,-0.170800,0.966728,1.680000,-2.800000,0.210000,19.17
166227,0.250832,-0.166408,0.971120,2.310000,-2.940000,0.210000,19.14
166239,0.253760,-0.160064,0.961360,2.240000,-2.800000,0.560000,19.14
166250,0.260592,-0.159088,0.966728,1.400000,-2.310000,0.490000,19.20
166261,0.261080,-0.162992,0.976000,0.560000,-2.240000,0.420000,19.20
166272,0.260104,-0.169824,0.974536,0.210000,-1.960000,0.490000,19.15
166283,0.262056,-0.176168,0.974048,0.630000,-1.750000,0.350000,19.18
166295,0.258640,-0.167872,0.972096,1.050000,-1.820000,0.350000,19.18
166306,0.259128,-0.162992,0.973072,0.420000,-1.820000,0.350000,19.18
166317,0.259616,-0.162992,0.973072,-0.700000,-1.330000,0.140000,19.12
166329,0.252296,-0.169336,0.969656,-1.330000,-1.190000,0.140000,19.12
166340,0.252784,-0.174704,0.975512,-0.840000,-1.470000,-0.210000,19.18
166353,0.252296,-0.183976,0.979904,0.770000,-1.610000,-0.490000,19.18
166364,0.250344,-0.171288,0.976976,2.100000,-1.960000,-0.490000,19.19
166375,0.248392,-0.162016,0.976000,1.680000,-2.030000,-0.490000,19.14
166386,0.245952,-0.162504,0.979416,0.980000,-2.100000,-0.490000,19.14
166398,0.243512,-0.165920,0.977952,0.490000,-2.310000,-0.910000,19.16
166409,0.249856,-0.172752,0.978928,0.980000,-2.590000,-1.050000,19.16
166421,0.252296,-0.177144,0.982832,1.680000,-2.240000,-1.050000,19.16
166432,0.250832,-0.161528,0.978928,1.330000,-2.310000,-0.770000,19.18
166444,0.251808,-0.160064,0.979416,0.350000,-2.660000,-0.840000,19.18
166456,0.253272,-0.167872,0.987224,0.140000,-2.450000,-0.980000,19.18
166467,0.251320,-0.166408,0.991616,0.350000,-2.310000,-0.630000,19.16
166479,0.253272,-0.163480,0.987224,0.210000,-2.450000,-0.140000,19.16
166491,0.253760,-0.162992,0.987712,0.140000,-2.660000,0.350000,19.15
166502,0.255224,-0.161040,0.990640,-0.070000,-3.010000,0.420000,19.15
166513,0.260592,-0.174216,0.985272,0.280000,-3.080000,0.350000,19.18
166524,0.261568,-0.170312,0.983320,0.700000,-3.010000,0.560000,19.16
166536,0.265960,-0.164456,0.979416,-0.070000,-2.940000,0.840000,19.16
166547,0.264984,-0.166896,0.982344,-0.700000,-2.870000,0.910000,19.18
166559,0.265472,-0.174704,0.990640,-0.910000,-3.150000,0.770000,19.18
166570,0.263032,-0.178120,0.993080,-0.140000,-3.640000,0.770000,19.14
166582,0.261568,-0.183488,0.989176,1.330000,-3.990000,0.280000,19.18
166593,0.253272,-0.172752,0.977464,2.520000,-4.410000,-0.070000,19.18
166605,0.257664,-0.172264,0.975024,2.940000,-4.830000,-0.420000,19.16
166616,0.260592,-0.163480,0.972096,3.150000,-4.830000,-0.630000,19.18
166628,0.264008,-0.161040,0.973072,2.800000,-4.550000,-0.770000,19.18
166640,0.260592,-0.152256,0.971608,2.450000,-4.480000,-0.700000,19.20
166651,0.264496,-0.150792,0.967216,2.170000,-4.270000,-0.420000,19.20
166662,0.261080,-0.157624,0.964776,2.030000,-4.270000,-0.140000,19.18
166674,0.263520,-0.152256,0.961848,2.380000,-3.920000,0.070000,19.15
166685,0.266936,-0.141032,0.960384,1.400000,-3.780000,0.770000,19.15
166697,0.272792,-0.144448,0.958432,-0.350000,-3.010000,0.980000,19.13
166709,0.271816,-0.162504,0.963800,-0.420000,-2.380000,1.470000,19.13
166721,0.267912,-0.159576,0.973560,0.840000,-2.450000,1.680000,19.15
166732,0.264984,-0.151768,0.978440,0.770000,-2.870000,2.030000,19.18
166744,0.262056,-0.154208,0.977464,0.070000,-3.080000,2.100000,19.18
166755,0.267424,-0.160064,0.976488,-1.050000,-3.220000,2.310000,19.20
166766,0.271816,-0.170312,0.979416,-1.120000,-2.800000,2.030000,19.13
166777,0.262056,-0.164944,0.979904,-0.560000,-2.940000,1.890000,19.13
166792,0.254248,-0.169824,0.981856,0.770000,-3.710000,1.680000,19.19
166803,0.253272,-0.161528,0.976488,1.470000,-4.270000,1.610000,19.11
166814,0.253760,-0.167384,0.977464,1.960000,-4.270000,1.470000,19.11
166825,0.252784,-0.161040,0.976976,1.890000,-4.200000,1.400000,19.12
166836,0.254736,-0.160552,0.980880,1.820000,-4.340000,1.470000,19.12
166848,0.254736,-0.150304,0.981856,2.240000,-4.690000,1.610000,19.19
166859,0.253760,-0.152256,0.974048,2.240000,-4.690000,1.820000,19.12
166870,0.262056,-0.159088,0.970144,2.450000,-4.690000,2.030000,19.12
166882,0.261568,-0.153232,0.976488,2.170000,-4.550000,2.240000,19.16
166893,0.271328,-0.157624,0.977952,1.470000,-4.130000,2.800000,19.16
166904,0.273280,-0.153720,0.982832,0.840000,-3.920000,3.570000,19.19
166916,0.275232,-0.156160,0.978928,-0.420000,-3.780000,3.990000,19.13
166927,0.277672,-0.166408,0.979416,-0.980000,-3.640000,4.340000,19.13
166938,0.275720,-0.175192,0.977464,-0.840000,-3.500000,4.270000,19.18
166950,0.271328,-0.180072,0.976488,-0.910000,-3.500000,4.270000,19.18
166961,0.271328,-0.179584,0.976000,-1.400000,-3.640000,4.060000,19.18
166973,0.268400,-0.186416,0.975024,-1.890000,-3.640000,3.500000,19.17
166984,0.265472,-0.187392,0.974536,-1.820000,-3.500000,3.150000,19.17
166996,0.259128,-0.194224,0.975512,-0.630000,-3.640000,2.380000,19.17
167008,0.261568,-0.190320,0.978928,0.210000,-4.060000,1.610000,19.17
167019,0.257664,-0.183488,0.977464,1.120000,-4.340000,1.330000,19.20
167031,0.261568,-0.179096,0.973560,1.190000,-4.480000,0.980000,19.18
167042,0.264008,-0.182024,0.971608,1.330000,-4.480000,0.840000,19.18
167054,0.264984,-0.182512,0.968192,1.820000,-4.410000,0.490000,19.20
167065,0.268400,-0.179584,0.965752,1.960000,-4.200000,0.280000,19.14
167077,0.268888,-0.174704,0.964776,1.820000,-3.850000,0.210000,19.14
167088,0.271816,-0.168848,0.969656,1.190000,-3.570000,0.420000,19.23
167099,0.269864,-0.167384,0.964776,0.000000,-3.150000,0.490000,19.23
167111,0.265960,-0.169336,0.963800,-0.770000,-2.940000,0.280000,19.15
167123,0.265960,-0.178120,0.969656,-0.210000,-2.660000,0.070000,19.15
167134,0.264496,-0.179584,0.971608,0.910000,-2.450000,0.140000,19.15
167146,0.262056,-0.172752,0.973560,1.540000,-2.380000,0.420000,19.18
167157,0.258152,-0.164456,0.975512,0.630000,-2.310000,0.420000,19.13
167169,0.257176,-0.167872,0.974536,-0.420000,-2.310000,0.560000,19.13
167180,0.255712,-0.175680,0.973560,-0.560000,-2.170000,0.490000,19.13
167192,0.254248,-0.175680,0.966728,-0.350000,-2.450000,0.280000,19.13
167203,0.257664,-0.181048,0.965752,0.420000,-2.520000,0.210000,19.18
167215,0.254736,-0.174216,0.960384,0.770000,-2.870000,0.000000,19.13
167226,0.258640,-0.182512,0.967704,0.980000,-2.940000,-0.070000,19.13
167238,0.261568,-0.180072,0.974536,1.610000,-3.010000,-0.070000,19.18
167249,0.264984,-0.175192,0.967704,1.540000,-2.730000,-0.140000,19.18
167261,0.261080,-0.170312,0.964288,1.610000,-2.590000,-0.140000,19.16
167272,0.264008,-0.173728,0.964288,1.260000,-2.590000,-0.350000,19.17
167284,0.264496,-0.172264,0.962336,1.120000,-2.450000,-0.210000,19.17
167296,0.269376,-0.174704,0.962336,1.120000,-2.170000,-0.140000,19.20
167307,0.272792,-0.174216,0.968680,0.980000,-1.610000,-0.210000,19.17
167319,0.272792,-0.170800,0.970632,0.630000,-1.190000,-0.070000,19.17
167330,0.273280,-0.170312,0.974048,-0.350000,-0.840000,0.140000,19.14
167342,0.270840,-0.175192,0.970632,-0.980000,-0.770000,0.280000,19.14
167354,0.271816,-0.174704,0.975024,-1.190000,-0.910000,0.350000,19.17
167365,0.264984,-0.176168,0.983320,-1.190000,-0.980000,0.210000,19.16
167376,0.267424,-0.181536,0.986248,-0.700000,-1.260000,0.070000,19.16
167388,0.263520,-0.186904,0.987712,0.000000,-1.610000,0.070000,19.16
167399,0.267424,-0.182024,0.982832,0.770000,-2.380000,-0.210000,19.16
167411,0.261080,-0.172752,0.979904,0.630000,-2.660000,-0.490000,19.15
167423,0.256200,-0.173240,0.980392,0.490000,-2.940000,-0.420000,19.20
167435,0.261568,-0.178608,0.976976,0.770000,-3.220000,-0.560000,19.20
167447,0.260592,-0.183488,0.974536,1.820000,-3.360000,-0.350000,19.19
167458,0.264008,-0.180072,0.976488,2.870000,-3.220000,-0.490000,19.16
167470,0.265960,-0.170800,0.969656,2.870000,-3.220000,-0.630000,19.16
167481,0.259128,-0.158600,0.968192,2.590000,-3.010000,-0.140000,19.19
167493,0.266448,-0.161528,0.969656,0.700000,-2.870000,-0.070000,19.19
167504,0.266936,-0.169824,0.976976,-0.210000,-2.730000,0.140000,19.20
167516,0.268888,-0.174704,0.978928,-0.140000,-2.660000,0.210000,19.16
167527,0.269864,-0.175192,0.969656,0.070000,-2.380000,0.420000,19.16
167539,0.270840,-0.173728,0.970632,0.630000,-2.170000,0.420000,19.19
167551,0.271328,-0.174704,0.974048,0.070000,-2.170000,0.350000,19.20
167562,0.267912,-0.177144,0.985272,-0.070000,-2.240000,0.280000,19.20
167574,0.265960,-0.183488,0.981368,-0.210000,-2.380000,0.560000,19.19
167586,0.258640,-0.183976,0.976000,0.560000,-2.800000,0.350000,19.19
167597,0.263520,-0.176168,0.976000,0.910000,-3.150000,0.210000,19.15
167609,0.265960,-0.175680,0.977464,1.120000,-3.150000,0.000000,19.17
167620,0.264984,-0.165432,0.974536,0.700000,-3.430000,-0.070000,19.17
167631,0.262056,-0.169824,0.974048,0.000000,-3.430000,-0.070000,19.21
167643,0.255712,-0.180072,0.973072,1.050000,-3.500000,-0.420000,19.16
167654,0.249368,-0.178608,0.964776,2.660000,-3.780000,-0.420000,19.16
167666,0.255712,-0.175192,0.961360,3.780000,-3.850000,-0.350000,19.18
167677,0.262056,-0.163480,0.964288,3.080000,-3.570000,0.000000,19.18
167688,0.264984,-0.159576,0.963312,1.750000,-3.080000,0.210000,19.14
167700,0.264984,-0.166896,0.968680,0.630000,-2.800000,0.420000,19.20
167711,0.261568,-0.173728,0.966240,0.420000,-2.520000,0.490000,19.20
167723,0.259128,-0.177632,0.967704,0.840000,-2.310000,0.700000,19.18
167734,0.259128,-0.173728,0.972096,1.120000,-2.170000,1.050000,19.18
167745,0.261080,-0.165432,0.977464,0.350000,-2.100000,1.190000,19.21
167757,0.262544,-0.172752,0.977952,-0.630000,-1.890000,1.400000,19.12
167768,0.262544,-0.175192,0.974048,-0.840000,-1.750000,1.470000,19.12
167780,0.262544,-0.180560,0.973072,-0.980000,-1.960000,1.190000,19.21
167791,0.259616,-0.187392,0.978440,-0.700000,-2.100000,0.980000,19.21
167802,0.259128,-0.183488,0.978440,-0.140000,-2.310000,1.050000,19.16
167814,0.258152,-0.183488,0.980392,-0.070000,-2.520000,1.050000,19.19
167825,0.262056,-0.189832,0.978440,0.420000,-2.660000,0.910000,19.19
167836,0.265960,-0.185928,0.972096,0.560000,-2.870000,0.770000,19.16
167848,0.267912,-0.183488,0.968680,0.770000,-2.870000,0.420000,19.19
167860,0.265472,-0.181048,0.971120,0.700000,-2.660000,0.350000,19.19
167871,0.263032,-0.183000,0.971120,0.420000,-2.660000,0.070000,19.20
167882,0.260592,-0.184464,0.967704,0.350000,-2.660000,-0.210000,19.20
167894,0.261080,-0.187392,0.963800,0.280000,-2.800000,-0.350000,19.20
167905,0.263520,-0.184464,0.961848,0.910000,-2.800000,-0.490000,19.18
167917,0.266448,-0.177144,0.962824,1.260000,-2.380000,-0.560000,19.18
167929,0.268888,-0.175192,0.969168,1.050000,-1.960000,-0.560000,19.22
167940,0.264008,-0.171288,0.972584,0.210000,-1.680000,-0.490000,19.22
167952,0.263032,-0.178120,0.971608,0.000000,-1.750000,-0.490000,19.22
167963,0.260104,-0.178608,0.965752,0.070000,-1.890000,-0.770000,19.20
167974,0.262544,-0.183000,0.968680,0.770000,-1.610000,-0.770000,19.20
167986,0.266448,-0.177144,0.970632,1.330000,-1.470000,-0.770000,19.20
167997,0.263520,-0.165920,0.973560,1.050000,-1.400000,-0.560000,19.18
168009,0.263032,-0.167384,0.978440,0.350000,-1.400000,-0.350000,19.18
168020,0.261568,-0.172264,0.979416,0.070000,-1.470000,-0.420000,19.20
168031,0.263032,-0.175192,0.978440,-0.070000,-1.680000,-0.280000,19.20
168043,0.268888,-0.181048,0.973072,0.350000,-1.960000,-0.350000,19.19
168054,0.268888,-0.177632,0.980392,0.840000,-1.960000,-0.210000,19.21
168065,0.264496,-0.169824,0.979416,-0.070000,-2.170000,0.140000,19.21
168076,0.264008,-0.180072,0.977952,-0.420000,-2.170000,0.210000,19.20
168088,0.264008,-0.182024,0.978440,-0.350000,-2.380000,0.070000,19.20
168099,0.262056,-0.188856,0.979904,0.420000,-2.590000,-0.070000,19.16
168110,0.265472,-0.183488,0.975512,1.120000,-2.660000,-0.420000,19.14
168122,0.262544,-0.187880,0.976000,1.890000,-2.730000,-0.630000,19.14
168133,0.263032,-0.177632,0.977464,2.100000,-2.940000,-0.490000,19.22
168144,0.262056,-0.178120,0.979416,2.100000,-3.290000,-0.700000,19.22
168156,0.265960,-0.183000,0.970632,2.240000,-3.360000,-0.840000,19.15
168167,0.267912,-0.177144,0.971120,2.380000,-3.080000,-1.330000,19.22
168179,0.272304,-0.171776,0.976000,1.540000,-2.870000,-1.120000,19.22
168190,0.270352,-0.174216,0.980880,1.190000,-2.660000,-0.700000,19.20
168201,0.266936,-0.174704,0.974048,0.910000,-2.660000,-0.280000,19.20
168212,0.268888,-0.171288,0.971608,1.050000,-2.450000,-0.070000,19.21
168224,0.270352,-0.167384,0.975512,0.280000,-2.310000,0.070000,19.24
168236,0.269376,-0.171776,0.982832,-0.210000,-2.240000,0.000000,19.24
168247,0.263032,-0.177144,0.986248,-0.840000,-2.590000,0.070000,19.21
168258,0.259128,-0.179584,0.978928,-0.140000,-3.080000,0.070000,19.21
168270,0.260104,-0.186416,0.976488,0.560000,-3.570000,-0.210000,19.21
168281,0.264496,-0.184952,0.967216,1.820000,-3.500000,-0.490000,19.17
168293,0.268888,-0.174704,0.966728,2.170000,-3.360000,-0.420000,19.17
168304,0.265472,-0.170312,0.970144,2.100000,-3.360000,-0.350000,19.19
168316,0.265960,-0.166408,0.968192,2.030000,-3.220000,-0.070000,19.21
168327,0.268400,-0.163480,0.962824,0.770000,-3.080000,0.350000,19.21
168339,0.264008,-0.169824,0.963312,0.000000,-2.450000,0.700000,19.20
168350,0.263032,-0.165920,0.965752,-0.770000,-2.170000,0.770000,19.20
168361,0.265960,-0.174216,0.972096,-0.630000,-2.100000,0.630000,19.18
168372,0.262544,-0.180560,0.971120,-0.070000,-2.100000,0.630000,19.21
168384,0.261568,-0.180072,0.970632,0.280000,-2.310000,0.700000,19.21
168395,0.263520,-0.175192,0.972096,0.280000,-2.030000,0.700000,19.19
168406,0.260592,-0.171288,0.969656,-0.630000,-1.890000,0.700000,19.19
168417,0.261080,-0.183000,0.972584,-0.910000,-1.610000,0.490000,19.22
168429,0.257664,-0.186416,0.973072,0.070000,-1.890000,0.490000,19.21
168440,0.257176,-0.179584,0.974048,0.840000,-2.240000,0.350000,19.21
168451,0.253272,-0.180560,0.972584,1.400000,-2.730000,0.000000,19.26
168463,0.258640,-0.172752,0.972584,1.050000,-2.800000,0.280000,19.26
168473,0.259616,-0.175680,0.974048,0.630000,-2.940000,0.070000,19.21
168485,0.259128,-0.179096,0.973072,0.490000,-3.150000,0.140000,19.16
168496,0.259128,-0.181048,0.973072,0.980000,-3.150000,0.070000,19.16
168507,0.261568,-0.185440,0.972096,1.400000,-3.290000,0.280000,19.20
168518,0.263520,-0.184464,0.972096,2.030000,-3.150000,0.560000,19.20
168530,0.266936,-0.178608,0.969656,2.170000,-3.080000,0.490000,19.21
168541,0.264496,-0.177144,0.970144,1.960000,-2.940000,0.280000,19.16
168552,0.265472,-0.174216,0.971608,1.190000,-2.730000,0.210000,19.16
168563,0.262056,-0.179584,0.971608,0.630000,-2.800000,0.070000,19.23
168575,0.265960,-0.179584,0.972096,0.280000,-2.660000,0.140000,19.23
168586,0.264984,-0.191784,0.973072,0.210000,-2.380000,-0.280000,19.22
168597,0.258640,-0.183976,0.976000,0.630000,-2.450000,-0.350000,19.23
168609,0.261080,-0.183976,0.973560,0.910000,-2.450000,-0.280000,19.23
168620,0.260592,-0.183488,0.975024,1.400000,-2.590000,-0.490000,19.21
168632,0.259128,-0.178608,0.974536,1.820000,-2.660000,-0.350000,19.16
168643,0.262056,-0.176656,0.975024,1.680000,-2.520000,-0.210000,19.16
168654,0.258640,-0.169824,0.975512,1.050000,-2.520000,-0.140000,19.19
168666,0.261568,-0.170312,0.974048,0.350000,-2.380000,0.070000,19.19
168677,0.264984,-0.181048,0.971608,0.210000,-2.380000,0.280000,19.18
168689,0.264496,-0.184464,0.971120,0.770000,-2.450000,0.210000,19.26
168700,0.267912,-0.183000,0.968192,1.470000,-2.450000,0.000000,19.26
168711,0.264984,-0.182512,0.969656,1.680000,-2.590000,-0.140000,19.20
168722,0.261080,-0.180560,0.974048,1.330000,-2.660000,-0.280000,19.20
168734,0.263520,-0.180560,0.975024,1.050000,-2.940000,-0.420000,19.21
168745,0.265960,-0.183000,0.969656,1.120000,-2.660000,-0.280000,19.20
168757,0.264008,-0.177144,0.966240,1.050000,-2.660000,-0.770000,19.20
168768,0.258152,-0.178120,0.967704,1.190000,-2.660000,-0.980000,19.20
168780,0.253760,-0.180560,0.966728,1.680000,-2.730000,-1.190000,19.20
168791,0.254736,-0.179584,0.963800,2.170000,-2.660000,-1.050000,19.20
168802,0.262544,-0.172752,0.964288,2.590000,-2.380000,-0.560000,19.21
168813,0.266936,-0.163480,0.967216,1.680000,-1.960000,-0.350000,19.21
168825,0.269864,-0.162504,0.969656,0.630000,-1.470000,-0.280000,19.21
168836,0.262544,-0.167872,0.973560,0.000000,-1.330000,-0.420000,19.21
168848,0.256688,-0.181048,0.973072,0.700000,-1.540000,-0.280000,19.21
168859,0.260592,-0.172752,0.976976,0.770000,-1.750000,-0.140000,19.14
168871,0.257664,-0.171288,0.978440,0.280000,-1.960000,0.000000,19.14
168882,0.255224,-0.177632,0.978928,0.420000,-2.100000,-0.070000,19.18
168893,0.258152,-0.175680,0.981856,0.770000,-2.380000,-0.280000,19.19
168905,0.257664,-0.185928,0.979904,1.540000,-2.520000,-0.070000,19.19
168916,0.258152,-0.179584,0.974048,2.660000,-2.660000,0.070000,19.21
168927,0.255712,-0.165432,0.977952,2.170000,-3.010000,0.140000,19.21
168939,0.260104,-0.166896,0.986248,1.190000,-3.220000,0.140000,19.20
168950,0.259128,-0.180072,0.991616,0.700000,-3.360000,0.350000,19.21
168961,0.260592,-0.181048,0.990640,0.560000,-3.360000,0.420000,19.21
168972,0.264984,-0.191296,0.982344,0.910000,-3.500000,0.420000,19.20
168984,0.264496,-0.185440,0.977464,1.050000,-3.570000,0.210000,19.20
168995,0.265960,-0.178120,0.975512,0.070000,-3.640000,-0.070000,19.20
169007,0.264008,-0.193736,0.983320,0.140000,-3.150000,-0.210000,19.18
169018,0.261568,-0.192760,0.979416,1.050000,-3.360000,-0.140000,19.18
169030,0.260592,-0.185440,0.979416,1.540000,-3.640000,-0.490000,19.22
169041,0.264008,-0.184464,0.973560,1.750000,-3.850000,-0.700000,19.22
169052,0.269376,-0.182512,0.973560,1.610000,-3.640000,-0.840000,19.21
169064,0.271328,-0.175680,0.974536,0.700000,-2.940000,-0.280000,19.20
169075,0.271328,-0.173240,0.974048,-0.210000,-2.660000,0.000000,19.20
169086,0.273280,-0.181536,0.969168,-0.490000,-2.660000,0.210000,19.20
169098,0.268400,-0.187392,0.964776,0.070000,-2.590000,0.070000,19.20
169109,0.267424,-0.190808,0.968680,0.700000,-2.800000,-0.280000,19.19
169120,0.266448,-0.187880,0.970144,1.820000,-2.870000,-0.700000,19.20
169132,0.267912,-0.186416,0.971608,2.100000,-2.800000,-0.910000,19.20
169144,0.265960,-0.177632,0.972584,1.960000,-2.940000,-1.120000,19.20
169156,0.267424,-0.171288,0.968192,1.400000,-3.010000,-1.120000,19.25
169167,0.266448,-0.172264,0.969168,0.910000,-3.010000,-1.120000,19.25
169179,0.261568,-0.165920,0.963800,0.630000,-2.940000,-1.050000,19.16
169190,0.262544,-0.173240,0.960384,0.840000,-2.660000,-0.840000,19.16
169201,0.262544,-0.168360,0.958432,1.330000,-2.520000,-0.560000,19.16
169213,0.260592,-0.159088,0.960384,1.400000,-2.520000,-0.210000,19.20
169224,0.258152,-0.160552,0.966240,0.840000,-2.310000,0.140000,19.20
169236,0.261080,-0.164456,0.969656,0.350000,-2.100000,0.280000,19.23
169247,0.265472,-0.175680,0.969656,0.560000,-2.100000,0.140000,19.17
169259,0.267424,-0.175192,0.971120,0.840000,-1.820000,0.350000,19.17
169270,0.264984,-0.171288,0.975512,0.840000,-1.890000,0.350000,19.21
169281,0.261568,-0.163480,0.978928,0.000000,-2.170000,0.490000,19.21
169293,0.263520,-0.175192,0.985272,-0.700000,-2.450000,0.630000,19.22
169304,0.261568,-0.180560,0.979416,-0.350000,-2.660000,0.700000,19.18
169315,0.262056,-0.183976,0.978440,0.210000,-2.870000,0.840000,19.18
169327,0.259616,-0.180560,0.979416,0.910000,-2.940000,0.840000,19.20
169338,0.263520,-0.181048,0.980880,1.260000,-3.220000,1.190000,19.20
169349,0.262056,-0.182024,0.980392,1.890000,-3.780000,1.050000,19.18
169360,0.267912,-0.180072,0.977464,1.890000,-3.990000,1.050000,19.16
169372,0.273280,-0.180072,0.980880,1.120000,-3.920000,1.190000,19.16
169383,0.274256,-0.181048,0.980392,0.140000,-3.920000,1.050000,19.22
169395,0.269864,-0.189344,0.977952,0.070000,-4.200000,0.840000,19.22
169406,0.270352,-0.192272,0.973072,0.560000,-4.130000,0.560000,19.21
169417,0.265472,-0.188856,0.970144,1.050000,-4.060000,-0.070000,19.23
169428,0.263520,-0.188368,0.968680,1.680000,-3.850000,-0.630000,19.23
169439,0.266936,-0.189832,0.969168,2.310000,-3.710000,-0.700000,19.19
169451,0.264008,-0.182512,0.974048,2.800000,-3.570000,-0.560000,19.19
169462,0.269376,-0.171776,0.968680,2.240000,-3.500000,-0.210000,19.20
169473,0.272304,-0.164456,0.964776,0.910000,-3.150000,-0.070000,19.19
169485,0.268400,-0.175680,0.968192,-0.140000,-2.590000,-0.210000,19.19
169496,0.267424,-0.175680,0.971120,-0.350000,-2.450000,-0.280000,19.18
169508,0.266936,-0.180072,0.970144,-0.420000,-2.450000,-0.140000,19.18
169519,0.266936,-0.180560,0.968680,-0.700000,-2.450000,-0.280000,19.19
169531,0.267424,-0.181536,0.969168,-0.420000,-2.310000,-0.210000,19.21
169542,0.263032,-0.182024,0.970632,0.140000,-2.450000,-0.280000,19.21
169554,0.269376,-0.182024,0.974536,0.350000,-2.450000,-0.070000,19.21
169565,0.264008,-0.181048,0.974536,0.210000,-2.310000,-0.210000,19.21
169576,0.260104,-0.179584,0.972584,0.000000,-2.520000,-0.280000,19.21
169588,0.257664,-0.183976,0.970144,0.000000,-2.730000,-0.490000,19.21
169599,0.255712,-0.180560,0.974536,-0.070000,-2.940000,-0.630000,19.21
169611,0.251320,-0.185440,0.973072,1.050000,-3.290000,-0.840000,19.23
169622,0.253272,-0.184952,0.971608,2.030000,-3.570000,-1.050000,19.15
169634,0.259616,-0.181536,0.969168,2.310000,-3.850000,-1.050000,19.15
169646,0.265472,-0.176656,0.962824,2.800000,-3.430000,-0.980000,19.20
169657,0.264496,-0.164944,0.959896,2.310000,-2.870000,-0.910000,19.20
169669,0.267424,-0.168848,0.963800,1.050000,-2.240000,-0.490000,19.19
169681,0.264496,-0.171776,0.967704,0.350000,-1.960000,-0.210000,19.20
169692,0.267912,-0.171288,0.965752,-0.070000,-1.890000,0.420000,19.20
169703,0.266936,-0.183000,0.957456,-0.350000,-1.470000,0.070000,19.23
169715,0.265472,-0.180560,0.969168,-1.330000,-1.050000,0.000000,19.13
169726,0.275232,-0.195688,0.976488,-0.910000,-0.140000,0.350000,19.13
169738,0.270840,-0.177632,0.982832,-1.470000,-0.420000,0.350000,19.23
169749,0.263520,-0.183488,0.983320,-1.400000,-1.050000,0.280000,19.23
169761,0.258640,-0.184952,0.979416,-1.260000,-1.680000,0.000000,19.20
169772,0.258640,-0.193248,0.975024,-0.280000,-1.890000,-0.280000,19.16
169784,0.261568,-0.190320,0.977464,0.490000,-2.170000,-0.420000,19.16
169795,0.261568,-0.184464,0.977464,0.980000,-2.730000,-0.560000,19.21
169808,0.262544,-0.180560,0.972096,0.560000,-3.290000,-0.280000,19.18
169820,0.264008,-0.184952,0.964776,0.420000,-3.360000,-0.560000,19.18
169832,0.271816,-0.187880,0.960384,0.980000,-3.010000,-0.490000,19.18
169843,0.273768,-0.189344,0.960872,1.680000,-2.590000,-0.630000,19.18
169855,0.272792,-0.174704,0.963800,1.680000,-2.450000,-0.280000,19.19
169867,0.275720,-0.173728,0.967704,0.630000,-2.380000,-0.350000,19.24
169878,0.273768,-0.180072,0.969168,-0.280000,-2.170000,-0.490000,19.24
169890,0.270352,-0.188368,0.966240,-0.490000,-2.030000,-0.770000,19.19
169902,0.273768,-0.181536,0.964776,0.420000,-1.820000,-0.910000,19.20
169913,0.271328,-0.181048,0.970632,0.700000,-1.680000,-0.980000,19.20
169925,0.264496,-0.171776,0.971608,0.420000,-1.540000,-0.840000,19.23
169936,0.262056,-0.171288,0.978928,-0.280000,-1.540000,-0.630000,19.23
169948,0.261568,-0.179096,0.976000,0.000000,-1.680000,-0.350000,19.20
169959,0.266936,-0.180072,0.975024,0.560000,-1.750000,-0.210000,19.21
169971,0.264496,-0.173240,0.976488,0.210000,-1.680000,-0.140000,19.21
169982,0.266936,-0.170800,0.975024,-0.420000,-1.680000,-0.070000,19.20
169993,0.264008,-0.172264,0.976488,-0.840000,-1.680000,0.000000,19.20
170005,0.262056,-0.183000,0.977464,-0.560000,-1.960000,0.210000,19.18
170016,0.266936,-0.187880,0.972096,0.420000,-2.170000,0.210000,19.21
170028,0.269864,-0.182024,0.974048,1.050000,-2.170000,0.140000,19.21
170039,0.265960,-0.174216,0.981856,0.910000,-2.310000,0.280000,19.22
170051,0.267424,-0.176656,0.989176,0.000000,-2.800000,0.350000,19.20
170062,0.264496,-0.180560,0.983320,-0.560000,-3.220000,0.560000,19.20
170073,0.265960,-0.190808,0.977952,-0.700000,-3.150000,0.350000,19.21
170085,0.262056,-0.191784,0.976488,0.140000,-3.290000,-0.140000,19.21
170096,0.256200,-0.190320,0.975512,1.190000,-3.290000,-0.420000,19.23
170107,0.254248,-0.192760,0.976488,1.960000,-3.710000,-0.770000,19.18
170119,0.259616,-0.185928,0.976000,2.100000,-3.990000,-0.700000,19.18
170130,0.259616,-0.184952,0.973072,1.960000,-3.920000,-0.560000,19.23
170142,0.266448,-0.182512,0.973560,1.750000,-3.500000,-0.350000,19.23
170153,0.265960,-0.174704,0.972584,1.470000,-3.220000,-0.140000,19.18
170165,0.259616,-0.173240,0.976000,0.630000,-3.290000,-0.140000,19.14
170176,0.263032,-0.184464,0.976000,0.210000,-3.500000,0.000000,19.14
170187,0.263032,-0.184464,0.968680,0.420000,-3.500000,0.070000,19.22
170199,0.266448,-0.189344,0.973072,0.420000,-3.360000,0.070000,19.22
170210,0.264984,-0.186416,0.973072,0.280000,-3.150000,0.070000,19.23
170221,0.262056,-0.188856,0.972584,0.420000,-3.430000,-0.280000,19.21
170233,0.261080,-0.194224,0.967704,1.050000,-3.500000,-0.280000,19.21
170244,0.260104,-0.189344,0.964288,1.470000,-3.500000,-0.210000,19.21
170256,0.264984,-0.176168,0.965264,1.540000,-3.500000,-0.210000,19.16
170267,0.266936,-0.173728,0.969656,0.910000,-3.430000,-0.140000,19.16
170279,0.264496,-0.175680,0.965752,0.350000,-3.080000,-0.070000,19.23
170291,0.267912,-0.183976,0.964776,0.000000,-2.940000,-0.070000,19.23
170302,0.261080,-0.186904,0.960872,0.700000,-2.870000,0.000000,19.21
170314,0.264984,-0.184464,0.959408,0.840000,-3.150000,0.140000,19.25
170325,0.270352,-0.184464,0.960384,1.050000,-3.010000,0.140000,19.25
170337,0.273768,-0.178120,0.961848,0.700000,-2.520000,0.000000,19.23
170348,0.268400,-0.171776,0.965264,0.070000,-2.100000,-0.070000,19.19
170360,0.264984,-0.186416,0.963312,0.280000,-1.890000,-0.070000,19.19
170371,0.264496,-0.184464,0.962336,0.560000,-1.960000,-0.070000,19.20
170383,0.267424,-0.184952,0.965264,0.910000,-1.890000,-0.140000,19.20
170394,0.267424,-0.179584,0.964776,0.770000,-1.680000,-0.210000,19.20
170406,0.267912,-0.181536,0.970144,0.420000,-1.470000,0.000000,19.18
170417,0.269376,-0.184464,0.971608,-0.070000,-1.470000,-0.070000,19.18
170429,0.266448,-0.182512,0.972096,0.490000,-1.610000,0.070000,19.21
170440,0.270352,-0.183000,0.973560,0.490000,-1.960000,0.070000,19.21
170452,0.272792,-0.186904,0.968680,-0.630000,-1.750000,-0.070000,19.23
170463,0.266448,-0.192272,0.972584,-0.560000,-1.470000,-0.210000,19.22
170475,0.264984,-0.190320,0.976976,0.000000,-1.750000,-0.350000,19.22
170486,0.266448,-0.198616,0.979904,1.540000,-1.960000,-0.420000,19.23
170497,0.267912,-0.184464,0.975512,2.030000,-2.170000,-0.560000,19.23
170509,0.268400,-0.178120,0.978440,1.400000,-2.380000,-0.420000,19.24
170520,0.263520,-0.173240,0.980392,0.350000,-2.380000,-0.280000,19.23
170532,0.262056,-0.177144,0.975512,-0.280000,-2.380000,-0.280000,19.23
170543,0.264496,-0.186416,0.974536,-0.280000,-2.520000,-0.140000,19.25
170555,0.263520,-0.187880,0.975512,0.770000,-2.590000,0.070000,19.20
170566,0.266936,-0.180560,0.975024,0.840000,-2.520000,0.280000,19.20
170578,0.267912,-0.182024,0.976000,0.630000,-2.520000,0.420000,19.21
170589,0.264496,-0.183488,0.976488,0.700000,-2.590000,0.490000,19.21
170600,0.268888,-0.186904,0.978440,0.630000,-2.730000,0.280000,19.20
170612,0.265472,-0.188856,0.978928,0.350000,-2.660000,0.350000,19.22
170623,0.265960,-0.188856,0.976488,0.630000,-2.660000,0.350000,19.22
170635,0.265960,-0.184952,0.977464,-0.070000,-2.730000,0.210000,19.21
170646,0.264008,-0.188856,0.979416,-0.280000,-2.870000,0.210000,19.21
170658,0.262056,-0.199592,0.977952,0.000000,-3.080000,0.000000,19.20
170669,0.256688,-0.193736,0.971120,0.560000,-3.290000,-0.140000,19.21
170681,0.263032,-0.192760,0.971608,1.400000,-3.500000,-0.210000,19.21
170693,0.269376,-0.190320,0.975512,1.610000,-3.360000,-0.350000,19.19
170704,0.268888,-0.183488,0.976000,0.980000,-3.290000,0.000000,19.22
170716,0.265960,-0.184952,0.972584,0.420000,-3.360000,0.070000,19.22
170728,0.260104,-0.194712,0.966728,0.280000,-3.500000,-0.210000,19.19
170740,0.256688,-0.189832,0.961848,0.980000,-3.710000,-0.350000,19.19
170751,0.262544,-0.186904,0.961360,0.980000,-3.640000,-0.770000,19.17
170763,0.259616,-0.184464,0.967216,0.700000,-3.220000,-0.980000,19.26
170774,0.259616,-0.186416,0.967216,1.260000,-3.290000,-1.050000,19.26
170786,0.262544,-0.184464,0.956480,2.240000,-3.290000,-0.910000,19.20
170798,0.262544,-0.186904,0.951112,2.730000,-2.940000,-0.840000,19.22
170809,0.264008,-0.182024,0.953064,2.940000,-2.590000,-0.840000,19.22
170821,0.267424,-0.178608,0.955016,2.730000,-2.240000,-0.910000,19.23
170832,0.271328,-0.174704,0.955504,2.170000,-1.680000,-0.700000,19.23
170844,0.276696,-0.181536,0.954528,1.050000,-0.910000,-0.140000,19.21
170855,0.273768,-0.175680,0.967704,-0.210000,-0.700000,0.140000,19.18
170867,0.269864,-0.178608,0.977464,-0.700000,-0.980000,0.280000,19.18
170879,0.265472,-0.184952,0.979904,-0.770000,-1.330000,0.000000,19.22
170890,0.263032,-0.191296,0.977464,-0.350000,-1.470000,-0.070000,19.21
170901,0.264008,-0.187392,0.977464,0.280000,-1.540000,-0.280000,19.21
170912,0.264008,-0.190320,0.979416,0.770000,-1.750000,-0.140000,19.20
170924,0.258640,-0.182512,0.985760,0.700000,-2.310000,-0.070000,19.20
170936,0.261080,-0.185440,0.981856,0.980000,-2.660000,-0.210000,19.23
170947,0.259128,-0.190320,0.976488,1.400000,-2.940000,-0.280000,19.23
170958,0.265472,-0.186904,0.975512,1.610000,-2.870000,-0.280000,19.23
170970,0.269376,-0.181536,0.972096,1.330000,-3.010000,-0.140000,19.26
170981,0.272792,-0.179584,0.976488,1.400000,-2.940000,0.000000,19.26
170993,0.267912,-0.172752,0.978928,0.490000,-2.870000,0.000000,19.18
171005,0.268888,-0.179584,0.973560,0.210000,-2.660000,0.000000,19.22
171016,0.266936,-0.183976,0.971120,0.070000,-2.590000,-0.210000,19.22
171028,0.267912,-0.189832,0.973560,0.700000,-2.730000,-0.070000,19.23
171040,0.274744,-0.189832,0.977952,1.190000,-2.520000,0.070000,19.20
171052,0.270352,-0.179584,0.979904,1.190000,-2.590000,0.280000,19.20
171063,0.266936,-0.171776,0.982344,0.210000,-2.590000,0.700000,19.26
171075,0.267912,-0.179584,0.981368,-1.050000,-2.660000,0.630000,19.26
171087,0.264008,-0.189344,0.976488,-1.190000,-3.010000,0.630000,19.21
171098,0.264984,-0.196176,0.976000,-0.280000,-3.430000,0.420000,19.23
171110,0.262544,-0.192272,0.974536,1.050000,-3.780000,0.210000,19.23
171121,0.265472,-0.192760,0.969168,2.030000,-3.920000,0.140000,19.23
171133,0.264984,-0.188856,0.967704,2.450000,-3.850000,-0.070000,19.24
171145,0.266936,-0.184464,0.963312,2.170000,-3.850000,0.070000,19.24
171156,0.269864,-0.183976,0.960384,1.050000,-3.430000,0.000000,19.21
171168,0.268400,-0.184952,0.960384,0.630000,-3.290000,0.070000,19.21
171179,0.271816,-0.179096,0.957456,0.280000,-2.870000,0.070000,19.21
171191,0.266448,-0.189832,0.956968,0.280000,-2.590000,0.140000,19.20
171202,0.264984,-0.185440,0.959896,0.070000,-2.100000,0.140000,19.20
171213,0.261568,-0.185440,0.965264,-0.140000,-2.170000,0.280000,19.19
171225,0.265472,-0.193736,0.968192,-0.140000,-2.100000,0.070000,19.19
171237,0.262544,-0.189832,0.966240,0.000000,-2.030000,0.000000,19.20
171248,0.263032,-0.194224,0.969656,0.700000,-2.240000,-0.070000,19.21
171260,0.259616,-0.189344,0.966728,0.630000,-2.310000,-0.140000,19.21
171271,0.259616,-0.184464,0.970144,0.490000,-2.310000,-0.070000,19.18
171283,0.259616,-0.188856,0.970144,0.210000,-2.170000,-0.350000,19.21
171295,0.261080,-0.188856,0.971120,0.420000,-2.100000,-0.350000,19.21
171306,0.263032,-0.188368,0.972584,1.050000,-2.240000,-0.280000,19.23
171317,0.261568,-0.181048,0.970144,1.120000,-2.100000,0.070000,19.23
171329,0.260592,-0.179584,0.973560,0.700000,-2.100000,0.350000,19.21
171340,0.259128,-0.180560,0.975024,-0.140000,-2.170000,0.490000,19.21
171352,0.263032,-0.186904,0.970144,-0.280000,-2.380000,0.490000,19.21
171363,0.269376,-0.197640,0.971608,0.210000,-2.310000,0.210000,19.20
171375,0.263520,-0.195200,0.974536,0.700000,-2.520000,0.000000,19.18
171387,0.267912,-0.195200,0.975024,0.910000,-2.730000,0.000000,19.18
171398,0.264496,-0.195200,0.975512,0.560000,-2.590000,-0.070000,19.20
171410,0.264496,-0.197640,0.975512,0.560000,-2.660000,-0.350000,19.20
171421,0.261080,-0.195688,0.974048,0.770000,-2.730000,-0.560000,19.20
171433,0.262544,-0.194224,0.970632,1.330000,-2.940000,-0.700000,19.21
171445,0.263032,-0.189832,0.969168,1.540000,-2.870000,-0.980000,19.21
171457,0.266936,-0.192272,0.974048,1.540000,-2.870000,-0.840000,19.22
171468,0.269864,-0.186904,0.973560,1.470000,-2.730000,-0.700000,19.21
171480,0.268888,-0.188368,0.977464,1.260000,-2.450000,-0.560000,19.21
171491,0.266448,-0.180072,0.974048,0.770000,-2.380000,-0.420000,19.21
171503,0.267912,-0.186416,0.972096,-0.070000,-2.310000,-0.070000,19.21
171514,0.268400,-0.185440,0.975024,-0.630000,-2.170000,-0.140000,19.23
171526,0.264496,-0.192760,0.976000,-0.280000,-2.450000,-0.280000,19.22
171538,0.263032,-0.190808,0.975512,0.630000,-2.800000,-0.210000,19.22
171550,0.260592,-0.185928,0.973072,1.120000,-3.080000,-0.280000,19.21
171562,0.262544,-0.183976,0.969168,1.120000,-3.290000,-0.140000,19.18
171573,0.267424,-0.184464,0.971608,1.050000,-3.150000,-0.280000,19.18
171585,0.264496,-0.180560,0.971608,0.700000,-2.940000,-0.350000,19.27
171596,0.265960,-0.182512,0.974048,0.770000,-3.360000,-0.210000,19.27
171608,0.262056,-0.184952,0.968192,1.050000,-3.640000,0.070000,19.24
171620,0.260592,-0.194224,0.973072,1.820000,-4.200000,-0.070000,19.23
171631,0.268888,-0.197640,0.970632,3.080000,-4.410000,-0.490000,19.23
171643,0.271816,-0.189344,0.967216,3.780000,-4.200000,-0.910000,19.25
171654,0.271328,-0.190808,0.976488,3.990000,-4.130000,-1.400000,19.22
171666,0.270840,-0.186416,0.982344,3.710000,-4.340000,-1.400000,19.22
171678,0.267912,-0.182024,0.978440,3.290000,-4.760000,-1.260000,19.22
171689,0.267424,-0.186416,0.974048,3.080000,-4.830000,-1.190000,19.22
171701,0.270840,-0.183488,0.971608,3.150000,-4.830000,-1.190000,19.23
171712,0.273280,-0.182512,0.970144,3.220000,-4.410000,-1.050000,19.21
171723,0.274256,-0.180072,0.970632,3.220000,-4.130000,-0.700000,19.21
171735,0.274256,-0.176656,0.968680,3.080000,-3.640000,-0.210000,19.20
171747,0.274256,-0.175192,0.969656,2.240000,-3.430000,0.000000,19.20
171758,0.268888,-0.177632,0.968680,1.190000,-3.220000,0.420000,19.24
171770,0.270840,-0.180072,0.963312,0.770000,-3.150000,0.490000,19.20
171781,0.270352,-0.183488,0.964288,0.350000,-2.940000,0.280000,19.20
171792,0.273768,-0.178608,0.968192,0.140000,-2.450000,0.420000,19.21
171804,0.274744,-0.179584,0.969168,-0.630000,-2.170000,0.630000,19.18
171815,0.270840,-0.180560,0.963312,-1.050000,-1.890000,0.910000,19.18
171826,0.269864,-0.188856,0.961360,-0.560000,-1.470000,0.700000,19.21
171838,0.260104,-0.193736,0.960872,0.700000,-1.540000,0.700000,19.21
171849,0.266936,-0.193248,0.962336,2.030000,-1.540000,0.490000,19.18
171861,0.265472,-0.186416,0.961360,2.380000,-1.190000,0.280000,19.21
171873,0.270352,-0.186904,0.959896,1.750000,-0.910000,0.210000,19.21
171884,0.270840,-0.183488,0.961360,1.120000,-0.910000,0.070000,19.20
171895,0.270352,-0.183000,0.962824,0.140000,-0.770000,-0.140000,19.20
171907,0.267424,-0.189344,0.962824,0.140000,-0.560000,-0.350000,19.22
171918,0.266936,-0.179584,0.963312,-0.840000,-0.280000,-0.350000,19.21
171930,0.264984,-0.183488,0.967216,-1.050000,-0.490000,-0.210000,19.21
171942,0.267424,-0.187880,0.969656,-0.700000,-0.280000,-0.070000,19.20
171953,0.264984,-0.184952,0.970632,0.070000,-0.350000,-0.070000,19.19
171965,0.264496,-0.184952,0.976000,0.140000,-0.140000,0.000000,19.19
171976,0.264984,-0.175192,0.976000,-0.630000,-0.280000,0.280000,19.21
171987,0.260104,-0.182024,0.977952,-1.540000,-0.700000,0.630000,19.21
171999,0.264496,-0.190320,0.976976,-1.960000,-0.770000,0.490000,19.18
172010,0.262544,-0.194712,0.976000,-1.750000,-1.050000,0.420000,19.20
172022,0.267912,-0.198616,0.977952,-1.330000,-1.260000,0.420000,19.20
172033,0.264008,-0.197640,0.979904,-0.420000,-1.330000,0.280000,19.18
172045,0.262544,-0.189344,0.978440,-0.490000,-1.820000,0.280000,19.18
172056,0.266448,-0.196664,0.980880,-0.700000,-1.820000,0.000000,19.23
172069,0.259616,-0.198128,0.977464,-0.350000,-2.100000,-0.280000,19.22
172080,0.254736,-0.194224,0.977464,0.490000,-2.450000,-0.700000,19.22
172091,0.255224,-0.193248,0.977464,1.120000,-3.010000,-1.120000,19.20
172103,0.257176,-0.191296,0.972096,1.820000,-3.150000,-1.330000,19.25
172114,0.258640,-0.185928,0.974048,1.750000,-3.010000,-1.470000,19.25
172126,0.258152,-0.181048,0.971608,1.400000,-2.800000,-1.190000,19.19
172137,0.259128,-0.188368,0.968192,1.470000,-2.590000,-0.840000,19.19
172148,0.264008,-0.181536,0.968192,1.540000,-2.520000,-0.420000,19.20
172159,0.269376,-0.175192,0.969168,0.630000,-2.240000,-0.070000,19.20
172171,0.269864,-0.178120,0.975512,-0.700000,-1.820000,0.210000,19.20
172182,0.269864,-0.185440,0.980392,-1.540000,-1.680000,0.420000,19.24
172195,0.267424,-0.193736,0.977464,-1.610000,-1.960000,0.420000,19.24
172206,0.269376,-0.196176,0.975512,-1.330000,-2.030000,0.350000,19.22
172218,0.264984,-0.193248,0.980880,-1.050000,-2.100000,0.280000,19.24
172229,0.263520,-0.190320,0.981856,-1.050000,-2.450000,0.140000,19.24
172242,0.263032,-0.194712,0.980392,-0.980000,-2.870000,0.140000,19.26
172253,0.258640,-0.198128,0.976976,-0.420000,-3.150000,-0.070000,19.21
172265,0.257664,-0.195688,0.973560,0.420000,-3.430000,-0.210000,19.21
172277,0.258152,-0.192272,0.971120,0.910000,-3.640000,-0.350000,19.21
172288,0.262544,-0.189832,0.970632,1.400000,-3.850000,-0.350000,19.21
172299,0.261080,-0.184464,0.971120,1.400000,-3.990000,-0.210000,19.24
172311,0.264496,-0.179584,0.961848,1.400000,-3.990000,-0.140000,19.22
172323,0.267912,-0.183000,0.953064,1.540000,-3.710000,-0.140000,19.22
172334,0.270352,-0.183976,0.955992,1.330000,-3.360000,0.070000,19.23
172346,0.269864,-0.174216,0.966240,0.560000,-2.800000,0.420000,19.19
172358,0.267912,-0.180072,0.965264,-0.280000,-2.590000,0.560000,19.19
172370,0.268888,-0.186416,0.961360,-0.700000,-2.520000,0.700000,19.20
172381,0.269864,-0.192272,0.959408,-0.910000,-2.380000,0.770000,19.20
172393,0.268888,-0.194224,0.968680,-0.490000,-1.960000,0.700000,19.21
172404,0.268400,-0.194224,0.976976,-0.070000,-2.030000,0.630000,19.20
172416,0.261080,-0.191296,0.981368,0.140000,-2.520000,0.630000,19.20
172427,0.260104,-0.196664,0.976488,0.210000,-3.080000,0.490000,19.21
172439,0.261080,-0.203008,0.972096,0.910000,-3.570000,0.210000,19.20
172450,0.264984,-0.197152,0.971608,1.540000,-3.710000,0.000000,19.20
172462,0.264984,-0.191296,0.970632,1.680000,-3.850000,-0.210000,19.21
172474,0.268888,-0.195688,0.974048,1.890000,-3.640000,-0.210000,19.21
172485,0.266448,-0.189832,0.972096,1.960000,-3.780000,-0.210000,19.20
172497,0.263520,-0.185440,0.964288,1.680000,-3.990000,0.000000,19.20
172508,0.268400,-0.186904,0.961360,1.190000,-3.710000,-0.070000,19.20
172519,0.267424,-0.188368,0.970144,0.910000,-3.500000,0.070000,19.20
172531,0.265960,-0.188856,0.973560,1.260000,-3.500000,0.140000,19.20
172542,0.266448,-0.187392,0.969656,1.540000,-3.500000,0.350000,19.21
172554,0.269864,-0.186416,0.967704,1.260000,-3.290000,0.560000,19.21
172565,0.270840,-0.181048,0.963800,0.420000,-3.010000,0.980000,19.21
172577,0.268400,-0.188368,0.968192,-0.630000,-2.870000,0.910000,19.25
172588,0.265960,-0.196176,0.968680,-0.280000,-2.800000,0.770000,19.20
172600,0.264496,-0.198128,0.969656,0.700000,-3.010000,0.630000,19.20
172611,0.267912,-0.192760,0.963800,1.050000,-2.940000,0.770000,19.24
172623,0.267912,-0.195200,0.971608,0.770000,-2.940000,0.700000,19.24
172634,0.265472,-0.191296,0.976000,0.280000,-2.800000,0.700000,19.22
172645,0.265472,-0.199592,0.975024,-0.070000,-2.800000,0.700000,19.20
172656,0.261080,-0.193736,0.971120,0.350000,-2.940000,0.560000,19.20
172667,0.263032,-0.197640,0.966728,0.840000,-3.290000,0.630000,19.25
172678,0.265960,-0.193248,0.967704,0.910000,-3.430000,0.840000,19.25
172690,0.270352,-0.190320,0.972584,0.490000,-3.080000,0.910000,19.21
172701,0.267912,-0.191784,0.974536,0.210000,-3.080000,0.980000,19.21
172713,0.264984,-0.196664,0.973560,-0.140000,-3.360000,0.840000,19.21
172724,0.265960,-0.205936,0.968680,0.280000,-3.570000,0.560000,19.26
172735,0.263520,-0.206424,0.961848,1.470000,-3.570000,0.350000,19.26
172747,0.262544,-0.203008,0.965264,2.380000,-3.710000,0.140000,19.20
172758,0.264496,-0.196664,0.972584,2.590000,-3.780000,-0.070000,19.22
172769,0.264984,-0.185928,0.972584,1.470000,-3.780000,-0.140000,19.22
172781,0.264984,-0.189344,0.969168,0.840000,-3.640000,-0.280000,19.21
172793,0.264496,-0.191296,0.964776,0.560000,-3.500000,-0.280000,19.25
172805,0.262544,-0.199104,0.959408,1.400000,-3.150000,-0.280000,19.25
172819,0.267912,-0.193248,0.963800,2.030000,-2.870000,0.070000,19.27
172831,0.269376,-0.182024,0.966728,1.820000,-2.940000,0.490000,19.19
172842,0.270352,-0.183976,0.964776,0.420000,-2.520000,0.700000,19.19
172854,0.270840,-0.186416,0.964288,-0.700000,-2.030000,0.770000,19.17
172866,0.268400,-0.195200,0.970144,-1.190000,-1.960000,0.560000,19.17
172877,0.266936,-0.203008,0.973072,-0.560000,-2.100000,0.420000,19.19
172889,0.264008,-0.204960,0.973072,0.490000,-2.590000,0.490000,19.25
172901,0.264496,-0.202032,0.970144,1.050000,-2.870000,0.210000,19.25
172915,0.264496,-0.200080,0.970144,1.260000,-3.010000,-0.070000,19.23
172928,0.263032,-0.191296,0.971608,1.540000,-3.010000,-0.280000,19.23
172940,0.267424,-0.199104,0.970632,1.540000,-3.220000,-0.210000,19.23
172952,0.262056,-0.197640,0.967216,1.890000,-3.290000,0.000000,19.22
172963,0.268400,-0.194224,0.966240,1.960000,-3.290000,0.210000,19.22
172974,0.269376,-0.189344,0.964288,1.330000,-3.010000,0.070000,19.22
172986,0.268888,-0.187392,0.967216,0.560000,-2.730000,0.140000,19.20
172997,0.269376,-0.198128,0.968680,0.140000,-2.590000,0.070000,19.20
173008,0.264496,-0.203984,0.970144,0.700000,-2.660000,0.000000,19.20
173020,0.269376,-0.199592,0.965752,1.610000,-2.730000,0.210000,19.19
173031,0.271328,-0.192760,0.966240,1.470000,-2.380000,0.280000,19.19
173043,0.268888,-0.185440,0.971608,0.840000,-2.170000,0.280000,19.18
173054,0.272304,-0.192760,0.975512,-0.140000,-2.030000,0.210000,19.18
173065,0.267424,-0.201544,0.976000,0.070000,-2.240000,0.210000,19.18
173077,0.262544,-0.200080,0.973072,0.490000,-2.520000,0.140000,19.24
173088,0.266936,-0.205448,0.969656,1.120000,-2.800000,0.140000,19.24
173100,0.269864,-0.195200,0.972096,1.470000,-2.800000,0.070000,19.21
173111,0.271816,-0.191296,0.970632,0.700000,-2.590000,0.070000,19.21
173123,0.272792,-0.195200,0.970144,0.280000,-2.590000,0.000000,19.21
173134,0.268400,-0.198128,0.964288,0.840000,-2.800000,0.000000,19.23
173146,0.266936,-0.194224,0.969656,1.890000,-3.220000,-0.210000,19.23
173157,0.274256,-0.190808,0.963312,1.750000,-2.870000,-0.210000,19.25
173169,0.273280,-0.190808,0.965752,1.400000,-2.660000,-0.070000,19.20
173180,0.274744,-0.180560,0.971120,-0.070000,-2.520000,-0.140000,19.20
173192,0.271328,-0.190320,0.971120,-0.070000,-2.800000,-0.210000,19.25
173204,0.264008,-0.186416,0.967704,0.770000,-3.220000,-0.070000,19.23
173215,0.264496,-0.202520,0.964776,2.100000,-3.080000,-0.280000,19.23
173226,0.267424,-0.190320,0.964288,2.240000,-3.220000,-0.070000,19.22
173238,0.272304,-0.183488,0.964776,2.030000,-2.870000,0.000000,19.22
173248,0.274744,-0.184464,0.969168,1.610000,-2.660000,-0.070000,19.20
173259,0.273768,-0.186416,0.969168,1.610000,-2.660000,0.070000,19.20
173271,0.272792,-0.188368,0.966240,1.890000,-2.800000,0.280000,19.20
173282,0.276208,-0.186904,0.970144,1.750000,-2.660000,0.630000,19.20
173294,0.273768,-0.188368,0.976976,1.470000,-2.590000,0.840000,19.20
173305,0.274744,-0.189344,0.976976,0.490000,-2.520000,0.980000,19.21
173317,0.272304,-0.196176,0.977464,0.070000,-2.660000,0.630000,19.26
173328,0.265960,-0.206424,0.979904,0.630000,-2.940000,0.770000,19.26
173340,0.268400,-0.202520,0.977464,0.980000,-3.080000,0.910000,19.21
173351,0.267424,-0.191296,0.976976,0.910000,-3.570000,0.490000,19.21
173364,0.266448,-0.200080,0.976488,0.840000,-3.640000,0.700000,19.23
173375,0.267912,-0.196664,0.974048,0.840000,-3.500000,0.630000,19.20
173386,0.264496,-0.195200,0.974048,1.050000,-3.500000,0.490000,19.20
173398,0.262544,-0.195200,0.973072,1.260000,-3.850000,0.280000,19.24
173409,0.264496,-0.202032,0.971120,1.470000,-3.990000,0.140000,19.24
173421,0.266448,-0.198128,0.968680,1.330000,-4.060000,0.420000,19.24
173432,0.271816,-0.198616,0.969168,0.980000,-3.570000,0.490000,19.19
173444,0.270840,-0.192760,0.967216,0.490000,-3.360000,0.560000,19.19
173455,0.269864,-0.193248,0.970144,0.070000,-2.870000,0.490000,19.27
173467,0.268400,-0.200568,0.972096,0.000000,-2.800000,0.560000,19.19
173478,0.269864,-0.197152,0.972584,-0.140000,-2.870000,0.630000,19.19
173490,0.269376,-0.199592,0.970632,-0.420000,-3.010000,0.560000,19.22
173501,0.264984,-0.203496,0.971120,-0.280000,-3.010000,0.420000,19.22
173512,0.264984,-0.202032,0.972096,0.000000,-3.010000,0.280000,19.24
173524,0.265960,-0.204472,0.974048,0.140000,-3.290000,-0.070000,19.25
173536,0.267424,-0.201544,0.968192,0.420000,-3.430000,-0.280000,19.25
173547,0.267912,-0.197152,0.966240,0.350000,-3.780000,-0.560000,19.21
173558,0.267424,-0.202032,0.963312,0.840000,-4.060000,-0.700000,19.20
173570,0.268888,-0.200568,0.960872,1.470000,-3.990000,-0.770000,19.20
173582,0.269864,-0.198128,0.959896,1.820000,-3.920000,-0.770000,19.23
173593,0.271328,-0.194224,0.963312,1.890000,-3.570000,-0.700000,19.23
173605,0.269376,-0.187880,0.963312,1.400000,-3.500000,-0.630000,19.25
173617,0.275232,-0.188368,0.957456,0.840000,-3.430000,-0.490000,19.22
173628,0.274744,-0.191784,0.955992,0.420000,-2.940000,-0.490000,19.22
173640,0.274744,-0.188368,0.954040,0.210000,-2.590000,-0.350000,19.21
173652,0.271816,-0.190808,0.958920,-0.280000,-2.450000,-0.140000,19.24
173664,0.273280,-0.197640,0.957944,-0.630000,-2.100000,-0.280000,19.24
173675,0.269376,-0.201544,0.958432,0.000000,-1.890000,-0.420000,19.24
173688,0.269376,-0.197152,0.960872,0.910000,-1.960000,-0.490000,19.24
173700,0.270352,-0.193248,0.964776,1.400000,-2.030000,-0.490000,19.22
173711,0.273280,-0.190320,0.969168,1.050000,-1.960000,-0.210000,19.25
173723,0.272304,-0.184952,0.968192,0.490000,-1.960000,0.140000,19.25
173734,0.270352,-0.185928,0.972584,-0.700000,-2.170000,0.210000,19.25
173745,0.269864,-0.193736,0.973072,-1.330000,-2.170000,0.000000,19.25
173758,0.271328,-0.207888,0.966728,-0.490000,-2.240000,0.000000,19.25
173769,0.270840,-0.208376,0.967216,1.120000,-2.590000,0.000000,19.23
173781,0.274256,-0.202520,0.971608,2.100000,-2.730000,0.140000,19.23
173792,0.272792,-0.191784,0.973560,1.960000,-2.660000,0.070000,19.25
173804,0.275232,-0.189344,0.973072,1.050000,-2.590000,0.000000,19.20
173815,0.273280,-0.191296,0.966240,-0.070000,-2.660000,-0.350000,19.20
173827,0.275232,-0.198616,0.966240,-0.630000,-2.590000,-0.140000,19.21
173838,0.270352,-0.193736,0.964776,-0.840000,-2.800000,-0.420000,19.23
173851,0.269376,-0.187880,0.961360,-1.400000,-3.220000,-0.560000,19.23
173863,0.280112,-0.187392,0.965264,-1.610000,-2.870000,-0.210000,19.23
173875,0.283040,-0.199104,0.964288,-1.330000,-2.100000,-0.420000,19.23
173887,0.277672,-0.200568,0.970144,-0.280000,-1.820000,-0.210000,19.23
173899,0.270840,-0.197640,0.967704,0.910000,-2.030000,-0.280000,19.25
173911,0.269864,-0.199104,0.967704,1.470000,-2.170000,-0.140000,19.25
173922,0.268400,-0.195200,0.971608,0.910000,-2.380000,0.070000,19.23
173934,0.275232,-0.188856,0.972584,0.350000,-2.450000,0.490000,19.19
173945,0.274744,-0.191296,0.976488,-0.490000,-1.960000,0.700000,19.19
173957,0.270840,-0.188856,0.976488,-0.980000,-2.240000,0.560000,19.23
173968,0.270840,-0.209352,0.972584,-0.140000,-2.170000,0.840000,19.23
173980,0.267424,-0.203008,0.970632,0.700000,-2.380000,1.190000,19.23
173993,0.266448,-0.206424,0.972584,0.980000,-2.870000,1.120000,19.22
174004,0.272792,-0.205936,0.973072,0.980000,-3.010000,1.120000,19.22
174015,0.272792,-0.205448,0.972584,0.910000,-3.220000,0.910000,19.22
174027,0.267912,-0.205936,0.968192,0.700000,-3.080000,0.420000,19.24
174038,0.264984,-0.213256,0.965264,1.050000,-3.220000,-0.210000,19.24
174050,0.262056,-0.210816,0.966240,1.330000,-3.430000,-0.560000,19.22
174062,0.266936,-0.210816,0.966240,1.960000,-3.500000,-0.980000,19.22
174073,0.269864,-0.205448,0.961848,2.450000,-3.500000,-1.050000,19.22
174085,0.273768,-0.199592,0.960872,2.380000,-3.080000,-0.910000,19.25
174097,0.272304,-0.194224,0.960384,1.960000,-2.590000,-0.560000,19.25
174109,0.273768,-0.194712,0.962824,1.400000,-2.170000,-0.350000,19.21
174121,0.269864,-0.191296,0.962336,0.910000,-1.960000,-0.140000,19.24
174132,0.266936,-0.192272,0.963312,0.280000,-1.890000,0.140000,19.24
174144,0.271816,-0.194224,0.964776,-0.350000,-1.960000,0.350000,19.25
174156,0.272304,-0.200080,0.969168,-0.140000,-1.750000,0.490000,19.24
174168,0.267912,-0.201056,0.969656,0.280000,-1.750000,0.350000,19.24
174180,0.267912,-0.202520,0.968192,0.630000,-1.890000,0.210000,19.23
174191,0.267912,-0.199104,0.964288,0.770000,-2.240000,0.070000,19.23
174203,0.266448,-0.203984,0.966240,0.770000,-2.450000,0.000000,19.22
174215,0.266936,-0.204472,0.972096,1.330000,-2.520000,-0.210000,19.22
174226,0.269864,-0.204960,0.968680,1.680000,-2.660000,-0.280000,19.22
174238,0.272792,-0.203984,0.968680,2.240000,-2.730000,-0.560000,19.24
174249,0.269864,-0.197640,0.968192,2.310000,-2.450000,-0.210000,19.23
174261,0.269376,-0.191784,0.968680,1.750000,-2.240000,-0.140000,19.23
174272,0.266448,-0.194224,0.969168,1.120000,-2.450000,-0.210000,19.27
174284,0.268888,-0.202520,0.963312,1.470000,-2.730000,-0.420000,19.27
174295,0.272304,-0.203008,0.962336,1.890000,-2.450000,-0.420000,19.26
174306,0.270352,-0.190808,0.959408,1.680000,-2.240000,-0.350000,19.23
174318,0.272304,-0.191296,0.966240,0.980000,-2.100000,-0.350000,19.23
174329,0.270840,-0.200080,0.962824,0.840000,-1.680000,-0.070000,19.25
174340,0.271328,-0.199592,0.959896,1.050000,-1.400000,-0.070000,19.25
174352,0.271328,-0.200080,0.959408,1.470000,-1.330000,-0.140000,19.25
174364,0.269376,-0.190808,0.963312,0.910000,-1.400000,0.140000,19.23
174376,0.269864,-0.192760,0.968680,-0.140000,-1.400000,0.140000,19.23
174387,0.269864,-0.197640,0.972096,-1.050000,-1.190000,0.350000,19.27
174399,0.268400,-0.206424,0.969168,-0.910000,-1.190000,0.140000,19.23
174410,0.264984,-0.210816,0.966240,0.280000,-1.400000,-0.070000,19.23
174422,0.265472,-0.207400,0.966240,1.400000,-1.680000,-0.140000,19.25
174434,0.267424,-0.200080,0.967216,1.540000,-1.820000,-0.210000,19.25
174445,0.269376,-0.201056,0.972096,1.400000,-1.890000,-0.350000,19.24
174456,0.266936,-0.199104,0.973072,1.190000,-1.890000,-0.350000,19.23
174468,0.269376,-0.192272,0.968192,0.560000,-1.750000,-0.420000,19.23
174480,0.266936,-0.194224,0.964776,0.210000,-1.890000,-0.420000,19.21
174491,0.264008,-0.197640,0.961848,0.280000,-2.030000,-0.210000,19.22
174503,0.268400,-0.198128,0.958432,0.700000,-1.680000,-0.350000,19.22
174514,0.270840,-0.194712,0.962336,0.980000,-1.470000,-0.210000,19.26
174525,0.271816,-0.196176,0.971120,0.840000,-1.260000,-0.140000,19.26
174538,0.266448,-0.198128,0.971608,1.050000,-1.190000,0.140000,19.24
174550,0.264984,-0.197152,0.974536,0.840000,-1.260000,0.210000,19.30
174562,0.264984,-0.198128,0.977464,0.070000,-1.470000,0.140000,19.30
174573,0.269376,-0.199592,0.976000,-0.350000,-1.330000,0.140000,19.19
174585,0.268400,-0.202032,0.976000,-0.490000,-1.470000,0.140000,19.21
174597,0.265960,-0.204472,0.979904,0.140000,-1.680000,0.280000,19.21
174608,0.260592,-0.204960,0.976488,0.420000,-2.170000,0.210000,19.24
174619,0.262056,-0.204472,0.971120,0.770000,-2.590000,0.140000,19.24
174631,0.268888,-0.204960,0.972584,0.840000,-2.450000,0.000000,19.24
174642,0.264496,-0.206424,0.975024,1.330000,-2.450000,-0.350000,19.21
174654,0.265960,-0.200568,0.973072,1.540000,-2.730000,-0.280000,19.21
174665,0.264008,-0.200568,0.973560,1.470000,-2.940000,-0.210000,19.23
174677,0.264984,-0.198616,0.972584,1.330000,-2.940000,0.000000,19.23
174688,0.262544,-0.197152,0.968192,0.840000,-2.940000,-0.070000,19.22
174700,0.261080,-0.196664,0.967216,0.770000,-2.800000,-0.350000,19.21
174712,0.261080,-0.202032,0.963800,0.840000,-2.730000,-0.700000,19.21
174723,0.259616,-0.204472,0.964288,1.680000,-2.660000,-0.700000,19.27
174735,0.264496,-0.197152,0.960384,2.520000,-2.450000,-0.280000,19.21
174746,0.267424,-0.188856,0.968192,2.240000,-2.170000,-0.070000,19.21
174757,0.266936,-0.185440,0.972096,0.910000,-1.890000,0.280000,19.21
174768,0.267912,-0.191296,0.973560,-0.420000,-1.610000,0.560000,19.21
174780,0.263520,-0.198616,0.972096,-0.910000,-1.680000,0.490000,19.26
174792,0.259128,-0.205936,0.969168,-0.630000,-1.960000,0.280000,19.24
174803,0.265472,-0.215208,0.973072,0.140000,-2.450000,-0.070000,19.24
174814,0.263032,-0.211304,0.972096,0.980000,-2.800000,-0.140000,19.23
174826,0.266448,-0.203496,0.972096,1.680000,-2.870000,-0.210000,19.23
174838,0.264984,-0.203984,0.973072,1.680000,-2.660000,-0.490000,19.26
174850,0.263032,-0.196664,0.976488,1.470000,-3.010000,-0.560000,19.22
174861,0.262544,-0.198616,0.973072,1.190000,-3.290000,-0.630000,19.22
174873,0.262544,-0.198616,0.970144,1.190000,-3.570000,-0.700000,19.27
174885,0.262544,-0.202032,0.962824,1.680000,-3.430000,-0.840000,19.23
174896,0.269864,-0.196176,0.962824,2.030000,-3.360000,-0.630000,19.23
174908,0.270352,-0.191784,0.963312,1.540000,-3.080000,-0.350000,19.26
174919,0.271328,-0.188856,0.967704,0.770000,-2.800000,0.000000,19.26
174931,0.268888,-0.193736,0.970144,0.280000,-2.660000,0.000000,19.23
174943,0.272304,-0.199104,0.974048,0.280000,-2.450000,0.070000,19.24
174956,0.267912,-0.199104,0.971120,0.630000,-2.520000,0.140000,19.24
174967,0.265472,-0.201544,0.967216,0.770000,-2.730000,0.000000,19.25
174978,0.268400,-0.203496,0.969168,1.260000,-2.800000,0.140000,19.27
174990,0.267424,-0.199592,0.975024,0.980000,-2.660000,0.000000,19.27
175000,0.270840,-0.200568,0.976000,0.980000,-2.660000,0.000000,19.24
175012,0.267424,-0.194224,0.974536,0.420000,-2.800000,0.070000,19.24
175023,0.267912,-0.197640,0.971608,-0.140000,-3.080000,0.000000,19.26
175034,0.273280,-0.201544,0.970632,-0.210000,-3.080000,0.070000,19.25
175046,0.267912,-0.208376,0.971608,0.560000,-3.150000,0.000000,19.25
175057,0.266936,-0.205448,0.972584,1.330000,-3.570000,-0.280000,19.22
175069,0.268888,-0.197640,0.972096,1.610000,-3.710000,-0.420000,19.22
175080,0.269864,-0.206424,0.971608,1.680000,-3.780000,-0.770000,19.25
175092,0.268400,-0.198128,0.970632,2.170000,-3.920000,-0.700000,19.26
175104,0.270840,-0.194712,0.968680,2.310000,-4.060000,-0.770000,19.26
175115,0.269864,-0.191784,0.968192,1.750000,-4.130000,-0.560000,19.22
175126,0.272792,-0.193736,0.967704,1.400000,-4.200000,-0.560000,19.21
175139,0.270840,-0.195200,0.963312,1.610000,-4.200000,-0.490000,19.21
175151,0.269376,-0.190808,0.960384,1.540000,-4.200000,-0.560000,19.23
175162,0.264496,-0.195200,0.960384,1.820000,-4.060000,-0.490000,19.23
175174,0.265472,-0.194712,0.958432,1.960000,-3.920000,-0.490000,19.26
175185,0.268400,-0.196176,0.959896,2.520000,-3.990000,-0.490000,19.23
175196,0.268888,-0.196176,0.961848,3.290000,-3.920000,-0.350000,19.23
175208,0.267424,-0.190808,0.963800,3.360000,-3.850000,-0.210000,19.23
175219,0.267424,-0.183000,0.963312,2.660000,-3.710000,0.000000,19.22
175231,0.262544,-0.184464,0.966240,1.680000,-3.570000,0.140000,19.22
175242,0.266936,-0.190320,0.968192,1.190000,-3.430000,0.280000,19.23
175253,0.266936,-0.197152,0.961848,1.190000,-3.220000,0.210000,19.23
175265,0.268400,-0.199104,0.963312,1.400000,-3.290000,0.280000,19.25
175276,0.268888,-0.198128,0.963800,1.400000,-3.150000,0.280000,19.21
175288,0.266936,-0.193736,0.966728,1.260000,-3.080000,0.210000,19.21
175300,0.267424,-0.195688,0.970144,0.980000,-2.940000,0.350000,19.25
175312,0.270840,-0.204472,0.971608,1.470000,-2.940000,0.210000,19.22
175324,0.269864,-0.202032,0.969656,1.820000,-2.870000,0.280000,19.22
175335,0.267424,-0.197152,0.969656,1.190000,-2.800000,0.280000,19.28
175347,0.262056,-0.200568,0.972096,0.910000,-2.590000,-0.070000,19.28
175362,0.262056,-0.200080,0.967704,0.910000,-2.800000,-0.420000,19.21
175373,0.264008,-0.203984,0.967216,1.190000,-2.940000,-0.630000,19.23
175385,0.265472,-0.201544,0.964776,1.820000,-3.010000,-0.840000,19.23
175397,0.265472,-0.199104,0.965264,2.170000,-2.940000,-0.700000,19.25
175408,0.267424,-0.194224,0.968680,2.100000,-2.660000,-0.210000,19.20
175420,0.271328,-0.190808,0.974048,1.050000,-2.240000,0.070000,19.20
175433,0.274256,-0.194712,0.974536,0.210000,-2.170000,0.420000,19.26
175445,0.272304,-0.192760,0.966728,-0.280000,-2.310000,0.490000,19.29
175457,0.272792,-0.203984,0.966240,-0.700000,-2.450000,0.280000,19.29
175469,0.273768,-0.206424,0.966240,-0.210000,-2.310000,0.350000,19.26
175481,0.273768,-0.208376,0.969656,0.280000,-2.380000,0.280000,19.23
175492,0.273768,-0.207888,0.965752,0.560000,-2.310000,0.000000,19.23
175503,0.271328,-0.203984,0.971608,0.140000,-2.450000,-0.210000,19.29
175515,0.273280,-0.204960,0.971608,0.350000,-2.800000,-0.420000,19.29
175527,0.269376,-0.209352,0.969656,0.770000,-3.010000,-0.630000,19.26
175538,0.274256,-0.206424,0.968680,0.980000,-2.940000,-0.840000,19.25
175550,0.277184,-0.204472,0.970632,1.610000,-2.660000,-0.840000,19.25
175562,0.274744,-0.192760,0.971120,1.470000,-2.940000,-0.980000,19.27
175574,0.272792,-0.189344,0.966240,0.770000,-2.940000,-0.840000,19.26
175585,0.278648,-0.195200,0.961360,0.490000,-2.730000,-0.910000,19.26
175597,0.278648,-0.190808,0.961848,0.700000,-2.590000,-0.630000,19.25
175609,0.278648,-0.188368,0.967704,0.490000,-2.240000,-0.630000,19.25
175620,0.276696,-0.187392,0.968680,0.140000,-2.170000,-0.350000,19.24
175632,0.274256,-0.193248,0.976000,0.070000,-2.170000,-0.070000,19.22
175644,0.274744,-0.183488,0.973072,-0.280000,-2.170000,0.140000,19.22
175655,0.273768,-0.200568,0.967216,0.280000,-2.100000,0.070000,19.27
175667,0.272792,-0.199592,0.972096,1.400000,-2.100000,-0.070000,19.26
175679,0.272792,-0.183976,0.978440,0.840000,-2.520000,0.420000,19.26
175690,0.270352,-0.188368,0.974048,-0.280000,-2.800000,0.350000,19.26
175702,0.270840,-0.202520,0.971608,-0.210000,-2.730000,0.210000,19.26
175713,0.270352,-0.202520,0.972096,0.560000,-2.940000,0.140000,19.23
175725,0.271816,-0.200080,0.972096,0.980000,-3.080000,-0.140000,19.22
175736,0.269864,-0.199104,0.968192,1.470000,-3.430000,-0.350000,19.22
175748,0.274256,-0.198128,0.965264,1.470000,-3.640000,-0.280000,19.22
175759,0.273768,-0.196664,0.964776,1.330000,-3.430000,-0.280000,19.22
175771,0.271816,-0.196176,0.963800,1.260000,-3.080000,-0.070000,19.20
175783,0.273280,-0.190808,0.961848,1.260000,-3.150000,-0.070000,19.22
175795,0.271328,-0.193248,0.962824,0.980000,-3.010000,-0.070000,19.22
175806,0.270840,-0.190808,0.963312,0.770000,-2.940000,0.070000,19.24
175818,0.270352,-0.191784,0.958920,0.630000,-2.870000,0.000000,19.25
175833,0.270352,-0.197640,0.959408,0.840000,-2.450000,0.000000,19.25
175844,0.267424,-0.197152,0.958432,1.260000,-2.590000,-0.210000,19.24
175857,0.265960,-0.195688,0.964776,1.610000,-2.730000,-0.210000,19.24
175868,0.262544,-0.194224,0.960872,2.240000,-2.870000,-0.210000,19.24
175880,0.268400,-0.179096,0.961360,1.470000,-2.590000,0.140000,19.24
175892,0.269864,-0.188368,0.958920,0.700000,-2.240000,0.700000,19.25
175904,0.272304,-0.190320,0.963800,0.420000,-2.100000,0.910000,19.25
175915,0.264496,-0.192272,0.964776,0.280000,-2.100000,1.050000,19.25
175927,0.267424,-0.198616,0.968192,0.420000,-2.100000,1.050000,19.25
175939,0.268400,-0.197640,0.967216,0.630000,-2.100000,1.190000,19.23
175950,0.264984,-0.202520,0.966240,0.700000,-1.890000,1.050000,19.28
175961,0.267424,-0.197152,0.970144,1.050000,-2.240000,1.120000,19.28
175973,0.272792,-0.202032,0.973560,0.840000,-2.310000,1.120000,19.27
175984,0.271328,-0.204960,0.976976,0.630000,-2.380000,1.190000,19.26
175995,0.270352,-0.204472,0.974048,0.350000,-2.520000,1.190000,19.26
176007,0.264984,-0.207888,0.976976,0.420000,-2.870000,0.770000,19.28
176018,0.263032,-0.208376,0.972096,0.910000,-3.080000,0.630000,19.28
176029,0.265960,-0.208376,0.968680,1.330000,-3.430000,0.350000,19.25
176041,0.271816,-0.213744,0.967216,2.100000,-3.290000,0.420000,19.23
176053,0.276696,-0.202520,0.968192,2.310000,-3.290000,0.490000,19.23
176064,0.272792,-0.199104,0.968680,1.960000,-3.150000,0.420000,19.29
176076,0.272304,-0.204960,0.964288,1.540000,-3.080000,0.140000,19.29
176087,0.274256,-0.205448,0.959408,1.400000,-2.940000,-0.140000,19.26
176098,0.279624,-0.205936,0.960872,1.260000,-2.520000,-0.280000,19.25
176110,0.283040,-0.198616,0.965264,0.490000,-1.960000,-0.140000,19.25
176121,0.282064,-0.201544,0.966728,-0.070000,-1.820000,0.000000,19.24
176132,0.277184,-0.209352,0.967704,0.140000,-1.540000,-0.140000,19.24
176144,0.272792,-0.202520,0.966240,0.280000,-1.540000,-0.420000,19.26
176156,0.274744,-0.205936,0.966240,-0.140000,-1.610000,-0.770000,19.23
176168,0.275720,-0.205936,0.969656,-0.280000,-1.540000,-1.120000,19.23
176179,0.274744,-0.198616,0.974536,-0.770000,-1.540000,-1.050000,19.25
176191,0.268400,-0.201544,0.975024,-0.420000,-1.680000,-1.120000,19.21
176203,0.266936,-0.198616,0.972096,-0.070000,-1.820000,-1.190000,19.21
176215,0.265960,-0.200568,0.970632,0.980000,-2.030000,-1.400000,19.26
176226,0.262544,-0.195200,0.971120,1.820000,-2.310000,-1.400000,19.27
176238,0.267912,-0.183976,0.974536,1.540000,-2.660000,-1.120000,19.27
176249,0.269864,-0.182512,0.973072,1.190000,-2.660000,-1.120000,19.25
176261,0.269864,-0.184952,0.972584,0.910000,-2.450000,-0.770000,19.25
176273,0.264008,-0.184464,0.969168,0.910000,-2.520000,-0.700000,19.28
176285,0.261568,-0.185928,0.971608,1.260000,-2.870000,-0.700000,19.24
176296,0.267424,-0.190808,0.968680,2.100000,-3.150000,-0.350000,19.24
176308,0.274256,-0.184952,0.968192,1.890000,-2.800000,0.140000,19.30
176320,0.275720,-0.182024,0.968680,0.910000,-2.590000,0.630000,19.27
176331,0.268888,-0.177144,0.969656,-0.350000,-2.380000,0.910000,19.27
176342,0.269864,-0.191296,0.973072,-0.910000,-2.240000,1.050000,19.25
176354,0.268888,-0.207400,0.971608,-0.280000,-2.590000,0.910000,19.25
176365,0.271816,-0.204960,0.971120,0.560000,-2.940000,0.910000,19.27
176376,0.271328,-0.202520,0.975024,0.770000,-2.940000,0.630000,19.21
176387,0.268400,-0.201544,0.976976,0.210000,-3.080000,0.630000,19.21
176399,0.268400,-0.207888,0.974536,0.350000,-3.220000,0.490000,19.21
176411,0.265960,-0.204472,0.975024,0.630000,-3.360000,0.210000,19.21
176422,0.266448,-0.208864,0.972096,1.260000,-3.710000,0.000000,19.23
176434,0.268400,-0.207400,0.962824,1.470000,-4.060000,-0.280000,19.27
176445,0.268888,-0.204960,0.967704,1.470000,-4.060000,-0.420000,19.27
176457,0.273768,-0.198616,0.964288,1.050000,-3.780000,-0.490000,19.26
176468,0.276208,-0.202032,0.961848,0.490000,-3.220000,-0.210000,19.26
176480,0.274256,-0.203008,0.960384,0.490000,-2.940000,-0.420000,19.25
176491,0.269376,-0.202032,0.958432,0.770000,-3.080000,-0.420000,19.28
176503,0.268400,-0.205936,0.960384,1.050000,-3.220000,-0.630000,19.28
176514,0.270352,-0.198616,0.964288,1.190000,-3.150000,-0.700000,19.27
176526,0.271816,-0.198616,0.963312,0.910000,-2.940000,-0.630000,19.24
176537,0.271816,-0.199592,0.962824,0.770000,-2.730000,-0.840000,19.24
176548,0.272304,-0.199104,0.961360,0.910000,-2.450000,-0.770000,19.29
176560,0.272792,-0.192760,0.961360,0.000000,-2.660000,-0.700000,19.29
176571,0.270352,-0.209840,0.959896,1.120000,-1.960000,-0.980000,19.22
176583,0.265960,-0.179584,0.966240,0.140000,-2.870000,-0.210000,19.26
176594,0.270352,-0.205448,0.962336,0.910000,-2.450000,-0.280000,19.26
176606,0.273280,-0.190320,0.957456,0.700000,-2.590000,-0.140000,19.27
176617,0.275720,-0.201056,0.962336,0.980000,-2.170000,-0.420000,19.27
176628,0.272304,-0.191784,0.958920,1.120000,-2.030000,-0.070000,19.27
176640,0.270352,-0.188856,0.963800,0.280000,-2.310000,0.000000,19.21
176651,0.271816,-0.200080,0.959896,0.350000,-2.520000,-0.210000,19.21
176663,0.272304,-0.202032,0.957944,0.770000,-2.450000,-0.490000,19.30
176674,0.269376,-0.200080,0.961848,1.050000,-2.380000,-0.910000,19.30
176685,0.270840,-0.203496,0.964776,1.470000,-2.310000,-1.050000,19.30
176697,0.269864,-0.197152,0.962824,1.960000,-2.310000,-1.050000,19.26
176708,0.268888,-0.192272,0.958920,2.030000,-2.240000,-0.980000,19.26
176719,0.271816,-0.187880,0.964776,2.170000,-2.380000,-0.840000,19.30
176731,0.276696,-0.185928,0.965264,1.680000,-2.030000,-0.280000,19.21
176742,0.280600,-0.183488,0.969656,0.910000,-1.750000,-0.350000,19.21
176753,0.276208,-0.187880,0.973072,0.420000,-1.680000,-0.140000,19.23
176765,0.275720,-0.188856,0.971120,0.000000,-1.470000,0.000000,19.23
176776,0.273768,-0.189832,0.971120,-0.490000,-1.610000,0.070000,19.27
176788,0.270352,-0.200568,0.972096,0.000000,-1.750000,-0.210000,19.24
176799,0.271816,-0.203496,0.971608,0.770000,-1.820000,0.000000,19.24
176810,0.270352,-0.199104,0.976488,1.260000,-1.890000,0.140000,19.26
176822,0.265472,-0.187392,0.976488,0.910000,-2.380000,0.070000,19.26
176833,0.265472,-0.196664,0.975512,0.980000,-2.590000,-0.140000,19.26
176844,0.263032,-0.195688,0.970632,1.540000,-2.800000,-0.280000,19.22
176856,0.266448,-0.195200,0.967216,2.310000,-3.010000,-0.280000,19.22
176867,0.269864,-0.192760,0.972096,2.450000,-3.220000,-0.070000,19.24
176879,0.277184,-0.182024,0.970144,1.400000,-3.080000,0.490000,19.27
176891,0.279624,-0.187880,0.969656,0.350000,-2.730000,0.700000,19.27
176902,0.272304,-0.191296,0.969656,0.000000,-2.310000,0.700000,19.27
176913,0.271816,-0.198616,0.968680,0.420000,-2.240000,0.560000,19.27
176925,0.269376,-0.202520,0.968192,1.470000,-2.730000,0.770000,19.25
176936,0.273280,-0.194224,0.968680,1.960000,-2.870000,1.050000,19.23
176948,0.276208,-0.185928,0.972584,1.400000,-2.870000,1.400000,19.23
176959,0.275232,-0.184952,0.973072,0.280000,-2.660000,1.540000,19.28
176970,0.274744,-0.189344,0.971120,-0.630000,-2.380000,1.750000,19.28
176981,0.273768,-0.204960,0.969168,-0.490000,-2.590000,1.680000,19.23
176993,0.272792,-0.211304,0.966728,0.560000,-2.800000,1.610000,19.24
177004,0.277184,-0.204472,0.963312,1.050000,-2.940000,1.610000,19.24
177015,0.279136,-0.200568,0.970144,0.420000,-2.590000,1.890000,19.24
177027,0.279136,-0.202520,0.973072,-0.420000,-2.170000,2.030000,19.24
177038,0.271328,-0.207400,0.975024,-0.700000,-2.100000,1.890000,19.30
177049,0.268400,-0.217648,0.974536,-0.350000,-2.450000,1.540000,19.25
177061,0.265960,-0.218624,0.970632,0.070000,-2.730000,1.190000,19.25
177072,0.265472,-0.213256,0.970144,0.350000,-3.010000,0.770000,19.24
177083,0.268400,-0.209352,0.971120,0.140000,-3.010000,0.490000,19.24
177094,0.266936,-0.210816,0.974048,-0.210000,-3.010000,0.420000,19.26
177106,0.265472,-0.218136,0.975512,0.420000,-3.150000,0.210000,19.28
177117,0.262056,-0.220088,0.971120,1.400000,-3.640000,-0.140000,19.28
177129,0.265960,-0.213256,0.964288,2.100000,-3.640000,-0.420000,19.27
177140,0.267912,-0.206912,0.965264,2.170000,-3.570000,-0.700000,19.27
177152,0.270352,-0.196664,0.966240,1.190000,-3.570000,-0.770000,19.28
177163,0.267912,-0.198616,0.965752,0.140000,-3.430000,-0.910000,19.22
177174,0.264496,-0.202032,0.966728,0.140000,-3.360000,-1.050000,19.22
177186,0.262056,-0.204472,0.963800,0.840000,-3.220000,-1.120000,19.27
177197,0.267424,-0.197152,0.960872,1.330000,-3.220000,-1.120000,19.22
177209,0.267912,-0.197152,0.965752,1.190000,-2.940000,-0.700000,19.22
177221,0.270840,-0.189832,0.969656,0.770000,-3.010000,-0.210000,19.29
177232,0.266448,-0.189832,0.966240,0.140000,-2.940000,-0.210000,19.29
177244,0.263032,-0.190808,0.967216,-0.280000,-2.730000,0.140000,19.26
177255,0.267424,-0.201544,0.972096,-0.420000,-2.800000,0.070000,19.25
177267,0.273768,-0.204472,0.970632,-0.140000,-2.940000,0.350000,19.25
177279,0.275720,-0.206424,0.971120,0.070000,-2.660000,0.350000,19.29
177290,0.270352,-0.202520,0.973560,0.420000,-2.870000,0.350000,19.25
177302,0.269864,-0.202520,0.972584,0.420000,-3.220000,0.420000,19.25
177313,0.268400,-0.207888,0.970144,0.840000,-3.500000,0.280000,19.25
177325,0.273280,-0.205448,0.966240,1.050000,-3.290000,-0.070000,19.25
177336,0.274256,-0.207888,0.969656,0.910000,-3.220000,-0.350000,19.26
177348,0.267424,-0.202032,0.971120,0.840000,-3.430000,-0.630000,19.29
177359,0.269376,-0.201544,0.960384,0.700000,-3.430000,-0.700000,19.29
177371,0.271328,-0.206424,0.960384,0.770000,-3.150000,-0.770000,19.27
177382,0.273768,-0.203008,0.961848,1.190000,-2.870000,-0.700000,19.27
177394,0.276696,-0.204472,0.964776,0.980000,-2.660000,-0.630000,19.31
177405,0.275720,-0.201056,0.964776,1.050000,-2.450000,-0.350000,19.25
177416,0.271816,-0.193248,0.963312,0.420000,-2.590000,-0.140000,19.25
177428,0.270840,-0.193248,0.961360,-0.350000,-2.380000,0.070000,19.25
177439,0.269376,-0.201544,0.963800,-0.490000,-2.170000,0.070000,19.25
177451,0.273768,-0.205448,0.964776,-0.350000,-2.310000,0.140000,19.25
177462,0.277672,-0.207888,0.968192,0.140000,-2.520000,0.140000,19.27
177473,0.276696,-0.206424,0.966728,0.280000,-2.590000,0.140000,19.27
177485,0.274744,-0.206424,0.964288,0.280000,-2.660000,0.000000,19.28
177496,0.273768,-0.210328,0.965752,0.490000,-2.730000,-0.350000,19.25
177507,0.270840,-0.214232,0.967704,1.330000,-2.870000,-0.700000,19.25
177519,0.274744,-0.213744,0.969168,2.100000,-3.360000,-0.910000,19.28
177530,0.276696,-0.201056,0.968680,2.030000,-3.430000,-0.840000,19.28
177542,0.274256,-0.192272,0.970144,0.980000,-3.010000,-0.700000,19.30
177553,0.278160,-0.190320,0.967216,-0.210000,-2.940000,-0.560000,19.25
177564,0.271816,-0.205448,0.955992,17.850000,-2.660000,-0.490000,19.25
177576,0.270840,-0.204960,0.950136,1.050000,-2.940000,-0.420000,19.29
177587,0.271816,-0.208376,0.952576,2.590000,-2.730000,-0.490000,19.29
177599,0.274256,-0.190320,0.955504,3.080000,-2.520000,-0.070000,19.23
177610,0.277184,-0.182024,0.960872,1.330000,-2.030000,0.070000,19.23
177621,0.274744,-0.195200,0.963800,0.140000,-1.680000,0.210000,19.23
177632,0.272304,-0.201056,0.960872,-0.140000,-1.470000,0.140000,19.25
177644,0.270352,-0.205448,0.956480,0.070000,-1.400000,-0.070000,19.25
177656,0.276208,-0.200568,0.961360,0.210000,-0.980000,0.140000,19.23
177667,0.268400,-0.194224,0.971120,-0.280000,-1.050000,0.350000,19.28
177679,0.267912,-0.207400,0.975512,-0.490000,-1.400000,0.420000,19.28
177690,0.269864,-0.210816,0.968192,0.140000,-1.890000,0.420000,19.28
177702,0.270352,-0.211792,0.965264,1.050000,-2.030000,0.000000,19.27
177713,0.271328,-0.207400,0.970144,1.750000,-2.030000,-0.140000,19.27
177724,0.269864,-0.202032,0.975024,1.540000,-2.030000,0.420000,19.31
177736,0.272792,-0.201056,0.969656,1.050000,-2.520000,0.070000,19.31
177747,0.270840,-0.204472,0.962824,0.910000,-2.660000,0.070000,19.27
177759,0.274744,-0.199104,0.960872,0.280000,-2.450000,0.350000,19.25
177770,0.279624,-0.199592,0.962336,-0.350000,-2.310000,0.210000,19.25
177781,0.277184,-0.208864,0.965752,-0.140000,-1.820000,0.070000,19.30
177793,0.271328,-0.206912,0.965264,0.350000,-1.680000,0.280000,19.30
177804,0.269376,-0.204472,0.965264,0.490000,-1.680000,0.140000,19.23
177816,0.265960,-0.206912,0.965752,0.770000,-1.890000,-0.140000,19.28
177827,0.266448,-0.206912,0.966728,0.630000,-2.100000,-0.420000,19.28
177838,0.267424,-0.212768,0.971608,0.700000,-1.750000,-0.350000,19.31
177850,0.267424,-0.207400,0.975024,0.700000,-1.820000,-0.490000,19.23
177863,0.264984,-0.205936,0.973560,0.840000,-2.100000,-0.700000,19.23
177875,0.264496,-0.197152,0.974048,0.210000,-2.240000,-0.490000,19.27
177887,0.268888,-0.210816,0.974048,0.000000,-2.240000,-0.560000,19.27
177898,0.266448,-0.211792,0.973560,0.980000,-2.240000,-0.560000,19.27
177910,0.268888,-0.209352,0.971608,1.540000,-2.450000,-0.630000,19.27
177922,0.266936,-0.201544,0.976488,1.610000,-2.590000,-0.350000,19.27
177933,0.266936,-0.195200,0.977952,0.840000,-2.870000,-0.210000,19.30
177944,0.265472,-0.203984,0.969168,0.210000,-3.080000,-0.140000,19.27
177956,0.270840,-0.209352,0.968192,0.350000,-3.010000,-0.350000,19.27
177967,0.268400,-0.210328,0.967704,0.840000,-2.800000,-0.490000,19.21
177979,0.268888,-0.204472,0.968680,1.050000,-3.010000,-0.280000,19.21
177991,0.273768,-0.207888,0.966240,0.910000,-3.080000,0.000000,19.25
178004,0.270352,-0.203984,0.971120,0.700000,-2.870000,-0.070000,19.27
178015,0.264984,-0.202032,0.967704,0.280000,-2.940000,-0.210000,19.27
178026,0.267424,-0.212280,0.964776,0.630000,-3.080000,-0.630000,19.25
178038,0.264496,-0.203984,0.963312,0.910000,-3.080000,-0.700000,19.27
178049,0.267912,-0.210328,0.961360,1.260000,-3.220000,-0.770000,19.27
178060,0.270352,-0.205936,0.959408,1.820000,-3.010000,-0.700000,19.25
178072,0.275232,-0.199592,0.959896,1.470000,-2.660000,-0.630000,19.25
178083,0.276208,-0.193736,0.958432,0.630000,-2.100000,-0.560000,19.30
178094,0.278648,-0.199104,0.962336,-0.210000,-1.750000,-0.350000,19.27
178106,0.276208,-0.198616,0.963312,-0.490000,-1.680000,-0.350000,19.27
178118,0.270840,-0.200568,0.964776,-0.700000,-1.750000,-0.210000,19.29
178129,0.266448,-0.205936,0.962824,-0.490000,-1.960000,-0.280000,19.29
178141,0.268400,-0.206912,0.964288,0.280000,-2.170000,-0.560000,19.28
178153,0.272792,-0.198616,0.968192,-0.070000,-2.310000,-0.490000,19.27
178164,0.273280,-0.203496,0.966728,0.070000,-2.100000,-0.490000,19.27
178176,0.269864,-0.196664,0.965264,0.210000,-2.170000,-0.420000,19.33
178187,0.270352,-0.197640,0.960872,0.420000,-2.380000,-0.350000,19.27
178199,0.265472,-0.199592,0.956968,0.630000,-2.450000,-0.210000,19.27
178210,0.269376,-0.199104,0.958432,0.560000,-2.380000,-0.070000,19.29
178222,0.273280,-0.193248,0.962824,-0.070000,-2.240000,0.350000,19.29
178233,0.277184,-0.194712,0.963312,-0.980000,-1.750000,0.490000,19.28
178245,0.275232,-0.201544,0.960872,-1.050000,-1.470000,0.560000,19.34
178256,0.272792,-0.208376,0.960384,-0.420000,-1.190000,0.490000,19.34
178269,0.267424,-0.207400,0.961848,0.350000,-1.470000,0.560000,19.30
178280,0.266936,-0.206424,0.967704,0.490000,-1.540000,0.560000,19.30
178291,0.269376,-0.203496,0.972096,0.280000,-1.680000,0.560000,19.30
178304,0.268888,-0.204472,0.974048,0.350000,-1.750000,0.350000,19.29
178315,0.267912,-0.210816,0.973072,0.280000,-1.960000,0.210000,19.29
178326,0.267912,-0.217648,0.977464,0.560000,-2.030000,0.140000,19.24
178339,0.267424,-0.212280,0.972096,0.560000,-2.590000,0.140000,19.30
178350,0.268888,-0.213744,0.972096,0.770000,-2.940000,0.000000,19.30
178362,0.268400,-0.216184,0.970632,1.260000,-3.360000,-0.420000,19.28
178373,0.268400,-0.220576,0.971120,1.750000,-3.290000,-0.770000,19.25
178385,0.269864,-0.216184,0.971120,2.030000,-3.360000,-0.910000,19.25
178396,0.268888,-0.210328,0.965264,2.100000,-3.430000,-0.770000,19.29
178408,0.273280,-0.208376,0.963800,1.750000,-3.360000,-0.980000,19.29
178419,0.271328,-0.211304,0.963312,1.890000,-3.430000,-0.980000,19.25
178431,0.269376,-0.204960,0.962336,1.890000,-3.360000,-1.120000,19.21
178442,0.268888,-0.205448,0.961360,1.820000,-3.150000,-1.120000,19.21
178453,0.266936,-0.196176,0.964776,1.260000,-3.150000,-0.910000,19.29
178465,0.264984,-0.198128,0.963312,0.980000,-3.220000,-0.700000,19.29
178477,0.268888,-0.203496,0.963312,1.190000,-3.010000,-0.630000,19.29
178488,0.270840,-0.201544,0.961848,1.470000,-3.010000,-0.630000,19.27
178500,0.273768,-0.200568,0.964776,1.610000,-3.010000,-0.350000,19.27
178512,0.269376,-0.199592,0.963312,1.610000,-2.660000,-0.210000,19.30
178524,0.266448,-0.195200,0.958920,1.680000,-2.730000,-0.140000,19.31
178536,0.268400,-0.195688,0.959896,1.330000,-2.450000,0.000000,19.31
178547,0.272792,-0.196176,0.961848,0.910000,-2.310000,0.210000,19.26
178559,0.274744,-0.198128,0.963800,0.280000,-2.310000,0.490000,19.25
178570,0.275720,-0.201056,0.966728,0.140000,-2.100000,0.770000,19.25
178582,0.271816,-0.203008,0.966240,0.210000,-1.960000,0.840000,19.25
178593,0.270352,-0.209840,0.965264,0.210000,-1.820000,0.910000,19.25
178604,0.266936,-0.212280,0.965264,0.700000,-1.820000,1.050000,19.29
178615,0.272304,-0.207400,0.963800,0.700000,-2.310000,0.420000,19.25
178626,0.270840,-0.215208,0.965752,1.120000,-2.450000,0.000000,19.25
178638,0.275232,-0.208376,0.972584,1.330000,-2.240000,0.420000,19.27
178649,0.272304,-0.199104,0.969656,0.560000,-2.450000,0.560000,19.27
178660,0.266936,-0.203496,0.965752,0.070000,-2.520000,0.210000,19.26
178671,0.266448,-0.206424,0.965264,-0.070000,-2.520000,0.350000,19.22
178683,0.263520,-0.211304,0.964776,0.700000,-2.660000,-0.210000,19.22
178694,0.261080,-0.215696,0.962336,2.100000,-2.730000,-0.560000,19.30
178706,0.265960,-0.208376,0.958432,2.940000,-2.730000,-0.420000,19.30
178718,0.270352,-0.202520,0.958920,2.730000,-2.380000,-0.210000,19.29
178729,0.270840,-0.195200,0.960384,1.890000,-1.960000,0.000000,19.27
178740,0.270352,-0.196176,0.968680,0.770000,-1.470000,0.140000,19.27
178751,0.270840,-0.201056,0.974536,-0.070000,-1.330000,0.280000,19.28
178763,0.269864,-0.205448,0.972584,-0.560000,-1.400000,0.420000,19.28
178774,0.269376,-0.209352,0.974536,-0.420000,-1.750000,0.490000,19.29
178786,0.267424,-0.214232,0.978928,-0.070000,-1.680000,0.420000,19.25
178797,0.267424,-0.215696,0.982832,0.420000,-1.890000,0.210000,19.25
178809,0.266936,-0.210816,0.982832,0.490000,-2.100000,0.210000,19.29
178820,0.264984,-0.205448,0.981856,0.350000,-2.450000,0.000000,19.26
178831,0.262056,-0.207400,0.979904,0.070000,-3.010000,-0.140000,19.26
178843,0.263520,-0.210816,0.979904,0.490000,-3.360000,-0.070000,19.30
178855,0.265960,-0.211304,0.973072,1.190000,-3.920000,-0.070000,19.30
178867,0.268888,-0.211304,0.967704,1.680000,-4.060000,-0.070000,19.28
178878,0.268400,-0.215208,0.968680,2.030000,-4.200000,-0.140000,19.26
178890,0.275232,-0.210328,0.969168,1.890000,-3.990000,-0.280000,19.26
178901,0.276208,-0.207888,0.966728,1.330000,-3.850000,-0.490000,19.28
178913,0.275232,-0.205448,0.968680,0.560000,-3.430000,-0.420000,19.28
178925,0.272304,-0.204960,0.969168,-0.070000,-3.290000,-0.560000,19.26
178936,0.269376,-0.207888,0.966240,-0.350000,-3.220000,-0.350000,19.25
178948,0.266936,-0.207400,0.971120,-0.140000,-3.010000,-0.350000,19.25
178959,0.269864,-0.203496,0.970144,0.140000,-2.940000,-0.280000,19.30
178971,0.267912,-0.200568,0.969168,0.070000,-2.800000,-0.070000,19.24
178982,0.268888,-0.199592,0.973560,-0.490000,-2.590000,0.140000,19.24
178994,0.267424,-0.206424,0.973560,-0.560000,-2.730000,0.210000,19.27
179005,0.267912,-0.208376,0.973560,-0.210000,-2.800000,0.140000,19.27
179016,0.265472,-0.205936,0.965752,0.280000,-3.290000,0.000000,19.28
179027,0.270352,-0.214232,0.962824,0.700000,-3.430000,-0.210000,19.26
179039,0.274256,-0.204472,0.964776,0.700000,-3.430000,-0.210000,19.26
179050,0.269864,-0.202032,0.971608,0.490000,-3.360000,-0.140000,19.30
179062,0.269864,-0.205448,0.974536,0.490000,-3.570000,0.000000,19.30
179073,0.267424,-0.200568,0.972096,0.350000,-3.640000,0.280000,19.28
179085,0.269864,-0.207400,0.969168,0.070000,-3.780000,0.210000,19.29
179096,0.269864,-0.213256,0.969656,0.700000,-4.060000,0.350000,19.29
179108,0.268400,-0.210328,0.966728,0.980000,-4.340000,0.350000,19.26
179119,0.273768,-0.213256,0.966240,1.190000,-4.340000,0.280000,19.31
179132,0.269864,-0.204472,0.966728,0.770000,-4.340000,0.070000,19.31
179143,0.272304,-0.209840,0.963312,0.210000,-4.410000,-0.140000,19.30
179155,0.274256,-0.219600,0.962336,0.630000,-4.200000,-0.350000,19.30
179166,0.271328,-0.215696,0.957456,1.540000,-4.270000,-0.490000,19.26
179177,0.269864,-0.211304,0.959896,1.890000,-4.200000,-0.560000,19.26
179189,0.269376,-0.203984,0.955016,1.470000,-3.850000,-0.350000,19.26
179200,0.270840,-0.198616,0.953552,0.350000,-3.640000,-0.210000,19.29
179212,0.269376,-0.207400,0.956968,0.070000,-3.290000,-0.420000,19.23
179223,0.273768,-0.213256,0.956480,0.560000,-3.150000,-0.210000,19.23
179235,0.271816,-0.212280,0.953064,1.050000,-2.940000,-0.070000,19.29
179247,0.269376,-0.205448,0.961848,1.050000,-2.870000,0.070000,19.29
179259,0.264008,-0.203496,0.961360,0.350000,-2.940000,0.070000,19.29
179270,0.267912,-0.213744,0.958920,0.490000,-3.010000,-0.070000,19.26
179282,0.272792,-0.219600,0.953552,1.330000,-3.080000,-0.350000,19.26
179293,0.272792,-0.211304,0.953064,1.470000,-2.730000,-0.350000,19.28
179305,0.272792,-0.197152,0.958432,0.910000,-2.660000,0.000000,19.28
179316,0.274744,-0.206912,0.960384,0.000000,-2.380000,0.210000,19.27
179327,0.272792,-0.212280,0.955992,-0.420000,-2.240000,0.070000,19.29
179339,0.275232,-0.218136,0.952088,0.350000,-1.960000,-0.070000,19.29
179350,0.267912,-0.216184,0.951112,1.470000,-1.890000,-0.350000,19.25
179361,0.262544,-0.212768,0.958432,2.030000,-1.820000,-0.490000,19.28
179373,0.259616,-0.203008,0.962824,1.400000,-1.890000,-0.350000,19.28
179384,0.262544,-0.212280,0.965264,1.260000,-1.890000,-0.420000,19.29
179396,0.265472,-0.223016,0.958432,1.820000,-1.750000,-0.770000,19.29
179407,0.264496,-0.216672,0.956480,2.310000,-1.750000,-0.910000,19.27
179418,0.269376,-0.217648,0.959896,2.800000,-1.610000,-1.260000,19.24
179430,0.274256,-0.207400,0.960872,3.220000,-1.470000,-1.120000,19.24
179441,0.278160,-0.206912,0.965264,2.240000,-1.050000,-0.630000,19.22
179453,0.279624,-0.204472,0.971608,0.700000,-0.910000,-0.490000,19.22
179465,0.274744,-0.209840,0.975024,-0.350000,-0.910000,-0.350000,19.28
179476,0.270840,-0.222528,0.968680,-0.140000,-1.050000,-0.420000,19.30
179488,0.269376,-0.222528,0.963800,0.560000,-1.190000,-0.630000,19.30
179499,0.274256,-0.215208,0.963312,0.560000,-1.400000,-0.420000,19.29
179511,0.276696,-0.218624,0.967704,0.490000,-1.470000,-0.700000,19.27
179522,0.276208,-0.208864,0.965264,0.070000,-1.610000,-0.840000,19.27
