timestamp_ms,ax,ay,az,gx,gy,gz,tempC
1563550,0.673928,0.175680,0.862784,56.419998,-39.759998,1.680000,21.50
1563562,0.684664,0.184952,0.867176,68.809998,-35.980000,5.600000,21.50
1563573,0.602680,0.194224,0.866688,78.260002,-55.090000,6.650000,21.50
1563584,0.733464,0.243024,0.865224,87.849998,-53.340000,5.740000,21.50
1563594,0.714432,0.256688,0.865712,94.150002,-52.709999,10.150000,21.48
1563605,0.708088,0.267912,0.852048,97.930000,-57.470001,16.590000,21.46
1563616,0.682712,0.284992,0.833016,98.349998,-71.750000,5.460000,21.46
1563627,0.766160,0.247416,0.809592,102.199997,-70.000000,11.340000,21.48
1563638,0.800808,0.301584,0.805688,101.709999,-68.669998,18.410000,21.48
1563649,0.833016,0.328424,0.815448,103.110001,-66.570000,18.900000,21.48
1563660,0.826672,0.333792,0.811544,100.589996,-59.220001,23.730000,21.46
1563671,0.730536,0.344528,0.827160,96.599998,-66.430000,27.370001,21.46
1563682,0.787144,0.347944,0.817400,95.129997,-69.440002,30.450001,21.49
1563693,0.740296,0.373320,0.810080,96.599998,-84.070000,31.570000,21.49
1563704,0.775432,0.361120,0.765672,95.900002,-85.330002,31.709999,21.51
1563715,0.845216,0.325496,0.708088,98.000000,-71.889999,42.419998,21.45
1563726,0.777384,0.343552,0.678808,99.260002,-72.870003,39.480000,21.45
1563737,0.798368,0.306464,0.626592,105.559998,-83.790001,46.200001,21.52
1563748,0.770064,0.370392,0.607072,108.430000,-94.570000,41.090000,21.52
1563759,0.844728,0.382592,0.582184,108.570000,-92.750000,47.040001,21.47
1563770,0.880840,0.393328,0.579744,105.209999,-85.330002,51.939999,21.47
1563781,0.894992,0.388936,0.608536,99.400002,-77.910004,57.540001,21.49
1563792,0.864736,0.392840,0.603168,96.879997,-78.400002,61.180000,21.56
1563804,0.866688,0.429928,0.580232,90.720001,-87.639999,62.860001,21.56
1563815,1.004304,0.393816,0.551440,88.410004,-85.680000,70.209999,21.52
1563826,1.006256,0.431392,0.522648,81.199997,-74.339996,69.650002,21.52
1563837,0.915488,0.383080,0.487024,76.089996,-73.919998,73.639999,21.48
1563848,0.937448,0.329400,0.431880,81.339996,-77.279999,76.440002,21.50
1563859,0.970144,0.327936,0.408944,84.349998,-74.480003,78.680000,21.50
1563870,0.955992,0.304512,0.392840,88.760002,-72.309998,80.779999,21.49
1563880,0.942328,0.354776,0.380640,86.169998,-72.029999,83.019997,21.49
1563891,0.951112,0.376736,0.349896,80.220001,-71.190002,84.699997,21.51
1563902,0.959896,0.347456,0.313784,74.550003,-68.040001,85.610001,21.45
1563913,0.959408,0.336232,0.251320,69.580002,-63.209999,86.730003,21.45
1563924,0.955016,0.310368,0.208864,64.820000,-56.279999,86.660004,21.52
1563935,0.943792,0.291336,0.153720,59.919998,-50.189999,86.309998,21.52
1563946,0.929640,0.273768,0.165432,49.700001,-45.849998,85.820000,21.48
1563957,0.898408,0.258152,0.183976,39.200001,-41.299999,84.559998,21.48
1563968,0.887184,0.232288,0.157624,31.570000,-37.869999,82.180000,21.45
1563979,0.873032,0.186904,0.108336,27.580000,-35.209999,79.589996,21.48
1563990,0.845704,0.120536,0.046360,30.799999,-32.830002,76.510002,21.48
1564001,0.838872,0.079544,0.001464,34.160000,-29.610001,71.050003,21.47
1564012,0.833016,0.053192,-0.011712,33.529999,-25.830000,64.820000,21.47
1564023,0.816424,0.016104,-0.012688,33.040001,-22.400000,59.709999,21.50
1564034,0.812032,-0.056120,-0.021472,38.919998,-18.620001,52.220001,21.52
1564045,0.793976,-0.081496,-0.042456,43.610001,-11.550000,46.060001,21.52
1564057,0.743224,-0.100528,-0.057096,48.650002,-11.900000,34.369999,21.50
1564068,0.724680,-0.146888,-0.080520,55.580002,-11.130000,25.969999,21.50
1564079,0.730536,-0.194224,-0.141032,72.449997,-7.840000,18.620001,21.47
1564091,0.724680,-0.159088,-0.189344,83.790001,-3.290000,11.340000,21.48
1564102,0.726144,-0.202520,-0.236680,97.089996,1.610000,2.730000,21.48
1564113,0.792024,-0.217648,-0.282064,111.790001,16.379999,-4.620000,21.52
1564124,0.793976,-0.231312,-0.329888,129.710007,29.540001,-21.840000,21.52
1564135,0.795928,-0.181536,-0.385032,142.520004,10.570000,-23.100000,21.51
1564146,0.854488,-0.177144,-0.415288,159.320007,38.430000,-34.299999,21.48
1564157,0.735416,-0.203984,-0.423096,180.320007,49.840000,-49.349998,21.48
1564169,0.714432,-0.185928,-0.461160,198.869995,48.439999,-63.980000,21.51
1564181,0.721264,-0.236680,-0.488000,224.910004,63.349998,-79.169998,21.51
1564192,0.699792,-0.204960,-0.489464,240.729996,72.940002,-93.589996,21.53
1564203,0.658800,-0.261568,-0.430904,266.630005,80.010002,-111.650002,21.47
1564214,0.599264,-0.194712,-0.380152,297.570007,89.389999,-127.610001,21.47
1564225,0.532408,-0.032208,-0.326472,310.029999,90.930000,-151.690002,21.51
1564237,0.475312,-0.056120,-0.284016,316.750000,88.620003,-181.929993,21.51
1564248,0.461648,-0.051728,-0.279624,329.279999,89.529999,-204.960007,21.50
1564259,0.388936,-0.024400,-0.211792,338.029999,85.610001,-226.869995,21.51
1564270,0.345504,0.059048,-0.178608,348.459991,81.690002,-247.240005,21.51
1564281,0.319640,0.376736,-0.064904,340.130005,75.949997,-256.619995,21.50
1564292,0.264496,0.670512,0.061488,312.549988,64.190002,-273.350006,21.50
1564303,0.262544,0.895968,0.103944,267.260010,49.490002,-285.600006,21.46
1564314,0.291336,1.046272,0.122976,216.649994,32.900002,-286.089996,21.51
1564325,0.256200,1.170224,-0.024888,204.330002,15.330000,-291.690002,21.51
1564336,0.395280,1.528416,-0.197640,128.660004,30.100000,-252.559998,21.45
1564347,0.418216,1.562088,-0.252784,65.870003,29.610001,-182.000000,21.45
1564358,0.367952,1.938824,-0.079056,28.770000,36.119999,-176.679993,21.47
1564369,0.375272,2.065216,0.185440,4.900000,32.830002,-151.550003,21.43
1564380,0.470432,2.067168,0.399672,-0.140000,24.850000,-118.230003,21.43
1564391,0.507520,2.041304,0.475800,1.750000,17.010000,-85.260002,21.52
1564401,0.543144,2.031544,0.467016,0.140000,11.130000,-54.389999,21.52
1564412,0.597312,1.965664,0.405528,-3.290000,6.370000,-23.870001,21.51
1564424,0.612440,2.010560,0.341600,-14.210000,2.310000,13.230000,21.51
1564436,0.600240,1.972984,0.259616,-34.090000,-5.110000,42.000000,21.50
1564447,0.598776,1.795840,0.239608,-49.000000,-11.270000,66.849998,21.48
1564458,0.598776,1.625528,0.241560,-57.889999,-14.700000,86.660004,21.48
1564469,0.580720,1.529392,0.254248,-61.599998,-19.459999,103.180000,21.52
1564480,0.566080,1.454728,0.243024,-65.800003,-25.200001,116.410004,21.47
1564491,0.545584,1.338584,0.191784,-69.160004,-29.400000,131.460007,21.47
1564502,0.532896,1.240008,0.142984,-76.930000,-32.410000,143.990005,21.52
1564513,0.522648,1.176568,0.104920,-86.099998,-37.380001,154.279999,21.52
1564524,0.501176,1.126304,0.066368,-101.150002,-41.930000,165.759995,21.50
1564535,0.505080,1.035536,0.031232,-116.970001,-46.830002,174.229996,21.50
1564546,0.513864,0.942816,0.016592,-129.429993,-49.560001,181.089996,21.52
1564558,0.522648,0.864248,0.025864,-150.429993,-53.270000,184.240005,21.51
1564569,0.542168,0.719312,0.050264,-160.160004,-53.830002,183.330002,21.51
1564580,0.541192,0.590968,0.076616,-157.080002,-56.000000,181.509995,21.48
1564591,0.561200,0.528504,0.080032,-149.660004,-58.099998,178.289993,21.48
1564602,0.584136,0.495808,0.023912,-146.440002,-58.939999,174.860001,21.50
1564612,0.617808,0.447008,-0.028304,-150.919998,-57.610001,168.559998,21.51
1564623,0.630984,0.386984,-0.086864,-158.970001,-56.910000,162.820007,21.51
1564635,0.654896,0.340624,-0.126880,-176.259995,-56.279999,156.800003,21.49
1564646,0.690520,0.317200,-0.117120,-195.160004,-54.180000,149.940002,21.49
1564658,0.712480,0.254736,-0.069784,-209.789993,-50.610001,126.139999,21.49
1564669,0.736880,0.136640,-0.058072,-209.649994,-49.000000,135.869995,21.45
1564680,0.776896,0.055144,-0.017568,-199.919998,-43.540001,127.540001,21.45
1564691,0.727608,0.031232,-0.001464,-179.899994,-48.160000,114.449997,21.51
1564702,0.780312,0.053680,0.019032,-162.399994,-50.820000,108.779999,21.51
1564713,0.811056,0.014152,-0.004392,-153.300003,-46.549999,100.449997,21.48
1564724,0.864736,-0.073200,-0.035624,-144.899994,-39.340000,94.430000,21.48
1564735,0.847168,-0.113216,-0.072224,-141.119995,-32.270000,85.120003,21.48
1564746,0.845704,-0.120536,-0.101504,-139.580002,-30.240000,81.129997,21.52
1564757,0.869128,-0.131272,-0.157136,-130.899994,-39.270000,71.750000,21.52
1564769,0.992592,-0.255712,-0.136152,-120.120003,-10.290000,73.989998,21.48
1564780,0.820816,-0.264496,-0.134200,-98.980003,-35.630001,58.169998,21.46
1564791,0.857416,-0.315736,-0.156648,-76.160004,-27.860001,50.750000,21.46
1564802,0.928664,-0.334280,-0.166896,-58.240002,-10.010000,41.650002,21.51
1564813,0.862296,-0.344528,-0.150304,-45.150002,-7.420000,31.500000,21.51
1564824,0.914512,-0.339160,-0.128832,-32.410000,4.200000,23.240000,21.50
1564835,0.941840,-0.432368,-0.125416,-15.890000,11.620000,9.240000,21.50
1564846,0.384056,-0.446032,-0.113216,-0.210000,-29.049999,-15.540000,21.50
1564858,1.145824,-0.461160,-0.152744,29.469999,12.600000,-2.310000,21.50
1564869,0.880840,-0.425536,-0.193736,53.619999,36.259998,-14.490000,21.50
1564880,0.808616,-0.388448,-0.217648,60.060001,19.040001,-30.100000,21.49
1564891,0.902800,-0.457256,-0.262544,87.290001,28.420000,-48.439999,21.47
1564902,0.803248,-0.379664,-0.283528,109.620003,33.110001,-68.739998,21.47
1564913,0.808616,-0.421144,-0.300608,133.000000,14.700000,-66.919998,21.56
1564925,0.845216,-0.391864,-0.376736,185.429993,47.810001,-99.680000,21.56
1564936,0.727120,-0.195200,-0.365512,211.889999,56.279999,-131.949997,21.47
1564947,0.758840,-0.336232,-0.354288,250.740005,66.150002,-145.529999,21.50
1564958,0.659776,-0.339648,-0.320616,295.329987,78.470001,-162.190002,21.50
1564969,0.599752,-0.256688,-0.226920,330.329987,81.830002,-186.690002,21.50
1564981,0.544120,-0.195200,-0.194224,363.929993,87.709999,-203.770004,21.50
1564992,0.450424,-0.125904,-0.209352,386.959991,83.650002,-227.220001,21.48
1565003,0.390400,0.061000,-0.247904,384.230011,77.980003,-243.529999,21.50
1565014,0.345504,0.443592,-0.227896,345.029999,70.000000,-260.820007,21.50
1565025,0.314760,0.743224,-0.192272,294.630005,67.129997,-275.170013,21.49
1565036,0.317200,0.962336,-0.106872,231.699997,63.980000,-283.149994,21.49
1565047,0.306464,1.158024,-0.023424,178.850006,58.590000,-289.100006,21.50
1565058,0.280600,1.169248,-0.009272,156.589996,47.250000,-290.920013,21.50
1565069,0.279624,1.308816,-0.053680,129.080002,40.180000,-276.149994,21.48
1565080,0.319640,1.542080,-0.065880,72.169998,36.330002,-256.549988,21.48
1565090,0.482632,1.619184,-0.008784,40.810001,103.599998,-225.470001,21.48
1565102,0.221552,1.786568,0.115656,3.640000,73.849998,-181.229996,21.50
1565112,0.261568,1.926136,0.323056,-5.320000,62.790001,-146.089996,21.50
1565123,0.302560,2.099376,0.434320,-16.730000,38.919998,-112.489998,21.49
1565135,0.352824,2.140856,0.525088,-27.090000,17.780001,-84.000000,21.49
1565146,0.434808,1.919304,0.597800,-32.480000,11.200000,-56.560001,21.49
1565157,0.474336,1.772904,0.587552,-22.750000,8.190000,-26.600000,21.48
1565168,0.494344,1.773392,0.579256,-25.270000,-0.770000,-6.580000,21.48
1565179,0.427976,1.675304,0.356728,-24.780001,-3.220000,12.880000,21.49
1565190,0.441640,1.620160,0.406992,-32.689999,-21.700001,38.990002,21.47
1565202,0.600728,1.554768,0.393816,-40.880001,-14.140000,81.339996,21.47
1565213,0.433344,1.564528,0.406504,-45.849998,-26.670000,81.480003,21.50
1565224,0.454328,1.497184,0.368928,-66.989998,-29.260000,89.529999,21.50
1565235,0.411384,1.275632,0.356728,-71.120003,-41.650002,101.290001,21.53
1565246,0.430416,1.202920,0.328912,-76.510002,-48.790001,110.809998,21.50
1565257,0.486536,1.159488,0.301096,-89.739998,-47.669998,118.160004,21.50
1565268,0.481656,1.073112,0.259128,-96.669998,-48.580002,127.330002,21.49
1565279,0.486048,1.088240,0.232288,-103.180000,-49.419998,139.649994,21.49
1565290,0.508008,1.111176,0.180560,-118.300003,-50.119999,145.880005,21.55
1565301,0.508984,1.035536,0.157624,-129.220001,-50.820000,148.820007,21.50
1565312,0.504592,0.923784,0.188368,-128.869995,-54.529999,151.410004,21.50
1565324,0.523624,0.881328,0.233752,-127.120003,-59.779999,153.720001,21.52
1565336,0.544608,0.924272,0.265472,-137.479996,-63.840000,154.490005,21.52
1565347,0.565104,0.819352,0.255712,-149.169998,-66.360001,152.880005,21.48
1565358,0.586576,0.727120,0.196664,-157.080002,-68.389999,156.029999,21.49
1565369,0.618784,0.685640,0.134688,-168.210007,-68.599998,157.500000,21.49
1565380,0.658312,0.605608,0.126880,-173.809998,-68.529999,157.289993,21.49
1565391,0.672464,0.528504,0.134688,-170.169998,-68.739998,154.350006,21.49
1565403,0.691008,0.543632,0.180560,-166.460007,-71.470001,152.809998,21.48
1565414,0.705160,0.379176,0.193248,-165.690002,-73.080002,147.559998,21.45
1565425,0.722240,0.351848,0.207888,-157.779999,-75.180000,142.869995,21.45
1565436,0.706624,0.231312,0.198128,-149.449997,-77.489998,136.009995,21.52
1565447,0.727608,0.126880,0.167872,-144.270004,-80.080002,131.740005,21.52
1565458,0.756400,0.051728,0.117608,-139.509995,-80.849998,127.959999,21.50
1565469,0.759328,-0.018544,0.047824,-131.460007,-80.779999,123.129997,21.48
1565480,0.802272,0.020496,0.021960,-132.300003,-78.120003,118.300003,21.48
1565491,0.747128,0.047336,0.008784,-139.509995,-81.900002,107.870003,21.49
1565501,0.834968,-0.085400,-0.028792,-133.000000,-74.900002,108.150002,21.49
1565513,0.793000,-0.244000,-0.049776,-116.550003,-68.529999,93.730003,21.51
1565524,0.792024,-0.342088,-0.064904,-96.180000,-68.529999,83.300003,21.51
1565535,0.839360,-0.362584,-0.072224,-78.050003,-64.190002,75.459999,21.51
1565546,0.828136,-0.380640,-0.066856,-61.880001,-59.220001,63.139999,21.52
1565558,0.846192,-0.406504,-0.083448,-48.230000,-55.720001,52.080002,21.52
1565569,0.862784,-0.401136,-0.100528,-40.110001,-48.369999,42.070000,21.52
1565580,0.867664,-0.415288,-0.146400,-33.110001,-38.220001,32.619999,21.52
1565592,0.858392,-0.451888,-0.186904,-23.660000,-30.590000,22.190001,21.48
1565603,0.850096,-0.484096,-0.233752,-6.510000,-23.799999,10.570000,21.51
1565614,0.851072,-0.468968,-0.245464,7.280000,-18.620001,-2.730000,21.51
1565626,0.848144,-0.500688,-0.272792,22.049999,-12.810000,-14.420000,21.48
1565637,0.849120,-0.530456,-0.300120,37.590000,-5.390000,-29.120001,21.48
1565648,0.849120,-0.545096,-0.343552,69.790001,4.900000,-44.099998,21.48
1565659,0.829112,-0.526552,-0.370392,70.769997,13.720000,-61.740002,21.53
1565671,0.744200,-0.481168,-0.361608,92.750000,-0.630000,-82.879997,21.53
1565682,0.996008,-0.460672,-0.356240,105.559998,34.720001,-91.279999,21.48
1565693,0.844728,-0.427000,-0.348920,128.449997,87.989998,-105.000000,21.46
1565704,0.642208,-0.383080,-0.360632,140.839996,70.559998,-124.739998,21.46
1565715,0.724680,-0.351360,-0.355752,167.020004,84.070000,-145.880005,21.51
1565726,0.679784,-0.278160,-0.347456,192.289993,89.389999,-167.509995,21.51
1565737,0.574864,-0.227896,-0.327936,216.720001,84.629997,-186.759995,21.46
1565748,0.546560,-0.202032,-0.306464,253.960007,82.879997,-207.970001,21.46
1565760,0.513864,-0.111752,-0.283528,281.470001,90.089996,-223.440002,21.48
1565771,0.389912,0.042944,-0.241560,298.059998,81.410004,-256.269989,21.49
1565782,0.384544,0.051728,-0.247904,326.619995,89.110001,-234.990005,21.49
1565793,0.210816,0.447008,-0.175192,333.059998,74.830002,-274.750000,21.52
1565804,0.246440,0.813496,-0.046360,296.029999,77.209999,-301.070007,21.52
1565815,0.234240,0.890600,-0.013664,249.059998,71.820000,-314.160004,21.47
1565826,0.166408,1.170712,0.072224,217.419998,51.169998,-318.570007,21.49
1565836,0.115168,1.317600,0.015616,190.470001,25.760000,-322.700012,21.49
1565847,0.217648,1.377136,-0.135176,152.389999,34.930000,-304.010010,21.49
1565859,0.167384,1.807064,-0.097112,73.989998,40.740002,-275.519989,21.49
1565870,0.317688,1.836344,0.060512,1.120000,77.699997,-237.580002,21.52
1565880,0.161040,1.800232,0.182512,-7.280000,79.239998,-200.479996,21.50
1565892,0.149816,1.998360,0.361120,-11.270000,58.240002,-149.380005,21.50
1565903,0.197152,2.210152,0.439688,-12.600000,40.250000,-128.169998,21.50
1565913,0.250344,2.087176,0.475312,-8.400000,24.780001,-99.680000,21.50
1565925,0.354288,2.011536,0.469944,-1.820000,19.320000,-67.760002,21.53
1565936,0.407968,1.975424,0.443104,-0.350000,17.990000,-41.090000,21.50
1565946,0.419680,1.941264,0.419192,-5.460000,13.790000,-9.660000,21.50
1565957,0.411384,1.932480,0.433344,-16.450001,7.980000,16.590000,21.51
1565969,0.381128,1.850984,0.415776,-26.670000,-5.250000,35.770000,21.51
1565980,0.377224,1.686528,0.422120,-32.340000,-15.750000,55.160000,21.50
1565991,0.382104,1.543544,0.408944,-31.850000,-21.700001,72.800003,21.50
1566002,0.378688,1.459120,0.361608,-33.180000,-26.180000,92.050003,21.52
1566013,0.374784,1.400560,0.306952,-37.730000,-34.860001,105.839996,21.49
1566024,0.376248,1.409832,0.252784,-49.630001,-41.720001,114.099998,21.49
1566035,0.391864,1.360544,0.202032,-63.700001,-45.639999,124.040001,21.52
1566046,0.418704,1.279048,0.175192,-74.199997,-45.220001,135.660004,21.52
1566057,0.422608,1.212192,0.170800,-84.769997,-44.099998,142.520004,21.51
1566068,0.417728,1.150704,0.164456,-93.660004,-43.889999,149.520004,21.45
1566079,0.437248,1.096536,0.150304,-100.239998,-45.220001,157.149994,21.45
1566090,0.454816,1.086288,0.131272,-110.599998,-46.340000,162.330002,21.51
1566101,0.433832,1.022360,0.092232,-125.580002,-49.349998,164.850006,21.51
1566112,0.461648,0.928664,0.073200,-135.800003,-51.029999,169.679993,21.51
1566123,0.474824,0.894992,0.052704,-148.259995,-52.080002,174.440002,21.52
1566134,0.481168,0.827648,0.038552,-164.289993,-53.830002,178.080002,21.52
1566145,0.499712,0.726632,0.021472,-196.559998,-56.000000,180.389999,21.53
1566156,0.546560,0.574376,0.033184,-181.929993,-51.799999,176.119995,21.53
1566167,0.563640,0.492880,0.074664,-172.970001,-49.419998,175.490005,21.50
1566177,0.600240,0.483120,0.100528,-168.630005,-49.630001,173.529999,21.50
1566189,0.632936,0.484096,0.117608,-172.270004,-49.840000,170.169998,21.48
1566200,0.646112,0.456768,0.095160,-182.070007,-50.400002,166.389999,21.47
1566211,0.654896,0.397232,0.076616,-193.339996,-51.169998,161.000000,21.47
1566222,0.674904,0.295240,0.050752,-202.089996,-50.400002,155.330002,21.54
1566233,0.666608,0.101992,0.035136,-195.160004,-50.049999,146.929993,21.54
1566244,0.686616,0.014640,0.045872,-179.479996,-51.310001,141.750000,21.54
1566254,0.694424,-0.076616,0.046848,-166.039993,-51.660000,133.559998,21.50
1566265,0.738832,-0.166408,0.036112,-147.910004,-50.680000,124.809998,21.50
1566276,0.771040,-0.177144,0.038552,-132.860001,-44.450001,116.410004,21.51
1566287,0.765672,-0.162016,0.038552,-126.349998,-44.520000,106.820000,21.51
1566298,0.795928,-0.173240,0.043432,-126.489998,-42.700001,96.459999,21.53
1566309,0.821792,-0.240096,0.038552,-120.540001,-38.990002,86.309998,21.48
1566320,0.831552,-0.317688,0.015128,-111.860001,-34.090000,79.660004,21.48
1566332,0.861808,-0.330376,-0.004880,-104.860001,-27.719999,71.540001,21.50
1566343,0.866200,-0.455304,-0.008296,-89.529999,-19.530001,61.529999,21.50
1566354,0.857416,-0.441152,0.014152,-73.919998,-15.680000,50.189999,21.52
1566365,0.856928,-0.453840,0.015616,-63.209999,-10.920000,40.180000,21.48
1566376,0.857904,-0.495808,-0.002440,-52.570000,-5.950000,28.209999,21.48
1566387,0.858392,-0.533384,-0.027816,-43.820000,-1.330000,15.960000,21.50
1566398,0.857416,-0.540704,-0.027328,-33.180000,2.030000,3.710000,21.50
1566409,0.854000,-0.549000,-0.029280,-19.459999,5.740000,-6.160000,21.51
1566421,0.841800,-0.612928,-0.026840,9.940000,8.750000,-19.670000,21.46
1566432,0.824232,-0.610000,-0.029280,38.150002,10.220000,-32.689999,21.46
1566443,0.836432,-0.538752,-0.050752,65.169998,13.020000,-46.830002,21.48
1566454,0.837896,-0.535824,-0.095160,90.160004,19.389999,-58.240002,21.48
1566465,0.821792,-0.502640,-0.117120,112.139999,25.690001,-73.010002,21.52
1566476,0.674904,-0.488488,-0.161040,126.209999,11.480000,-81.900002,21.52
1566487,0.950136,-0.348920,-0.148840,144.130005,49.000000,-100.169998,21.48
1566498,0.787632,-0.345992,-0.169824,157.570007,80.220001,-118.930000,21.54
1566512,0.651968,-0.375272,-0.186416,198.520004,74.830002,-138.740005,21.54
1566523,0.717848,-0.305000,-0.191296,241.080002,90.720001,-152.460007,21.49
1566534,0.556320,-0.176656,-0.206424,275.660004,91.489998,-173.529999,21.47
1566545,0.544120,-0.106384,-0.228872,317.660004,86.589996,-182.000000,21.47
1566556,0.486536,0.067832,-0.205448,350.559998,84.279999,-197.050003,21.46
1566567,0.409432,0.183976,-0.175192,374.709991,76.019997,-220.639999,21.46
1566579,0.372832,0.375272,-0.138104,380.589996,74.900002,-241.149994,21.50
1566590,0.337208,0.502152,-0.109800,371.559998,69.790001,-266.140015,21.50
1566601,0.265960,0.684176,-0.056120,355.950012,64.540001,-266.700012,21.50
1566612,0.228872,1.008208,-0.011712,307.859985,60.689999,-276.570007,21.45
1566623,0.229360,1.166320,0.037088,268.799988,49.840000,-284.480011,21.45
1566634,0.163480,1.123376,0.022936,240.869995,50.400002,-292.250000,21.53
1566645,0.256688,1.194136,-0.061976,194.460007,36.680000,-282.660004,21.55
1566656,0.276696,1.638704,0.002928,134.470001,77.139999,-273.279999,21.55
1566667,0.127856,1.887584,0.157624,50.750000,56.349998,-244.089996,21.49
1566678,0.091744,1.945656,0.334768,7.700000,42.070000,-219.240005,21.49
1566688,0.131272,2.079856,0.439200,-4.270000,31.080000,-184.589996,21.50
1566699,0.123464,2.038376,0.427488,-0.770000,24.780001,-149.380005,21.50
1566710,0.173240,2.015928,0.390400,-4.900000,24.570000,-119.349998,21.50
1566721,0.208376,1.934432,0.356728,-2.240000,20.930000,-80.430000,21.50
1566732,0.269376,1.947120,0.349896,5.530000,15.050000,-42.770000,21.50
1566743,0.292312,1.982256,0.366976,4.970000,7.350000,-16.660000,21.48
1566754,0.303048,2.079368,0.424560,-8.120000,-5.250000,11.340000,21.48
1566765,0.314272,2.009096,0.471896,-22.400000,-17.010000,33.669998,21.52
1566776,0.325984,1.873432,0.478240,-36.540001,-24.010000,53.830002,21.47
1566787,0.318664,1.726056,0.467992,-46.619999,-27.510000,70.980003,21.47
1566798,0.297192,1.522560,0.441152,-54.110001,-35.349998,91.839996,21.52
1566809,0.299632,1.409832,0.403576,-58.660000,-44.520000,108.779999,21.52
1566820,0.306464,1.365912,0.330864,-63.139999,-51.450001,123.900002,21.50
1566831,0.323056,1.382016,0.270840,-72.589996,-60.480000,133.910004,21.50
1566842,0.351848,1.331264,0.207400,-79.730003,-63.070000,140.350006,21.50
1566853,0.364048,1.212192,0.196176,-82.599998,-64.610001,145.880005,21.48
1566864,0.403576,1.195112,0.204472,-82.949997,-61.880001,151.059998,21.48
1566875,0.405528,1.190720,0.196176,-90.790001,-60.619999,156.100006,21.50
1566887,0.416264,1.136064,0.185928,-103.459999,-60.340000,159.320007,21.50
1566898,0.426024,1.093608,0.163968,-115.989998,-60.619999,163.380005,21.48
1566909,0.426512,0.996496,0.131760,-139.649994,-61.180000,166.320007,21.49
1566920,0.441152,0.904264,0.140544,-152.110001,-62.720001,168.979996,21.49
1566931,0.456768,0.730536,0.119560,-147.979996,-63.000000,172.550003,21.49
1566942,0.616344,0.690520,0.114680,-142.589996,-63.700001,173.669998,21.49
1566953,0.532408,0.618296,0.102480,-138.600006,-64.750000,173.809998,21.48
1566965,0.558272,0.503616,0.076616,-133.419998,-64.260002,168.979996,21.49
1566976,0.609512,0.521184,0.093208,-136.009995,-61.459999,167.440002,21.49
1566989,0.620248,0.562176,0.096136,-150.710007,-59.220001,164.360001,21.49
1567000,0.631472,0.540704,0.076128,-169.889999,-57.959999,159.529999,21.45
1567011,0.651968,0.311344,0.066856,-162.399994,-54.180000,152.600006,21.45
1567022,0.649528,0.164456,0.085400,-146.229996,-53.060001,146.020004,21.48
1567033,0.664656,0.152256,0.076128,-132.929993,-53.270000,140.770004,21.48
1567044,0.711504,0.109800,0.078568,-133.210007,-50.610001,134.820007,21.52
1567055,0.722728,0.008784,0.076616,-127.889999,-48.509998,126.349998,21.52
1567066,0.723216,-0.021472,0.049288,-124.250000,-48.160000,119.139999,21.48
1567077,0.739808,-0.063440,0.007320,-122.080002,-48.020000,110.250000,21.51
1567088,0.756400,-0.149328,-0.035624,-113.470001,-45.009998,102.970001,21.51
1567100,0.765184,-0.236680,-0.030744,-97.230003,-41.509998,93.449997,21.50
1567111,0.780312,-0.310368,-0.031720,-81.269997,-38.709999,83.160004,21.51
1567122,0.799344,-0.355264,-0.030256,-65.589996,-33.669998,71.190002,21.51
1567133,0.801784,-0.407968,-0.032696,-53.200001,-26.740000,57.540001,21.49
1567145,0.800320,-0.456280,-0.037088,-36.820000,-20.650000,43.189999,21.49
1567156,0.814472,-0.490440,-0.055144,-19.250000,-11.760000,31.850000,21.49
1567167,0.824720,-0.525576,-0.060512,-1.400000,-2.240000,17.360001,21.48
1567178,0.818864,-0.538752,-0.065392,12.810000,5.670000,2.450000,21.48
1567189,0.820328,-0.515816,-0.050752,27.230000,10.780000,-12.740000,21.47
1567200,0.811056,-0.485560,-0.045384,38.290001,16.520000,-25.549999,21.47
1567211,0.804224,-0.472872,-0.052704,48.439999,21.420000,-41.650002,21.50
1567222,0.797880,-0.431392,-0.048312,54.669998,26.389999,-58.660000,21.50
1567233,0.786168,-0.444080,-0.051728,62.860001,30.379999,-77.699997,21.54
1567244,0.625128,-0.473360,-0.106872,81.690002,16.240000,-85.190002,21.47
1567255,0.851072,-0.325008,-0.067832,94.639999,54.740002,-105.139999,21.47
1567267,0.708088,-0.310856,-0.091744,101.779999,69.580002,-127.120003,21.53
1567278,0.678808,-0.324032,-0.125416,127.330002,72.029999,-141.330002,21.53
1567289,0.688080,-0.257664,-0.147376,156.520004,82.809998,-157.639999,21.50
1567300,0.610976,-0.141032,-0.179096,185.919998,91.629997,-182.839996,21.46
1567311,0.522160,-0.052216,-0.162504,218.330002,92.330002,-187.039993,21.46
1567322,0.384056,0.064416,-0.157136,246.679993,93.870003,-200.690002,21.51
1567333,0.438224,0.168360,-0.132736,277.549988,96.949997,-216.089996,21.51
1567344,0.369904,0.328424,-0.067344,305.970001,94.570000,-229.039993,21.49
1567356,0.291336,0.531432,-0.004880,327.739990,88.620003,-241.639999,21.49
1567367,0.248880,0.854000,0.067832,329.910004,77.000000,-250.600006,21.49
1567377,0.238632,1.023824,0.064904,304.079987,70.070000,-258.369995,21.44
1567388,0.230824,1.118984,-0.002440,268.309998,62.299999,-263.760010,21.44
1567400,0.229848,1.185840,-0.083448,232.050003,64.260002,-264.320007,21.51
1567411,0.266448,1.406904,-0.061976,187.110001,47.459999,-250.529999,21.42
1567422,0.324520,1.719224,0.025864,132.649994,92.820000,-245.350006,21.42
1567433,0.115656,1.809016,0.077104,60.759998,66.709999,-223.580002,21.49
1567444,0.122488,1.666032,0.184464,30.520000,54.740002,-193.970001,21.49
1567455,0.149816,1.608448,0.304024,14.350000,46.410000,-171.990005,21.52
1567466,0.148352,1.707512,0.417240,24.990000,42.209999,-139.229996,21.48
1567477,0.178120,1.953464,0.489464,28.629999,38.150002,-108.500000,21.48
1567489,0.169824,2.005192,0.530456,19.320000,30.940001,-83.930000,21.51
1567500,0.215208,1.971032,0.517768,13.090000,24.570000,-57.259998,21.51
1567512,0.232288,1.955904,0.474336,1.470000,14.350000,-29.889999,21.47
1567523,0.245464,1.921744,0.438224,-13.020000,4.550000,-2.450000,21.43
1567534,0.264496,1.875384,0.441640,-26.600000,-6.300000,16.520000,21.43
1567545,0.258640,1.832928,0.463112,-39.480000,-17.219999,39.410000,21.47
1567556,0.265472,1.744600,0.482144,-48.790001,-25.549999,57.750000,21.47
1567567,0.259616,1.619672,0.485072,-59.080002,-32.410000,73.849998,21.50
1567578,0.263032,1.483032,0.468968,-62.299999,-41.020000,86.309998,21.47
1567589,0.272792,1.450336,0.434320,-63.490002,-49.349998,101.080002,21.47
1567600,0.284504,1.423984,0.368928,-68.949997,-55.930000,112.699997,21.49
1567611,0.306464,1.404464,0.296216,-72.589996,-62.650002,121.379997,21.49
1567622,0.319640,1.425936,0.242536,-86.940002,-68.320000,130.339996,21.52
1567634,0.342088,1.347856,0.217160,-101.430000,-70.910004,137.899994,21.48
1567645,0.359656,1.239032,0.247904,-105.279999,-69.790001,145.179993,21.48
1567656,0.355752,1.202920,0.270840,-108.220001,-73.430000,155.259995,21.54
1567667,0.399184,1.103856,0.294264,-113.190002,-71.610001,159.320007,21.54
1567678,0.418704,1.055544,0.271816,-113.680000,-68.879997,162.889999,21.52
1567690,0.429928,1.057008,0.236192,-121.519997,-70.559998,168.699997,21.52
1567701,0.463600,1.028704,0.219112,-131.600006,-71.260002,174.089996,21.52
1567712,0.468480,0.911096,0.156648,-141.889999,-71.330002,176.750000,21.48
1567723,0.483608,0.795928,0.107848,-139.789993,-73.010002,178.710007,21.48
1567734,0.518256,0.748592,0.076128,-143.710007,-73.430000,182.490005,21.48
1567744,0.543632,0.655872,0.068808,-151.759995,-75.110001,185.500000,21.48
1567755,0.588528,0.572424,0.097600,-150.500000,-73.919998,181.929993,21.49
1567766,0.589504,0.489464,0.113704,-143.570007,-71.889999,178.009995,21.52
1567777,0.602680,0.453840,0.133712,-139.860001,-72.099998,174.509995,21.52
1567788,0.602192,0.257176,0.129808,-137.339996,-70.559998,168.279999,21.49
1567799,0.614880,0.207400,0.093208,-125.720001,-69.300003,163.729996,21.49
1567811,0.636840,0.104432,0.057096,-110.739998,-66.220001,156.240005,21.52
1567822,0.662704,0.045384,0.014152,-101.989998,-62.580002,149.660004,21.47
1567833,0.680272,-0.024888,-0.005368,-96.180000,-58.029999,138.669998,21.47
1567844,0.696864,-0.091256,-0.019032,-91.489998,-53.900002,131.669998,21.50
1567855,0.714432,-0.151768,-0.007808,-88.620003,-48.930000,120.470001,21.50
1567866,0.711016,-0.257176,-0.008296,-80.500000,-45.009998,108.430000,21.50
1567877,0.713456,-0.329400,-0.035624,-69.720001,-41.509998,97.160004,21.47
1567888,0.739320,-0.379664,-0.052704,-61.320000,-35.700001,81.970001,21.47
1567899,0.744200,-0.436760,-0.058560,-54.180000,-29.330000,65.029999,21.48
1567910,0.746152,-0.453840,-0.045872,-45.220001,-23.520000,47.110001,21.48
1567921,0.745176,-0.493368,-0.040016,-32.970001,-15.470000,32.410000,21.54
1567932,0.747128,-0.567544,-0.058072,-12.600000,-6.510000,13.650000,21.54
1567943,0.760792,-0.578768,-0.053680,1.960000,3.710000,-6.020000,21.50
1567954,0.757864,-0.576816,-0.059536,20.020000,12.040000,-25.690001,21.48
1567965,0.739320,-0.549488,-0.059048,37.169998,19.670000,-41.020000,21.48
1567976,0.730048,-0.529480,-0.072224,69.650002,27.230000,-60.480000,21.51
1567987,0.719800,-0.496296,-0.085400,66.360001,32.340000,-80.639999,21.51
1567998,0.701256,-0.476288,-0.104920,80.360001,38.009998,-100.029999,21.51
1568009,0.690032,-0.429928,-0.115656,95.620003,42.070000,-118.510002,21.47
1568020,0.571448,-0.444568,-0.154208,116.830002,35.419998,-132.509995,21.47
1568031,0.721264,-0.276696,-0.148840,137.199997,64.889999,-157.220001,21.49
1568042,0.557296,-0.250832,-0.159576,156.800003,67.900002,-194.250000,21.49
1568053,0.569496,-0.225456,-0.166896,189.979996,77.209999,-196.910004,21.48
1568064,0.498248,-0.059536,-0.140056,212.869995,81.059998,-218.190002,21.50
1568076,0.446032,0.037088,-0.122000,241.080002,85.120003,-237.789993,21.50
1568087,0.382592,0.192272,-0.080032,262.079987,87.779999,-245.279999,21.47
1568098,0.309392,0.492880,-0.006344,269.709991,82.180000,-253.190002,21.47
1568108,0.294264,0.782752,0.081496,264.809998,76.720001,-262.570007,21.49
1568119,0.267424,1.054080,0.147376,248.639999,72.449997,-267.540009,21.45
1568130,0.260592,1.409344,0.153232,208.740005,54.950001,-265.440002,21.45
1568141,0.276696,1.354200,0.097600,179.410004,39.619999,-266.279999,21.53
1568152,0.256200,1.197552,0.032696,156.589996,34.439999,-265.369995,21.53
1568163,0.306464,1.448872,0.066368,91.070000,46.619999,-242.479996,21.53
1568174,0.261080,1.811944,0.237168,42.560001,26.740000,-212.100006,21.53
1568184,0.315248,1.788520,0.340624,16.730000,78.680000,-197.050003,21.46
1568195,0.148352,1.792424,0.449448,9.240000,48.369999,-164.009995,21.46
1568206,0.209352,1.925648,0.535824,15.540000,37.029999,-127.190002,21.46
1568217,0.235704,2.044720,0.537776,8.050000,20.370001,-100.519997,21.47
1568228,0.295240,2.049112,0.512888,1.680000,10.220000,-69.160004,21.47
1568239,0.349408,2.082784,0.491904,-3.640000,11.690000,-38.150002,21.48
1568250,0.347944,1.987136,0.448472,-10.220000,7.910000,-17.920000,21.52
1568261,0.347944,1.974936,0.425536,-34.299999,2.520000,7.840000,21.52
1568271,0.329888,1.954928,0.432856,-30.940001,-6.580000,35.279999,21.48
1568283,0.333304,1.877336,0.464088,-45.009998,-17.780001,58.520000,21.48
1568294,0.341600,1.728496,0.471408,-53.060001,-24.570000,82.459999,21.52
1568305,0.329400,1.577704,0.479704,-57.259998,-31.639999,100.449997,21.52
1568316,0.337208,1.505480,0.455304,-60.619999,-36.610001,117.110001,21.46
1568327,0.324032,1.497672,0.393328,-68.879997,-45.220001,128.589996,21.49
1568338,0.340136,1.488400,0.343552,-86.660004,-49.980000,138.389999,21.49
1568349,0.363560,1.403488,0.291336,-101.919998,-48.230000,147.839996,21.47
1568360,0.335256,1.311744,0.263520,-119.839996,-50.400002,155.610001,21.47
1568371,0.334768,1.201456,0.255224,-134.259995,-53.340000,164.990005,21.48
1568382,0.354776,1.042856,0.260592,-138.600006,-54.880001,171.149994,21.45
1568393,0.359168,0.866688,0.275720,-132.440002,-56.840000,174.229996,21.45
1568403,0.375760,0.814960,0.307440,-120.260002,-62.020000,177.660004,21.47
1568414,0.397232,0.771528,0.291824,-114.169998,-67.480003,182.699997,21.47
1568425,0.428952,0.732976,0.251320,-108.500000,-69.860001,181.020004,21.48
1568436,0.466040,0.736392,0.191296,-113.820000,-70.070000,181.649994,21.45
1568447,0.492880,0.675880,0.124928,-141.470001,-69.370003,180.809998,21.45
1568458,0.511424,0.560224,0.081496,-143.220001,-68.669998,177.940002,21.46
1568469,0.537288,0.479704,0.094672,-153.860001,-66.570000,173.880005,21.46
1568480,0.548512,0.360144,0.115168,-153.509995,-64.540001,168.279999,21.43
1568491,0.553392,0.228872,0.166896,-146.369995,-63.770000,160.649994,21.43
1568502,0.578280,0.148840,0.172752,-130.270004,-64.260002,153.020004,21.46
1568513,0.608536,0.142008,0.180560,-121.660004,-64.540001,147.350006,21.43
1568524,0.630984,0.115168,0.159088,-119.070000,-64.120003,140.350006,21.43
1568535,0.650016,0.057584,0.115656,-119.279999,-64.470001,135.520004,21.46
1568546,0.684176,-0.042944,0.063440,-112.419998,-63.980000,129.639999,21.46
1568557,0.718824,-0.119560,0.061976,-103.040001,-58.730000,118.160004,21.48
1568568,0.728584,-0.147864,0.048312,-99.260002,-55.580002,108.500000,21.49
1568579,0.763232,-0.236680,0.028304,-93.169998,-51.939999,96.459999,21.49
1568590,0.775432,-0.308416,0.033184,-83.230003,-45.430000,87.220001,21.50
1568601,0.783728,-0.345992,0.050264,-70.349998,-39.340000,74.760002,21.50
1568612,0.793000,-0.357704,0.052216,-60.480000,-32.619999,61.529999,21.49
1568623,0.815936,-0.399184,0.022936,-47.180000,-25.549999,46.270000,21.45
1568635,0.827160,-0.476288,-0.017568,-27.719999,-15.750000,31.010000,21.45
1568646,0.818864,-0.507032,-0.041968,-6.790000,-8.820000,18.129999,21.46
1568657,0.827160,-0.496296,-0.061488,6.720000,-2.940000,1.400000,21.46
1568668,0.837408,-0.524600,-0.085888,23.660000,3.010000,-16.660000,21.52
1568679,0.819840,-0.544608,-0.088816,44.590000,7.980000,-35.770000,21.48
1568690,0.807640,-0.549976,-0.093208,64.540001,13.160000,-51.029999,21.48
1568701,0.792512,-0.548512,-0.104432,79.940002,18.830000,-70.980003,21.46
1568712,0.768600,-0.500200,-0.115168,96.599998,23.870001,-90.370003,21.46
1568723,0.744200,-0.508008,-0.123952,119.839996,32.130001,-107.309998,21.49
1568734,0.696376,-0.453840,-0.120048,143.500000,38.080002,-125.720001,21.49
1568745,0.659288,-0.360632,-0.140056,161.490005,54.669998,-150.919998,21.38
1568756,0.328912,-0.470432,-0.170312,206.220001,10.290000,-172.899994,21.46
1568768,0.743712,-0.129320,-0.088816,222.179993,81.900002,-190.610001,21.46
1568779,0.410408,-0.136152,-0.111752,242.690002,83.790001,-228.410004,21.50
1568790,0.424560,-0.099064,-0.134200,263.970001,85.050003,-240.869995,21.50
1568801,0.368928,0.136152,-0.107848,273.910004,84.139999,-263.200012,21.46
1568812,0.317688,0.449936,-0.069296,254.520004,82.389999,-276.779999,21.45
1568823,0.217160,0.694912,-0.091256,233.729996,72.099998,-283.149994,21.45
1568834,0.225944,1.048224,0.005368,199.710007,68.879997,-268.239990,21.50
1568845,0.249856,1.375184,0.085400,154.350006,66.080002,-265.369995,21.50
1568856,0.231312,1.516704,0.106384,119.209999,59.150002,-255.289993,21.53
1568867,0.219112,1.592832,0.179096,93.239998,50.540001,-245.279999,21.47
1568877,0.244976,1.587952,0.317688,65.940002,43.959999,-233.380005,21.47
1568888,0.234240,1.717272,0.439688,41.299999,35.630001,-214.199997,21.44
1568899,0.223504,1.634312,0.492392,31.780001,14.980000,-188.369995,21.44
1568910,0.379664,1.599664,0.565104,33.320000,44.660000,-144.339996,21.47
1568921,0.221552,1.782176,0.556320,31.150000,46.340000,-135.520004,21.47
1568932,0.239608,1.886120,0.489464,23.520000,21.840000,-94.639999,21.41
1568943,0.373808,1.981768,0.433832,21.980000,19.879999,-63.630001,21.47
1568954,0.364048,2.016416,0.443104,8.330000,6.510000,-35.209999,21.47
1568965,0.419680,1.965176,0.464088,-8.610000,5.250000,-13.020000,21.49
1568976,0.410408,1.841224,0.480680,-19.879999,2.170000,5.390000,21.49
1568987,0.399672,1.723616,0.493856,-27.510000,-4.830000,26.040001,21.46
1568998,0.379176,1.624064,0.486536,-30.030001,-16.100000,45.290001,21.45
1569009,0.388936,1.516704,0.448472,-32.549999,-23.240000,65.870003,21.45
1569020,0.392352,1.412760,0.405528,-32.200001,-29.260000,80.010002,21.48
1569031,0.399184,1.387384,0.372832,-36.330002,-32.900002,93.870003,21.48
1569042,0.412360,1.404952,0.352336,-44.869999,-35.139999,105.910004,21.49
1569053,0.406016,1.367376,0.311832,-58.939999,-37.099998,114.239998,21.46
1569064,0.406016,1.287344,0.284504,-72.519997,-39.619999,120.050003,21.46
1569075,0.403576,1.223416,0.258640,-84.209999,-41.650002,127.959999,21.47
1569086,0.404552,1.171200,0.264008,-102.970001,-44.310001,135.309998,21.47
1569097,0.408944,1.127768,0.249856,-123.480003,-45.919998,142.240005,21.48
1569108,0.414312,0.894504,0.273280,-121.660004,-46.759998,146.020004,21.48
1569119,0.427000,0.802760,0.300120,-110.180000,-49.910000,152.949997,21.45
1569130,0.445544,0.789096,0.301096,-102.129997,-54.389999,156.940002,21.46
1569141,0.487024,0.732976,0.262544,-91.000000,-54.950001,154.000000,21.46
1569152,0.506544,0.771040,0.231800,-107.449997,-56.490002,154.910004,21.49
1569163,0.525088,0.732976,0.172752,-101.010002,-55.860001,153.020004,21.49
1569174,0.535824,0.687104,0.161040,-122.849998,-55.439999,152.740005,21.47
1569185,0.562176,0.553880,0.169336,-136.500000,-52.779999,148.259995,21.48
1569196,0.563640,0.399184,0.214720,-133.910004,-51.029999,143.500000,21.48
1569207,0.577792,0.252296,0.255712,-123.900002,-51.310001,138.809998,21.46
1569218,0.608048,0.300608,0.268888,-111.160004,-52.009998,133.279999,21.46
1569229,0.619760,0.324520,0.280600,-102.550003,-53.830002,127.889999,21.49
1569240,0.636352,0.226920,0.249856,-93.730003,-54.180000,121.730003,21.43
1569251,0.664656,0.171288,0.221552,-88.690002,-54.529999,117.250000,21.43
1569262,0.693448,0.104432,0.168360,-87.570000,-54.040001,112.070000,21.48
1569273,0.718336,0.051728,0.149328,-88.059998,-53.200001,106.050003,21.48
1569284,0.746640,0.009760,0.153720,-81.269997,-51.240002,100.239998,21.47
1569294,0.741272,-0.013176,0.148840,-73.570000,-48.299999,93.029999,21.45
1569305,0.762256,-0.037088,0.152256,-67.620003,-45.290001,82.180000,21.45
1569316,0.770064,-0.120536,0.140544,-60.900002,-41.299999,69.019997,21.48
1569327,0.767136,-0.145424,0.140544,-52.779999,-38.430000,59.709999,21.48
1569338,0.783240,-0.185440,0.134200,-43.889999,-34.299999,46.900002,21.48
1569350,0.796904,-0.242048,0.110776,-37.730000,-28.559999,34.650002,21.48
1569361,0.810568,-0.323056,0.039528,-17.360001,-23.100000,21.980000,21.54
1569372,0.829112,-0.298656,0.005368,-2.590000,-14.980000,12.390000,21.42
1569383,0.846680,-0.280112,-0.018056,3.430000,-6.300000,-1.680000,21.42
1569394,0.840824,-0.308904,-0.036112,14.000000,2.310000,-15.890000,21.46
1569405,0.828136,-0.325984,-0.037576,28.559999,8.610000,-32.270000,21.46
1569416,0.809104,-0.377224,-0.061488,52.919998,16.309999,-45.990002,21.46
1569427,0.778848,-0.376248,-0.081008,73.290001,22.120001,-63.910000,21.41
1569438,0.773968,-0.364048,-0.096136,94.570000,27.090000,-85.680000,21.41
1569449,0.575840,-0.390888,-0.122488,124.599998,15.470000,-104.720001,21.46
1569460,0.803736,-0.354776,-0.100040,156.869995,55.650002,-120.400002,21.46
1569471,0.607072,-0.203008,-0.086864,179.550003,59.150002,-149.940002,21.42
1569482,0.620248,-0.152256,-0.093696,197.679993,68.040001,-171.220001,21.43
1569493,0.570960,-0.115168,-0.085888,220.639999,75.110001,-198.940002,21.43
1569504,0.476288,-0.046360,-0.072712,234.149994,82.320000,-219.729996,21.45
1569515,0.414800,0.047824,-0.071248,239.889999,80.989998,-239.539993,21.45
1569526,0.359656,0.273768,-0.015128,231.559998,77.910004,-260.049988,21.46
1569537,0.308416,0.546072,0.059048,203.630005,78.330002,-264.600006,21.44
1569548,0.261080,0.757864,0.128832,175.000000,79.449997,-269.500000,21.44
1569559,0.208376,1.073112,0.192760,148.960007,74.339996,-269.850006,21.48
1569570,0.174704,1.163392,0.183000,120.750000,65.519997,-269.359985,21.48
1569581,0.155672,1.322480,0.178608,90.790001,55.580002,-264.179993,21.52
1569592,0.167384,1.414712,0.094672,85.889999,52.360001,-249.270004,21.52
1569603,0.178608,1.537688,0.138592,49.770000,53.970001,-227.850006,21.48
1569614,0.149328,1.703120,0.247416,24.290001,54.459999,-193.479996,21.43
1569624,0.081984,1.856840,0.383568,14.490000,40.529999,-154.630005,21.43
1569635,0.305000,1.951024,0.554368,21.700001,66.080002,-134.610001,21.47
1569646,0.170800,2.104256,0.597312,19.040001,45.220001,-105.279999,21.47
1569657,0.219600,2.126216,0.650016,12.040000,33.320000,-71.260002,21.48
1569668,0.270840,2.041792,0.640256,7.280000,17.080000,-46.480000,21.50
1569679,0.285480,1.989576,0.647576,0.910000,3.850000,-15.750000,21.50
1569689,0.325984,1.931504,0.622688,-10.360000,-1.820000,11.760000,21.48
1569700,0.321104,1.872456,0.609024,-23.030001,-8.960000,35.349998,21.48
1569711,0.296216,1.751920,0.576328,-30.660000,-20.299999,58.590000,21.47
1569722,0.291336,1.626504,0.538264,-36.049999,-29.889999,79.940002,21.47
1569733,0.290848,1.523048,0.482632,-39.759998,-40.110001,94.220001,21.46
1569744,0.305976,1.426912,0.464088,-44.869999,-47.110001,108.360001,21.46
1569755,0.316712,1.382504,0.409920,-51.730000,-49.980000,118.650002,21.46
1569766,0.307440,1.321992,0.351360,-64.400002,-52.360001,127.540001,21.51
1569777,0.329400,1.241960,0.329400,-74.199997,-54.880001,136.080002,21.51
1569788,0.309880,1.240496,0.325984,-87.010002,-56.560001,139.020004,21.47
1569799,0.379664,1.085800,0.315248,-96.320000,-60.200001,158.550003,21.47
1569810,0.276208,1.038952,0.294752,-94.570000,-65.309998,150.779999,21.47
1569821,0.342576,0.974536,0.282064,-99.050003,-71.470001,154.000000,21.49
1569832,0.396744,0.887672,0.282552,-94.919998,-74.480003,160.089996,21.49
1569843,0.413336,0.927200,0.281088,-93.449997,-77.139999,165.759995,21.50
1569854,0.446520,0.923784,0.250344,-101.779999,-77.349998,165.410004,21.50
1569865,0.473848,0.888648,0.191784,-114.029999,-75.459999,169.470001,21.40
1569876,0.477752,0.807640,0.139080,-134.539993,-73.989998,170.029999,21.41
1569887,0.497760,0.707112,0.135664,-154.979996,-73.709999,169.190002,21.41
1569898,0.534360,0.618784,0.136640,-167.300003,-71.330002,166.740005,21.46
1569909,0.554368,0.540216,0.122488,-177.589996,-70.419998,162.470001,21.46
1569920,0.593408,0.385032,0.133712,-169.399994,-70.489998,158.339996,21.45
1569931,0.607560,0.256688,0.146400,-150.360001,-72.029999,151.970001,21.44
1569942,0.626104,0.238632,0.180072,-121.029999,-72.519997,148.119995,21.44
1569953,0.625128,0.220088,0.148352,-96.739998,-73.430000,143.990005,21.43
1569964,0.664656,0.175192,0.108824,-81.339996,-70.699997,139.789993,21.43
1569975,0.708088,0.125416,0.064904,-73.220001,-64.680000,135.520004,21.47
1569986,0.713944,0.040504,0.033672,-59.919998,-60.970001,128.169998,21.50
1569996,0.725656,0.032208,0.026352,-51.730000,-56.560001,120.260002,21.50
1570007,0.746640,0.026352,0.016104,-55.509998,-50.959999,112.070000,21.51
1570018,0.758352,-0.076616,0.020984,-59.779999,-43.610001,98.349998,21.51
1570029,0.744200,-0.165920,0.022448,-58.730000,-34.439999,87.430000,21.43
1570040,0.742736,-0.277184,-0.002928,-37.380001,-26.809999,72.519997,21.43
1570052,0.786656,-0.427976,-0.050752,-42.000000,-16.940001,55.369999,21.45
1570063,0.801296,-0.451888,-0.063928,-27.650000,-5.670000,37.730000,21.42
1570074,0.805200,-0.447008,-0.077592,-14.980000,2.450000,20.160000,21.42
1570085,0.804712,-0.471408,-0.075152,2.030000,12.880000,5.250000,21.46
1570096,0.784216,-0.530456,-0.076128,23.309999,21.910000,-14.070000,21.46
1570107,0.764208,-0.497272,-0.063928,48.230000,27.230000,-33.950001,21.41
1570118,0.748104,-0.498248,-0.064416,71.260002,32.900002,-50.889999,21.48
1570129,0.729560,-0.497272,-0.059536,97.720001,38.150002,-72.589996,21.48
1570140,0.777384,-0.470920,-0.050264,118.230003,53.759998,-92.400002,21.45
1570151,0.640256,-0.427488,-0.052704,143.500000,36.889999,-114.099998,21.45
1570163,0.715896,-0.385520,-0.081984,161.070007,71.750000,-140.000000,21.48
1570174,0.519720,-0.355264,-0.098088,184.940002,70.419998,-165.199997,21.50
1570185,0.519232,-0.358192,-0.124928,217.699997,80.290001,-189.770004,21.50
1570196,0.462136,-0.149328,-0.122000,245.839996,83.930000,-220.080002,21.47
1570207,0.360632,0.016592,-0.106384,259.209991,79.239998,-236.250000,21.47
1570218,0.306952,0.111264,-0.119560,266.769989,80.080002,-249.270004,21.51
1570229,0.264008,0.348920,-0.080032,268.380005,76.160004,-261.660004,21.49
1570239,0.223992,0.509472,-0.072224,258.649994,77.769997,-270.130005,21.49
1570250,0.173728,0.798856,-0.043432,245.350006,74.690002,-277.899994,21.50
1570261,0.150304,1.200968,0.046360,216.369995,70.070000,-278.739990,21.50
1570272,0.130296,1.496696,0.175680,175.979996,60.130001,-275.869995,21.46
1570283,0.122488,1.746552,0.205448,147.699997,46.340000,-270.970001,21.46
1570294,0.122976,1.589416,0.168360,126.699997,35.910000,-266.140015,21.40
1570305,0.220088,1.525488,0.223992,96.320000,22.680000,-251.649994,21.45
1570316,0.223992,1.731424,0.305976,67.410004,71.540001,-242.059998,21.45
1570326,0.051240,1.721664,0.387960,24.080000,44.029999,-202.160004,21.45
1570337,0.109800,1.850984,0.524600,23.170000,28.910000,-166.250000,21.45
1570349,0.109312,2.123776,0.586088,22.049999,15.540000,-124.389999,21.45
1570360,0.156648,2.167696,0.550464,20.230000,6.230000,-88.550003,21.45
1570371,0.254736,2.209664,0.491416,11.760000,5.390000,-56.139999,21.45
1570382,0.280112,2.169648,0.456280,-8.190000,2.380000,-31.709999,21.46
1570393,0.291824,2.049112,0.427488,-22.820000,-2.590000,-4.270000,21.46
1570404,0.277672,2.009096,0.421632,-35.910000,-13.580000,28.629999,21.48
1570415,0.245464,1.924672,0.432368,-43.750000,-23.730000,53.410000,21.45
1570426,0.263520,1.803160,0.435784,-44.939999,-30.870001,72.730003,21.45
1570437,0.261080,1.657736,0.407968,-45.009998,-35.630001,93.029999,21.46
1570448,0.250832,1.515240,0.370880,-47.529999,-39.970001,110.389999,21.46
1570459,0.250832,1.484496,0.330376,-53.619999,-45.290001,123.269997,21.50
1570470,0.244976,1.464488,0.277184,-64.400002,-51.590000,139.440002,21.50
1570481,0.236680,1.396168,0.217648,-83.160004,-57.400002,147.350006,21.46
1570492,0.296216,1.397144,0.204472,-108.290001,-54.810001,155.190002,21.48
1570503,0.282552,1.381528,0.193736,-137.479996,-54.810001,160.789993,21.48
1570514,0.273280,1.196576,0.205936,-149.800003,-55.650002,165.830002,21.49
1570525,0.288408,1.036512,0.232776,-148.470001,-56.000000,169.610001,21.49
1570536,0.312808,0.918416,0.270840,-139.929993,-57.959999,171.009995,21.46
1570548,0.327448,0.869128,0.270352,-127.260002,-64.750000,176.679993,21.42
1570559,0.360144,0.911096,0.231800,-126.910004,-69.019997,181.020004,21.42
1570570,0.392840,0.903288,0.162992,-139.860001,-71.820000,182.979996,21.47
1570581,0.432368,0.810080,0.094672,-155.679993,-70.769997,183.820007,21.47
1570592,0.459696,0.631472,0.103456,-177.660004,-70.070000,184.169998,21.49
1570603,0.473848,0.654896,0.136152,-194.600006,-66.779999,181.229996,21.47
1570614,0.497272,0.576328,0.179584,-204.750000,-66.989998,178.220001,21.47
1570625,0.511912,0.526552,0.263520,-202.509995,-67.620003,173.740005,21.48
1570636,0.520208,0.407968,0.272792,-184.100006,-70.139999,169.050003,21.48
1570647,0.556808,0.301584,0.225456,-161.630005,-72.589996,164.149994,21.48
1570659,0.597800,0.202032,0.185928,-152.600006,-72.660004,155.960007,21.45
1570670,0.639768,0.139080,0.157624,-139.720001,-70.769997,148.750000,21.45
1570681,0.659288,0.118096,0.141032,-125.650002,-71.959999,145.320007,21.47
1570692,0.676856,0.128832,0.130784,-120.610001,-73.360001,141.259995,21.47
1570704,0.706136,0.081008,0.123464,-121.029999,-69.930000,131.039993,21.42
1570716,0.721752,-0.008784,0.109800,-118.230003,-64.610001,122.639999,21.44
1570727,0.722240,-0.084424,0.139080,-113.610001,-59.990002,114.519997,21.44
1570738,0.729560,-0.115656,0.145424,-109.129997,-55.509998,105.769997,21.48
1570749,0.719800,-0.284992,0.149816,-95.760002,-51.310001,96.599998,21.48
1570762,0.745176,-0.337208,0.130296,-64.610001,-46.270000,86.730003,21.45
1570773,0.792024,-0.289384,0.097112,-54.040001,-40.459999,76.089996,21.45
1570784,0.806176,-0.322568,0.040016,-47.180000,-34.020000,65.379997,21.45
1570795,0.797880,-0.336232,-0.001952,-42.000000,-27.020000,56.840000,21.45
1570806,0.788120,-0.338184,-0.017080,-44.310001,-22.120001,45.080002,21.45
1570817,0.798368,-0.449936,-0.039040,-39.130001,-16.520000,31.010000,21.48
1570828,0.788120,-0.562176,-0.070760,-17.639999,-13.650000,15.190000,21.44
1570839,0.789584,-0.616344,-0.095160,8.470000,-9.310000,1.400000,21.44
1570850,0.799832,-0.643184,-0.116144,30.940001,-2.660000,-17.080000,21.46
1570861,0.795928,-0.672464,-0.147864,62.090000,4.200000,-36.470001,21.46
1570872,0.806664,-0.651480,-0.169336,95.410004,12.460000,-55.580002,21.50
1570883,0.784704,-0.576816,-0.168360,117.110001,21.700001,-71.680000,21.41
1570894,0.771040,-0.518256,-0.166896,127.540001,34.299999,-91.839996,21.41
1570905,0.736880,-0.477264,-0.173728,135.380005,46.619999,-111.580002,21.49
1570917,0.688080,-0.492392,-0.190320,160.300003,54.740002,-131.320007,21.49
1570928,0.645624,-0.414312,-0.205936,187.880005,64.330002,-148.960007,21.46
1570939,0.591944,-0.417728,-0.224968,217.910004,72.940002,-173.110001,21.45
1570950,0.593408,-0.394792,-0.201056,266.489990,79.379997,-181.369995,21.45
1570961,0.472384,-0.229848,-0.153232,305.200012,74.690002,-229.600006,21.42
1570972,0.552904,-0.013176,-0.135176,309.959991,137.059998,-249.690002,21.42
1570983,0.199592,0.086376,-0.101016,306.179993,106.889999,-280.489990,21.42
1570994,0.205936,0.214720,-0.084912,305.480011,96.320000,-290.429993,21.45
1571005,0.192760,0.574864,-0.003416,288.190002,98.139999,-311.359985,21.45
1571016,0.160064,0.929640,0.106384,240.520004,96.040001,-314.230011,21.42
1571027,0.090280,1.216584,0.161040,203.000000,79.730003,-311.290009,21.42
1571038,0.045872,1.264896,0.105408,171.850006,57.049999,-306.529999,21.43
1571049,0.114192,1.104344,0.003904,140.490005,60.060001,-304.500000,21.48
1571060,0.108336,1.472296,0.103456,83.510002,65.239998,-281.540009,21.48
1571071,0.048800,1.941264,0.306952,34.790001,60.759998,-253.050003,21.46
1571082,0.013664,1.949560,0.426024,8.540000,51.730000,-231.350006,21.46
1571093,-0.043432,1.907592,0.488488,5.180000,27.860001,-197.960007,21.49
1571104,0.242048,1.932968,0.598776,21.559999,76.230003,-172.270004,21.49
1571115,0.048312,1.961272,0.590968,19.950001,52.779999,-131.809998,21.47
1571126,0.173728,1.783152,0.592920,5.460000,19.250000,-149.729996,21.45
1571137,0.258640,2.062288,0.601216,21.490000,23.520000,-60.200001,21.45
1571148,0.219112,2.145736,0.605120,16.660000,8.400000,-33.529999,21.47
1571159,0.241072,2.111576,0.644648,-3.430000,0.840000,-9.240000,21.47
1571170,0.238144,2.031056,0.660752,-22.610001,-5.320000,11.830000,21.48
1571180,0.219112,1.835368,0.615368,-32.340000,-13.370000,43.959999,21.46
1571192,0.188856,1.693360,0.579744,-38.290001,-26.670000,70.629997,21.46
1571203,0.199592,1.604056,0.542168,-43.680000,-38.709999,86.379997,21.48
1571214,0.229360,1.526464,0.494344,-47.320000,-45.009998,103.110001,21.48
1571225,0.235704,1.466440,0.439200,-50.119999,-49.700001,117.250000,21.48
1571236,0.203008,1.454728,0.382592,-56.139999,-56.630001,124.320000,21.45
1571247,0.264496,1.372744,0.348432,-67.269997,-55.299999,130.759995,21.45
1571258,0.248880,1.277096,0.313784,-73.150002,-57.750000,138.110001,21.47
1571269,0.245464,1.243424,0.305488,-85.050003,-60.619999,146.020004,21.47
1571280,0.269864,1.208288,0.301584,-100.029999,-63.419998,152.250000,21.42
1571291,0.286456,1.201456,0.292312,-112.910004,-64.750000,159.460007,21.42
1571302,0.299144,1.172176,0.272792,-134.330002,-67.690002,168.419998,21.40
1571313,0.314272,1.106784,0.247416,-154.000000,-72.029999,175.070007,21.45
1571324,0.361608,0.972096,0.217160,-160.160004,-70.139999,178.009995,21.45
1571335,0.386496,0.952576,0.228384,-167.160004,-70.629997,181.089996,21.47
1571346,0.414800,0.904264,0.252296,-178.779999,-72.029999,181.440002,21.47
1571356,0.434808,0.738344,0.266448,-183.259995,-72.449997,178.360001,21.44
1571368,0.472872,0.602192,0.271328,-179.270004,-71.959999,175.210007,21.42
1571379,0.491416,0.534848,0.249368,-177.520004,-71.120003,172.619995,21.42
1571390,0.518256,0.510936,0.234240,-178.009995,-72.309998,169.610001,21.45
1571400,0.551440,0.436760,0.192760,-176.050003,-72.239998,166.669998,21.45
1571411,0.583648,0.397720,0.170312,-174.229996,-71.260002,165.270004,21.44
1571423,0.600240,0.295728,0.184464,-170.660004,-72.169998,160.300003,21.43
1571434,0.623664,0.260104,0.198128,-160.300003,-71.470001,154.699997,21.43
1571445,0.645136,0.149328,0.193248,-146.580002,-69.860001,152.389999,21.46
1571456,0.664656,0.038064,0.182512,-132.160004,-66.709999,140.699997,21.46
1571467,0.675392,-0.039040,0.174216,-119.279999,-63.770000,129.009995,21.44
1571478,0.688080,-0.064904,0.154696,-111.089996,-60.480000,119.489998,21.41
1571489,0.717360,-0.057096,0.168360,-112.559998,-55.160000,109.480003,21.41
1571500,0.740784,-0.033184,0.183488,-120.330002,-46.759998,100.730003,21.42
1571511,0.750544,-0.081496,0.156160,-133.000000,-41.299999,92.610001,21.42
1571523,0.768112,-0.195688,0.116144,-129.779999,-31.709999,86.239998,21.48
1571534,0.748592,-0.398208,0.128832,-103.599998,-25.620001,77.489998,21.48
1571545,0.755912,-0.406992,0.135176,-80.150002,-21.209999,66.290001,21.43
1571556,0.761768,-0.424560,0.109312,-53.340000,-16.730000,54.389999,21.48
1571567,0.780312,-0.451888,0.081496,-29.680000,-12.530000,44.730000,21.48
1571578,0.771040,-0.434808,0.100040,-12.530000,-9.590000,31.570000,21.45
1571589,0.762256,-0.447984,0.093208,-3.500000,-7.280000,19.600000,21.45
1571601,0.760792,-0.483608,0.062952,7.070000,-4.620000,7.700000,21.46
1571612,0.759328,-0.495808,0.058072,15.820000,-2.800000,-2.800000,21.46
1571623,0.754448,-0.520208,0.047824,28.350000,0.210000,-17.010000,21.46
1571634,0.770064,-0.553392,0.033184,44.730000,5.810000,-32.130001,21.43
1571644,0.770552,-0.585112,0.002928,71.120003,11.900000,-47.669998,21.43
1571656,0.756400,-0.596336,-0.028792,99.400002,19.600000,-59.919998,21.46
1571667,0.738832,-0.604632,-0.052704,129.779999,26.879999,-76.580002,21.44
1571678,0.711504,-0.527528,-0.067344,148.610001,36.680000,-94.709999,21.44
1571689,0.711992,-0.479704,-0.065880,166.880005,41.230000,-110.529999,21.46
1571700,0.624152,-0.409920,-0.055632,187.529999,47.880001,-128.029999,21.46
1571711,0.622688,-0.329888,-0.056608,202.929993,57.119999,-147.770004,21.45
1571722,0.560712,-0.339648,-0.062464,231.490005,62.509998,-174.160004,21.45
1571734,0.223016,-0.318664,-0.102968,267.679993,32.130001,-182.000000,21.45
1571745,0.661728,0.076128,-0.042944,297.850006,105.000000,-228.339996,21.45
1571756,0.359656,0.017080,-0.037576,308.350006,106.330002,-251.440002,21.45
1571767,0.287920,0.045872,-0.030744,327.459991,98.559998,-272.160004,21.48
1571778,0.238144,0.172752,-0.094184,345.589996,94.010002,-291.829987,21.43
1571789,0.189832,0.525088,-0.031232,330.119995,88.760002,-304.220001,21.43
1571800,0.138104,0.983808,0.048800,279.160004,81.900002,-303.799988,21.45
1571811,0.124440,1.355176,0.152256,235.059998,72.870003,-293.790009,21.45
1571821,0.053680,1.490352,0.181536,194.250000,58.730000,-290.290009,21.45
1571832,0.055632,1.403488,0.127368,151.199997,48.090000,-287.420013,21.45
1571843,0.124440,1.571360,0.128832,97.160004,48.299999,-268.239990,21.44
1571854,0.092232,1.723128,0.227408,31.219999,46.830002,-233.660004,21.45
1571866,-0.062952,1.650416,0.307440,6.300000,36.750000,-224.350006,21.45
1571876,0.197640,1.822680,0.450912,12.250000,73.010002,-192.990005,21.45
1571888,0.005368,1.975424,0.544608,13.230000,65.379997,-156.729996,21.45
1571900,-0.011224,2.047160,0.612440,13.580000,39.759998,-114.449997,21.46
1571911,0.079056,2.097424,0.633912,12.670000,26.670000,-78.120003,21.47
1571921,0.162504,2.247728,0.623176,-9.380000,-14.630000,-80.570000,21.47
1571933,0.129808,2.166720,0.603656,-4.900000,6.510000,-17.570000,21.42
1571944,0.209840,2.096448,0.628544,-13.230000,-3.920000,3.220000,21.42
1571955,0.184952,2.008608,0.612440,-28.910000,-10.850000,33.599998,21.46
1571967,0.151280,1.832440,0.600728,-42.700001,-26.250000,65.660004,21.46
1571978,0.165432,1.728008,0.576328,-51.310001,-34.650002,90.510002,21.46
1571989,0.163968,1.581120,0.564128,-58.660000,-43.119999,105.209999,21.46
1572000,0.182512,1.431792,0.531432,-60.200001,-49.419998,117.949997,21.46
1572011,0.191784,1.413736,0.477752,-64.400002,-54.110001,128.589996,21.42
1572022,0.201544,1.391288,0.404064,-75.459999,-60.759998,136.220001,21.43
1572033,0.216184,1.310280,0.372344,-85.470001,-67.269997,138.529999,21.43
1572044,0.269376,1.254648,0.321104,-96.599998,-63.349998,142.800003,21.43
1572055,0.251808,1.206336,0.326960,-110.529999,-65.099998,147.419998,21.43
1572066,0.271328,1.037000,0.356240,-110.459999,-66.849998,151.199997,21.44
1572077,0.313296,1.041392,0.386008,-109.830002,-67.410004,156.309998,21.43
1572088,0.329888,0.974536,0.379664,-112.699997,-69.019997,157.779999,21.43
1572099,0.340624,0.878400,0.359656,-103.180000,-73.570000,159.949997,21.48
1572110,0.372832,0.863760,0.313784,-98.980003,-76.580002,163.100006,21.48
1572121,0.420656,0.827648,0.277184,-104.860001,-76.089996,164.009995,21.48
1572133,0.449448,0.766648,0.257664,-112.489998,-74.970001,163.520004,21.43
1572144,0.469456,0.729560,0.240096,-127.190002,-73.779999,164.429993,21.43
1572155,0.492392,0.618296,0.262056,-135.449997,-71.540001,161.000000,21.41
1572166,0.502640,0.523136,0.283528,-135.029999,-69.860001,156.589996,21.41
1572177,0.526064,0.467016,0.266936,-134.259995,-69.440002,151.130005,21.46
1572188,0.557784,0.345504,0.262056,-123.550003,-68.250000,144.619995,21.44
1572199,0.581696,0.288896,0.243512,-108.639999,-67.900002,140.419998,21.44
1572211,0.612440,0.224480,0.194712,-97.720001,-67.129997,134.750000,21.44
1572222,0.656848,0.174704,0.165432,-92.750000,-64.330002,129.429993,21.44
1572233,0.670512,0.117120,0.153232,-86.940002,-63.000000,124.389999,21.44
1572244,0.672952,0.061000,0.147864,-82.809998,-59.150002,115.080002,21.44
1572255,0.711504,0.067832,0.171776,-82.389999,-55.369999,110.040001,21.44
1572265,0.724680,0.050264,0.191784,-81.410004,-50.470001,102.480003,21.46
1572276,0.721752,-0.015128,0.192272,-79.940002,-46.340000,91.139999,21.46
1572287,0.729072,-0.131272,0.181536,-70.769997,-42.279999,81.480003,21.45
1572299,0.740296,-0.220576,0.162992,-53.619999,-38.290001,71.260002,21.45
1572310,0.758352,-0.238144,0.135176,-41.160000,-34.160000,59.779999,21.39
1572321,0.781288,-0.223016,0.109312,-31.080000,-29.190001,49.700001,21.43
1572332,0.806664,-0.177144,0.114192,-28.840000,-21.070000,41.720001,21.43
1572343,0.808616,-0.165920,0.117120,-28.420000,-13.230000,31.360001,21.46
1572354,0.799832,-0.237656,0.127368,-20.510000,-6.440000,20.719999,21.46
1572365,0.781288,-0.263032,0.133224,-7.490000,-2.940000,10.080000,21.44
1572376,0.783728,-0.272792,0.114680,2.940000,0.280000,0.840000,21.46
1572387,0.792024,-0.281576,0.101504,11.130000,4.340000,-11.900000,21.46
1572398,0.784704,-0.286456,0.074664,20.860001,7.280000,-25.200001,21.44
1572409,0.792024,-0.302072,0.045384,31.360001,12.600000,-35.840000,21.44
1572420,0.784704,-0.346480,0.014640,48.509998,19.250000,-49.419998,21.45
1572432,0.759328,-0.332816,0.010736,68.739998,24.639999,-63.349998,21.46
1572443,0.746152,-0.240096,0.047336,80.220001,30.730000,-77.000000,21.46
1572454,0.736880,-0.193736,0.080520,91.559998,36.750000,-93.800003,21.43
1572465,0.427488,-0.116144,0.114192,98.769997,11.130000,-104.790001,21.43
1572476,0.949160,0.016104,0.168848,97.370003,79.660004,-108.919998,21.46
1572487,0.605608,0.097600,0.172752,94.150002,72.309998,-139.720001,21.40
1572498,0.623664,0.014152,0.142496,112.279999,78.050003,-140.350006,21.40
1572509,0.633912,0.028304,0.089304,146.300003,84.209999,-158.690002,21.47
1572520,0.670512,0.045384,0.015128,179.899994,101.849998,-160.089996,21.47
1572531,0.421632,0.214720,0.046360,210.419998,82.110001,-178.710007,21.43
1572542,0.506544,0.427000,0.130784,220.429993,77.769997,-184.029999,21.46
1572552,0.379176,0.495320,0.209840,236.110001,83.089996,-193.550003,21.46
1572563,0.380640,0.559248,0.224968,251.860001,77.699997,-202.509995,21.44
1572574,0.357216,0.623176,0.214232,255.289993,70.980003,-213.360001,21.44
1572585,0.352824,0.845704,0.231800,247.100006,66.290001,-220.990005,21.43
1572596,0.289872,1.128256,0.285968,221.479996,57.540001,-223.720001,21.43
1572607,0.237656,1.246840,0.264008,195.580002,44.799999,-225.119995,21.44
1572618,0.275232,1.399584,0.206424,158.970001,43.189999,-211.960007,21.45
1572629,0.301584,1.612352,0.242048,94.500000,46.619999,-190.539993,21.45
1572640,0.212280,1.630896,0.329400,39.060001,41.230000,-169.889999,21.43
1572651,0.355752,1.584048,0.448472,22.469999,64.190002,-150.009995,21.43
1572662,0.235216,1.718736,0.567544,17.010000,41.580002,-146.160004,21.43
1572673,0.059048,1.992992,0.553392,3.990000,23.030001,-118.930000,21.43
1572684,0.195200,1.775344,0.605120,10.640000,27.160000,-75.459999,21.43
1572695,0.248392,1.811944,0.573400,8.820000,9.660000,-49.139999,21.43
1572705,0.272792,1.791936,0.530456,5.110000,7.280000,-29.049999,21.43
1572716,0.298168,1.770952,0.503128,-1.540000,1.540000,-3.010000,21.47
1572728,0.298656,1.789496,0.523136,-9.030000,-4.200000,21.700001,21.47
1572738,0.291824,1.803648,0.556320,-28.000000,-13.440000,44.450001,21.36
1572750,0.285968,1.683600,0.590968,-42.070000,-24.500000,59.779999,21.50
1572760,0.300608,1.515240,0.599752,-44.380001,-31.500000,74.620003,21.50
1572771,0.300120,1.389824,0.554856,-42.139999,-37.310001,88.830002,21.46
1572782,0.296704,1.341512,0.473360,-42.840000,-44.799999,97.790001,21.46
1572794,0.295240,1.274168,0.399672,-48.020000,-52.290001,106.750000,21.44
1572805,0.357216,1.241472,0.364536,-53.549999,-52.570000,115.080002,21.44
1572816,0.349896,1.217072,0.330864,-67.410004,-52.290001,121.239998,21.44
1572827,0.341600,1.202920,0.316712,-87.989998,-54.250000,128.169998,21.43
1572838,0.378688,1.225368,0.325984,-110.669998,-54.599998,134.889999,21.43
1572849,0.377224,1.168760,0.352824,-142.660004,-55.230000,140.699997,21.45
1572860,0.498736,1.012600,0.391376,-125.160004,-59.919998,143.570007,21.38
1572871,0.397232,0.929152,0.388448,-114.730003,-63.700001,145.250000,21.38
1572882,0.424072,0.848144,0.349896,-106.190002,-67.830002,147.699997,21.46
1572893,0.445544,0.812032,0.346968,-104.440002,-72.730003,151.410004,21.46
1572904,0.465064,0.779336,0.317200,-106.680000,-74.900002,154.419998,21.43
1572915,0.493368,0.764208,0.297192,-112.910004,-74.690002,156.100006,21.43
1572926,0.516304,0.739320,0.277672,-123.760002,-74.339996,158.759995,21.43
1572937,0.534848,0.710040,0.245952,-142.449997,-73.290001,159.110001,21.43
1572948,0.569008,0.589992,0.256688,-150.009995,-71.889999,159.389999,21.43
1572959,0.572424,0.487512,0.291824,-143.149994,-72.730003,156.449997,21.41
1572970,0.580720,0.480680,0.296216,-139.369995,-73.989998,153.440002,21.41
1572981,0.606096,0.408456,0.287920,-130.970001,-74.900002,148.820007,21.41
1572992,0.597800,0.265960,0.282064,-112.559998,-75.529999,142.869995,21.41
1573003,0.627568,0.187880,0.239120,-100.029999,-76.860001,138.600006,21.41
1573014,0.673928,0.011224,0.190808,-92.540001,-74.550003,131.740005,21.42
1573025,0.689544,0.041480,0.138592,-85.330002,-72.730003,126.699997,21.42
1573036,0.704672,0.038552,0.126392,-81.620003,-72.169998,121.800003,21.43
1573047,0.719312,0.085400,0.140056,-83.160004,-71.050003,115.849998,21.45
1573058,0.730048,0.025864,0.116632,-84.070000,-66.360001,90.930000,21.45
1573069,0.749568,-0.073200,0.096136,-80.919998,-61.880001,99.680000,21.46
1573080,0.765672,-0.160064,0.085400,-76.720001,-56.560001,88.690002,21.46
1573091,0.781776,-0.349896,0.074664,-67.830002,-51.660000,76.510002,21.46
1573102,0.783240,-0.343064,0.041480,-49.139999,-44.869999,66.220001,21.41
1573113,0.797392,-0.399672,0.002440,-29.120001,-37.099998,53.340000,21.41
1573124,0.838872,-0.436272,-0.046848,-15.050000,-27.160000,39.619999,21.42
1573135,0.852048,-0.449936,-0.080520,0.490000,-15.750000,25.270000,21.42
1573147,0.847656,-0.434808,-0.109312,12.320000,-8.540000,10.430000,21.43
1573157,0.847656,-0.417240,-0.111264,22.120001,1.260000,-2.240000,21.48
1573169,0.828136,-0.438712,-0.109312,33.040001,10.850000,-18.900000,21.48
1573180,0.812032,-0.422120,-0.101504,44.799999,18.410000,-37.099998,21.43
1573191,0.801296,-0.442616,-0.093208,58.799999,24.500000,-56.000000,21.43
1573202,0.778848,-0.464088,-0.097112,80.779999,31.570000,-70.629997,21.43
1573213,0.752008,-0.437248,-0.086376,99.820000,38.709999,-89.110001,21.43
1573224,0.757864,-0.357216,-0.071248,115.989998,60.549999,-103.389999,21.45
1573235,0.610976,-0.334280,-0.066368,138.740005,33.040001,-121.309998,21.42
1573247,0.793976,-0.209840,-0.087840,145.740005,84.000000,-152.880005,21.42
1573258,0.600728,-0.248880,-0.085400,166.110001,80.849998,-153.720001,21.45
1573269,0.546560,-0.186416,-0.079544,197.820007,93.449997,-179.550003,21.45
1573280,0.526552,-0.042456,-0.051728,227.500000,101.779999,-203.419998,21.42
1573291,0.456280,0.036600,-0.025376,244.789993,94.989998,-216.160004,21.45
1573302,0.441152,0.164456,-0.015128,257.040009,89.949997,-231.139999,21.45
1573313,0.310856,0.408456,0.027328,254.940002,78.120003,-259.839996,21.40
1573324,0.335744,0.523624,0.111752,253.960007,82.949997,-257.040009,21.40
1573335,0.272304,0.737856,0.140056,238.419998,83.720001,-263.970001,21.44
1573346,0.227408,0.987712,0.203496,215.669998,72.660004,-269.709991,21.42
1573356,0.216184,1.098488,0.235216,185.500000,68.389999,-274.190002,21.42
1573368,0.178120,1.328824,0.282064,150.429993,60.340000,-273.489990,21.41
1573378,0.160064,1.426424,0.229848,117.459999,52.080002,-266.350006,21.41
1573389,0.170800,1.645536,0.200568,66.639999,49.070000,-247.800003,21.39
1573400,0.145424,1.573312,0.187880,17.290001,49.349998,-231.419998,21.42
1573411,0.063440,1.525488,0.213256,-0.840000,41.020000,-197.610001,21.42
1573422,0.186416,1.767048,0.395768,5.880000,72.730003,-164.080002,21.43
1573433,0.052704,1.939800,0.529968,3.640000,51.939999,-131.669998,21.43
1573444,0.097112,2.065704,0.638792,7.280000,38.080002,-90.510002,21.45
1573456,0.139568,2.071072,0.710040,9.590000,21.490000,-62.299999,21.45
1573467,0.184952,2.011536,0.722728,9.310000,9.240000,-32.480000,21.49
1573477,0.240096,2.035448,0.700768,4.970000,-0.560000,-10.150000,21.41
1573488,0.241072,2.057896,0.661728,-8.330000,-10.710000,17.360001,21.41
1573499,0.237168,1.963224,0.599752,-26.600000,-20.230000,46.480000,21.44
1573510,0.227408,1.865136,0.575840,-42.279999,-34.020000,70.349998,21.44
1573521,0.249856,1.710440,0.560712,-52.360001,-45.080002,94.709999,21.41
1573532,0.261080,1.557208,0.534848,-56.209999,-53.480000,114.099998,21.43
1573543,0.282064,1.489864,0.497760,-60.900002,-59.500000,128.940002,21.43
1573554,0.276208,1.392264,0.442616,-62.930000,-67.550003,137.339996,21.45
1573565,0.314760,1.362496,0.376248,-65.730003,-68.180000,144.270004,21.45
1573576,0.314272,1.332240,0.295728,-76.650002,-68.739998,149.449997,21.39
1573587,0.311344,1.273192,0.125416,-92.820000,-69.930000,154.699997,21.43
1573598,0.331352,1.235128,0.223016,-107.660004,-70.279999,162.330002,21.43
1573609,0.328424,1.155096,0.230824,-132.509995,-70.629997,168.630005,21.45
1573620,0.338672,0.959408,0.275232,-135.589996,-72.449997,171.220001,21.45
1573631,0.358680,0.807152,0.305976,-121.940002,-75.459999,175.979996,21.42
1573642,0.387472,0.829600,0.333792,-113.680000,-80.989998,182.139999,21.42
1573653,0.423584,0.778848,0.333792,-104.230003,-81.900002,177.800003,21.45
1573664,0.449936,0.727608,0.268888,-97.440002,-83.440002,178.289993,21.41
1573675,0.490440,0.704672,0.209840,-99.330002,-82.669998,180.320007,21.41
1573686,0.514840,0.685152,0.165432,-111.089996,-82.110001,181.509995,21.46
1573697,0.535824,0.661240,0.146888,-128.729996,-78.750000,179.759995,21.46
1573708,0.544608,0.685640,0.177632,-153.020004,-77.980003,181.020004,21.42
1573719,0.539728,0.608048,0.158600,-172.550003,-77.349998,176.330002,21.39
1573730,0.548024,0.313784,0.159088,-173.039993,-77.279999,169.960007,21.39
1573741,0.557296,0.147376,0.173240,-150.639999,-77.910004,167.020004,21.45
1573752,0.584136,0.094672,0.181536,-133.910004,-81.480003,162.190002,21.45
1573763,0.628056,0.070760,0.164456,-116.410004,-79.519997,153.440002,21.42
1573773,0.656848,0.018544,0.129808,-107.379997,-77.769997,149.240005,21.42
1573784,0.670024,-0.036600,0.099552,-97.300003,-76.930000,140.139999,21.42
1573795,0.691984,-0.093208,0.041480,-83.720001,-74.199997,130.619995,21.41
1573806,0.726632,-0.135664,-0.005368,-72.870003,-68.459999,121.800003,21.41
1573817,0.748592,-0.191784,-0.022448,-64.889999,-60.830002,111.580002,21.43
1573829,0.762256,-0.239120,-0.024400,-61.880001,-52.849998,101.360001,21.43
1573840,0.785192,-0.305000,-0.028304,-58.240002,-43.540001,89.809998,21.43
1573852,0.787144,-0.384544,-0.039040,-48.509998,-18.340000,76.790001,21.41
1573863,0.793488,-0.426024,-0.061488,-36.959999,-27.299999,62.160000,21.41
1573874,0.807152,-0.470432,-0.078568,-28.490000,-19.250000,50.470001,21.41
1573885,0.824720,-0.515816,-0.101992,-19.389999,-11.970000,34.790001,21.41
1573897,0.828624,-0.561688,-0.116632,-0.070000,-4.970000,18.549999,21.42
1573908,0.835456,-0.562176,-0.120536,12.670000,1.330000,1.190000,21.41
1573919,0.828624,-0.549976,-0.121024,26.809999,7.070000,-16.379999,21.41
1573930,0.814472,-0.525088,-0.117120,38.709999,13.090000,-30.240000,21.41
1573941,0.808616,-0.521184,-0.114192,54.389999,20.860001,-47.669998,21.41
1573952,0.794952,-0.494344,-0.106872,66.989998,29.330000,-65.169998,21.43
1573964,0.782752,-0.477264,-0.114680,82.669998,38.500000,-83.019997,21.38
1573974,0.764208,-0.489952,-0.113704,102.059998,45.290001,-96.879997,21.38
1573986,0.740784,-0.454816,-0.110776,123.059998,53.200001,-114.309998,21.39
1573997,0.705648,-0.366000,-0.108824,135.520004,59.150002,-133.000000,21.39
1574008,0.630984,-0.419680,-0.154208,158.059998,51.169998,-141.820007,21.43
1574019,0.854000,-0.120048,-0.067344,167.649994,95.900002,-166.110001,21.37
1574030,0.535336,-0.140544,-0.061488,184.380005,118.019997,-193.479996,21.37
1574041,0.460184,-0.087352,-0.052216,213.149994,97.370003,-202.229996,21.42
1574052,0.485072,0.026840,-0.029280,216.789993,99.889999,-222.529999,21.42
1574063,0.459696,0.146888,0.007808,226.380005,106.470001,-235.270004,21.40
1574074,0.373808,0.249856,0.031232,229.669998,96.739998,-250.600006,21.42
1574085,0.309392,0.580720,0.126880,224.000000,87.080002,-258.089996,21.42
1574095,0.249368,0.707112,0.210816,222.179993,84.629997,-258.160004,21.41
1574106,0.261568,0.889136,0.215696,216.020004,82.669998,-265.440002,21.41
1574117,0.222528,0.992104,0.173728,200.759995,75.389999,-269.079987,21.39
1574128,0.178120,1.197552,0.170800,172.270004,62.160000,-272.929993,21.42
1574139,0.168360,1.424960,0.194224,143.429993,55.930000,-269.149994,21.42
1574150,0.181536,1.629432,0.244976,87.360001,54.669998,-252.000000,21.43
1574161,0.158112,1.762168,0.342088,30.379999,54.459999,-234.220001,21.43
1574172,0.062464,1.705072,0.493856,3.430000,42.070000,-203.630005,21.44
1574183,0.175680,1.705560,0.613416,-13.790000,50.400002,-172.550003,21.44
1574193,0.115168,1.745088,0.691496,-1.820000,53.480000,-142.449997,21.42
1574204,0.112728,1.928088,0.759816,10.780000,27.440001,-103.739998,21.39
1574215,0.193248,2.054480,0.754936,19.180000,20.580000,-69.580002,21.39
1574226,0.223992,2.070096,0.717360,8.680000,5.390000,-46.549999,21.43
1574237,0.270840,2.092544,0.671488,-5.950000,-3.150000,-16.240000,21.43
1574248,0.303536,2.034472,0.617808,-28.910000,-7.490000,11.410000,21.45
1574259,0.288408,1.942728,0.574864,-45.080002,-16.100000,50.820000,21.40
1574270,0.267912,1.820240,0.563640,-56.490002,-32.480000,58.799999,21.40
1574281,0.270840,1.681648,0.554856,-64.680000,-46.480000,79.309998,21.39
1574292,0.291336,1.470832,0.536312,-62.230000,-52.570000,98.559998,21.39
1574303,0.298168,1.378112,0.522648,-54.599998,-59.849998,110.459999,21.39
1574314,0.283528,1.308328,0.496296,-51.169998,-67.900002,121.940002,21.39
1574325,0.318176,1.299544,0.425536,-52.570000,-70.699997,132.509995,21.37
1574336,0.351848,1.358104,0.344528,-66.360001,-68.320000,140.559998,21.37
1574347,0.336720,1.361520,0.271328,-96.110001,-70.419998,148.610001,21.37
1574358,0.355752,1.301984,0.201544,-123.269997,-70.980003,157.850006,21.41
1574369,0.367464,1.222440,0.159576,-155.539993,-69.160004,166.460007,21.41
1574380,0.366488,1.099464,0.198616,-177.449997,-70.209999,172.270004,21.40
1574391,0.390888,0.871568,0.279136,-175.490005,-73.290001,174.720001,21.34
1574402,0.425536,0.738344,0.345992,-154.000000,-74.199997,175.839996,21.34
1574413,0.443104,0.661240,0.348920,-128.380005,-78.050003,175.419998,21.38
1574424,0.490928,0.668560,0.308416,-91.139999,-80.150002,176.190002,21.38
1574435,0.522160,0.686616,0.225944,-98.209999,-80.080002,178.429993,21.42
1574447,0.545584,0.689056,0.165432,-102.900002,-77.070000,181.089996,21.37
1574459,0.557296,0.630496,0.095648,-115.639999,-72.730003,183.330002,21.37
1574470,0.587552,0.606096,0.112240,-130.130005,-70.209999,186.970001,21.41
1574481,0.597800,0.572424,0.125904,-148.330002,-68.949997,187.179993,21.41
1574492,0.618296,0.520696,0.153232,-166.389999,-65.660004,185.919998,21.40
1574503,0.600728,0.366488,0.184464,-167.509995,-65.239998,180.529999,21.43
1574514,0.595360,0.258640,0.234728,-161.000000,-66.290001,175.350006,21.43
1574526,0.614880,0.193248,0.250344,-153.229996,-66.779999,171.639999,21.42
1574537,0.626104,0.089792,0.212280,-148.050003,-68.250000,166.179993,21.42
1574548,0.650992,-0.029768,0.183000,-143.639999,-68.739998,161.279999,21.45
1574559,0.682712,-0.122000,0.137616,-139.229996,-66.919998,156.029999,21.43
1574570,0.695400,-0.202032,0.101504,-130.130005,-64.889999,147.979996,21.43
1574581,0.708088,-0.232288,0.131272,-123.830002,-62.930000,141.679993,21.44
1574592,0.730048,-0.221552,0.120048,-121.660004,-58.939999,131.600006,21.44
1574603,0.738832,-0.288896,0.121024,-125.300003,-54.740002,121.379997,21.43
1574614,0.743712,-0.409432,0.117608,-123.830002,-49.630001,110.320000,21.39
1574625,0.738344,-0.457256,0.082960,-121.800003,-44.099998,101.220001,21.39
1574636,0.752984,-0.527528,0.031232,-116.410004,-36.680000,87.080002,21.45
1574647,0.770552,-0.676856,-0.038064,-104.160004,-28.629999,70.699997,21.45
1574658,0.786656,-0.760792,-0.091256,-84.559998,-20.230000,52.709999,21.41
1574670,0.789096,-0.848144,-0.138104,-55.369999,-12.390000,20.020000,21.37
1574681,0.792024,-0.880840,-0.168848,-25.830000,-7.630000,20.230000,21.37
1574692,0.801296,-0.851072,-0.173240,-5.880000,-0.490000,1.470000,21.39
1574703,0.801296,-0.828624,-0.154696,14.770000,5.600000,-17.290001,21.39
1574714,0.783728,-0.817400,-0.146888,35.419998,12.600000,-50.400002,21.43
1574725,0.759816,-0.792512,-0.150304,58.869999,19.389999,-51.450001,21.41
1574737,0.751032,-0.749080,-0.152256,80.360001,26.320000,-70.139999,21.41
1574748,0.733464,-0.726632,-0.166896,102.129997,34.580002,-89.949997,21.45
1574759,0.723216,-0.646112,-0.162016,126.209999,41.299999,-109.339996,21.45
1574770,0.727608,-0.596336,-0.162504,148.539993,51.029999,-128.240005,21.43
1574781,0.677832,-0.587064,-0.158112,178.500000,60.130001,-144.479996,21.39
1574792,0.622688,-0.474336,-0.137128,198.869995,67.550003,-166.809998,21.39
1574803,0.460184,-0.307440,-0.176168,215.809998,44.730000,-183.679993,21.40
1574814,0.926224,-0.122488,-0.067832,218.259995,123.970001,-193.199997,21.40
1574825,0.447008,-0.044408,-0.020496,223.089996,128.380005,-229.110001,21.41
1574836,0.402600,-0.189832,-0.033184,259.000000,119.209999,-241.500000,21.41
1574847,0.408456,-0.007808,0.010248,302.750000,118.089996,-259.910004,21.41
1574859,0.386984,0.285968,0.153232,320.320007,115.080002,-284.410004,21.43
1574870,0.252296,0.439688,0.260104,327.529999,90.160004,-278.950012,21.43
1574881,0.245952,0.609512,0.348920,326.619995,79.660004,-282.100006,21.39
1574892,0.264008,0.788120,0.394792,317.309998,65.800003,-289.660004,21.39
1574903,0.210816,0.869616,0.414800,292.250000,56.700001,-300.579987,21.38
1574914,0.140056,1.138992,0.382104,255.500000,38.150002,-295.820007,21.40
1574924,0.145424,1.529392,0.290360,201.039993,28.980000,-277.760010,21.40
1574935,0.224480,1.670912,0.115656,117.389999,37.029999,-257.600006,21.41
1574946,0.156648,1.744600,0.083936,52.290001,42.700001,-218.820007,21.41
1574957,0.163480,1.694824,0.145424,31.709999,40.950001,-176.679993,21.40
1574968,0.209840,1.862696,0.287920,29.750000,35.490002,-146.929993,21.38
1574979,0.291824,2.069120,0.395768,28.209999,31.570000,-119.139999,21.38
1574990,0.248392,2.040328,0.522160,34.860001,21.350000,-93.309998,21.37
1575001,0.285480,1.995920,0.611952,39.759998,7.000000,-66.150002,21.37
1575012,0.349896,1.936872,0.634400,42.910000,-3.150000,-42.070000,21.39
1575023,0.347944,1.938824,0.623664,42.139999,-13.790000,-10.780000,21.39
1575034,0.364048,1.969568,0.570960,30.870001,-18.480000,20.160000,21.38
1575045,0.376248,1.947120,0.504592,12.600000,-22.330000,44.099998,21.38
1575056,0.363560,1.864160,0.454328,-9.030000,-29.469999,72.379997,21.38
1575067,0.360632,1.734352,0.426512,-26.110001,-39.759998,95.129997,21.39
1575078,0.368928,1.595760,0.395768,-42.279999,-45.500000,111.790001,21.39
1575089,0.372344,1.497672,0.342576,-55.369999,-50.820000,122.010002,21.38
1575100,0.364048,1.370792,0.321104,-64.820000,-56.910000,133.139999,21.37
1575111,0.406504,1.245864,0.279136,-67.620003,-53.200001,142.380005,21.37
1575122,0.409432,1.217072,0.239120,-70.839996,-53.689999,151.759995,21.43
1575133,0.428952,1.212192,0.202520,-80.570000,-54.880001,157.850006,21.43
1575144,0.446032,1.219024,0.145424,-95.059998,-54.180000,165.619995,21.41
1575155,0.434320,1.218536,0.157624,-122.500000,-55.930000,173.250000,21.36
1575167,0.453352,1.145824,0.167872,-152.949997,-57.049999,180.949997,21.36
1575178,0.455304,0.985760,0.197640,-159.669998,-57.610001,182.490005,21.40
1575189,0.463600,0.754448,0.228872,-148.889999,-59.360001,183.610001,21.40
1575200,0.480680,0.677832,0.204960,-137.759995,-60.689999,182.839996,21.41
1575211,0.531432,0.656360,0.180072,-133.210007,-58.380001,180.389999,21.39
1575222,0.551440,0.609512,0.161528,-139.369995,-55.160000,179.970001,21.39
1575233,0.572912,0.624152,0.164944,-150.990005,-53.480000,180.949997,21.38
1575244,0.586576,0.612928,0.109800,-172.410004,-52.570000,181.720001,21.38
1575255,0.595360,0.583648,0.109800,-193.830002,-52.639999,180.250000,21.39
1575266,0.612928,0.502640,0.082960,-213.080002,-52.849998,177.729996,21.38
1575278,0.630984,0.385520,0.102480,-223.929993,-55.790001,177.240005,21.38
1575290,0.618296,0.264984,0.115656,-229.039993,-59.360001,173.949997,21.40
1575301,0.668072,0.147376,0.136152,-223.229996,-55.930000,163.800003,21.40
1575311,0.667584,0.032696,0.162504,-210.000000,-58.730000,156.520004,21.40
1575322,0.691496,-0.029280,0.178120,-194.039993,-61.040001,155.259995,21.37
1575334,0.694424,0.017568,0.184952,-191.029999,-64.750000,148.190002,21.37
1575345,0.735904,0.050752,0.119072,-197.190002,-59.500000,139.720001,21.44
1575356,0.746640,-0.027816,0.043920,-202.929993,-50.330002,132.789993,21.44
1575367,0.738832,-0.146400,-0.049776,-202.509995,-42.279999,107.730003,21.39
1575378,0.735416,-0.321592,-0.075640,-185.990005,-34.720001,117.669998,21.38
1575390,0.741760,-0.534848,-0.052704,-145.250000,-29.889999,108.570000,21.38
1575401,0.765184,-0.521184,-0.024888,-118.019997,-27.020000,98.419998,21.40
1575412,0.794952,-0.552904,-0.030744,-95.900002,-21.280001,87.779999,21.40
1575423,0.785192,-0.586576,-0.028792,-76.930000,-14.770000,77.769997,21.38
1575434,0.776896,-0.621712,-0.033672,-61.180000,-6.510000,65.660004,21.37
1575445,0.759816,-0.668072,-0.051728,-51.520000,-3.150000,52.220001,21.37
1575457,0.871080,-0.754936,-0.081496,-37.590000,-3.430000,38.009998,21.40
1575468,0.758840,-0.832528,-0.113704,-20.719999,-1.890000,20.930000,21.40
1575480,0.766648,-0.906216,-0.127368,3.780000,0.420000,1.260000,21.38
1575491,0.777872,-0.941352,-0.117608,25.900000,5.320000,-18.410000,21.36
1575502,0.760304,-0.982832,-0.099552,55.160000,9.940000,-34.439999,21.36
1575513,0.738832,-0.990640,-0.096624,89.040001,12.810000,-52.150002,21.39
1575524,0.745176,-0.886696,-0.091744,108.430000,15.540000,-70.349998,21.39
1575535,0.760792,-0.820816,-0.082472,123.269997,21.840000,-87.849998,21.39
1575549,0.739808,-0.735904,-0.093696,141.610001,31.080000,-107.519997,21.43
1575562,0.700280,-0.652944,-0.101504,154.699997,41.160000,-123.830002,21.43
1575573,0.697352,-0.608536,-0.134688,178.500000,45.430000,-139.649994,21.41
1575584,0.632936,-0.476776,-0.138104,199.710007,47.950001,-160.440002,21.34
1575595,0.660752,-0.442128,-0.114192,224.699997,49.490002,-180.179993,21.34
1575606,0.391864,-0.494832,-0.183488,256.059998,27.930000,-190.750000,21.38
1575617,0.805200,-0.203008,-0.106872,292.179993,95.480003,-219.100006,21.38
1575628,0.476288,-0.175192,-0.119072,328.579987,103.110001,-243.529999,21.37
1575639,0.417240,-0.020496,-0.124928,358.540009,88.059998,-255.429993,21.37
1575650,0.386496,0.237168,-0.129808,373.170013,84.209999,-272.649994,21.36
1575661,0.386984,0.387472,-0.097600,377.579987,87.010002,-276.010010,21.38
1575672,0.246440,0.519232,-0.074664,362.880005,72.239998,-277.829987,21.38
1575683,0.194224,0.772992,0.023424,335.929993,52.990002,-284.829987,21.35
1575694,0.241072,0.987224,0.108336,291.549988,50.259998,-286.649994,21.35
1575705,0.212280,1.082384,0.196664,250.110001,47.669998,-289.519989,21.37
1575716,0.111752,1.148752,0.217160,214.830002,32.410000,-292.320007,21.42
1575727,0.117120,1.329312,0.077592,180.110001,22.330000,-280.209991,21.42
1575738,0.179096,1.382992,-0.041480,117.389999,27.230000,-266.839996,21.41
1575749,0.337208,1.519144,-0.068320,62.020000,51.799999,-241.990005,21.41
1575760,0.190808,1.716784,0.010736,32.130001,59.220001,-216.789993,21.36
1575771,0.081496,1.854888,0.161528,18.620001,50.330002,-185.009995,21.39
1575782,0.132248,2.065704,0.306952,16.660000,40.250000,-150.429993,21.39
1575793,0.142984,2.075464,0.392840,14.140000,26.740000,-127.260002,21.39
1575804,0.189832,1.983720,0.472872,9.870000,16.030001,-126.699997,21.39
1575815,0.225944,2.093520,0.495320,7.490000,12.250000,-79.169998,21.40
1575826,0.256200,2.015928,0.469944,5.880000,13.650000,-45.570000,21.40
1575836,0.271328,2.056920,0.478728,-4.200000,5.250000,-14.980000,21.39
1575848,0.276208,2.062776,0.479216,-15.400000,-0.420000,30.730000,21.40
1575858,0.253760,2.039840,0.497760,-32.759998,-14.420000,43.259998,21.40
1575869,0.264496,1.908080,0.510936,-42.490002,-20.370001,66.430000,21.37
1575880,0.306952,1.744600,0.495808,-50.680000,-25.129999,93.239998,21.37
1575891,0.283528,1.678232,0.478240,-62.860001,-35.700001,105.349998,21.38
1575902,0.290360,1.571360,0.415776,-73.010002,-45.430000,119.839996,21.41
1575913,0.293288,1.467416,0.340624,-79.449997,-52.430000,135.029999,21.41
1575924,0.301096,1.377624,0.314760,-85.470001,-59.709999,142.449997,21.43
1575935,0.320616,1.350784,0.304512,-90.440002,-64.889999,153.720001,21.43
1575946,0.358680,1.377136,0.291336,-106.190002,-63.139999,161.000000,21.36
1575958,0.337696,1.338096,0.272304,-130.619995,-60.549999,165.759995,21.40
1575969,0.329888,1.156560,0.267912,-154.839996,-64.889999,168.979996,21.40
1575980,0.348920,1.027728,0.207400,-165.759995,-62.299999,173.320007,21.36
1575991,0.365024,0.967216,0.174704,-180.110001,-62.020000,178.080002,21.36
1576003,0.400160,0.902312,0.174704,-188.369995,-63.560001,180.389999,21.38
1576014,0.412848,0.714432,0.193248,-176.330002,-64.260002,180.320007,21.36
1576025,0.435784,0.691984,0.237656,-160.860001,-66.290001,181.369995,21.36
1576036,0.467016,0.672464,0.232776,-155.050003,-69.160004,182.070007,21.37
1576047,0.497760,0.635864,0.199592,-154.139999,-69.510002,179.759995,21.37
1576058,0.517768,0.590968,0.156648,-160.300003,-69.650002,178.220001,21.41
1576069,0.536800,0.540216,0.132736,-173.949997,-70.139999,177.029999,21.35
1576080,0.549488,0.448960,0.110288,-188.229996,-71.540001,175.839996,21.35
1576091,0.582184,0.375760,0.141520,-206.990005,-67.199997,170.449997,21.33
1576102,0.569008,0.254736,0.128344,-222.039993,-68.529999,167.229996,21.33
1576114,0.595848,0.045872,0.142496,-221.479996,-70.910004,163.449997,21.33
1576125,0.623176,-0.001464,0.167384,-203.279999,-68.250000,157.779999,21.35
1576136,0.615856,-0.029280,0.174216,-189.910004,-71.470001,149.800003,21.35
1576147,0.638792,-0.114192,0.151280,-183.539993,-73.919998,138.039993,21.39
1576158,0.666120,-0.219112,0.090768,-167.860001,-70.699997,127.260002,21.39
1576169,0.692960,-0.263032,0.041480,-153.229996,-64.750000,120.680000,21.36
1576180,0.722240,-0.278160,0.020984,-146.720001,-59.919998,113.820000,21.36
1576191,0.743224,-0.306464,0.012200,-144.759995,-53.900002,107.099998,21.35
1576202,0.723216,-0.411872,0.000488,-132.160004,-49.279999,97.790001,21.36
1576213,0.733464,-0.478728,-0.016592,-117.739998,-44.730000,89.949997,21.36
1576224,0.757376,-0.500200,-0.023424,-91.559998,-37.660000,77.139999,21.37
1576235,0.754936,-0.601216,-0.038552,-97.230003,-32.130001,63.560001,21.37
1576247,0.760792,-0.703208,-0.081984,-74.620003,-25.059999,49.279999,21.35
1576258,0.765184,-0.773968,-0.105408,-49.070000,-18.410000,37.520000,21.34
1576269,0.777384,-0.757376,-0.127856,-29.260000,-15.190000,21.770000,21.34
1576280,0.797392,-0.752008,-0.142984,-13.580000,-9.660000,4.410000,21.38
1576291,0.805200,-0.772016,-0.137128,9.590000,-4.410000,-12.880000,21.38
1576302,0.815448,-0.754936,-0.138104,32.619999,2.870000,-26.250000,21.35
1576313,0.819840,-0.708576,-0.136640,46.759998,12.320000,-43.259998,21.37
1576324,0.819352,-0.728584,-0.130296,68.459999,19.740000,-59.220001,21.37
1576335,0.814960,-0.675392,-0.116144,89.180000,28.070000,-71.400002,21.40
1576346,0.814472,-0.598288,-0.102968,103.529999,38.290001,-86.940002,21.40
1576357,0.778360,-0.634888,-0.093208,127.260002,47.669998,-102.690002,21.39
1576368,0.742736,-0.508496,-0.081008,154.630005,51.939999,-117.250000,21.36
1576379,0.732976,-0.494344,-0.061000,181.580002,61.320000,-129.009995,21.36
1576390,0.679784,-0.488488,-0.090768,211.889999,60.759998,-146.020004,21.38
1576401,0.623664,-0.355752,-0.125416,246.399994,52.360001,-168.000000,21.38
1576412,0.408456,-0.405528,-0.187392,286.160004,22.260000,-178.639999,21.34
1576423,0.901336,0.020984,-0.081984,302.750000,102.059998,-191.729996,21.38
1576434,0.345504,-0.001464,-0.071736,316.750000,90.300003,-225.470001,21.38
1576446,0.436272,0.085888,-0.033184,339.290009,86.660004,-226.520004,21.37
1576456,0.426512,0.221552,-0.007320,353.079987,88.550003,-242.759995,21.37
1576467,0.384056,0.441152,-0.025376,344.609985,92.470001,-254.869995,21.34
1576478,0.257176,0.541192,-0.060512,333.410004,78.820000,-260.890015,21.34
1576489,0.222040,0.548024,-0.012688,322.700012,67.480003,-264.950012,21.38
1576500,0.188368,0.739320,0.092720,299.250000,57.540001,-267.119995,21.36
1576512,0.163480,1.138504,0.189344,250.389999,62.790001,-267.609985,21.36
1576523,0.135664,1.365424,0.293776,199.990005,53.900002,-264.739990,21.37
1576533,0.119072,1.321992,0.302072,156.309998,58.660000,-260.260010,21.37
1576544,0.256688,1.365424,0.269864,108.919998,53.200001,-248.710007,21.38
1576555,0.153232,1.796816,0.293776,85.610001,88.129997,-234.919998,21.35
1576566,0.065880,2.040328,0.213256,26.459999,51.169998,-209.509995,21.35
1576577,0.174216,2.056432,0.171776,-11.690000,39.200001,-182.630005,21.39
1576588,0.202032,2.053992,0.176168,-29.540001,35.419998,-152.809998,21.39
1576599,0.208864,1.978352,0.241560,-42.419998,30.660000,-117.739998,21.39
1576610,0.272304,1.928576,0.357216,-35.980000,34.090000,-90.019997,21.37
1576621,0.286456,1.941752,0.456280,-24.360001,28.980000,-58.799999,21.37
1576632,0.304024,1.976400,0.563640,-19.320000,17.780001,-32.060001,21.37
1576643,0.313784,2.009584,0.633912,-21.420000,7.000000,-5.810000,21.37
1576654,0.310368,1.994944,0.634888,-29.959999,-6.510000,16.309999,21.37
1576665,0.318176,1.916864,0.603168,-39.830002,-17.709999,43.470001,21.37
1576676,0.325008,1.719712,0.571936,-42.910000,-22.469999,66.430000,21.34
1576687,0.322568,1.624064,0.544608,-43.610001,-32.200001,104.930000,21.34
1576698,0.312320,1.555256,0.528504,-49.770000,-44.660000,104.160004,21.34
1576710,0.322568,1.489864,0.492392,-56.630001,-53.900002,118.720001,21.36
1576721,0.338672,1.415688,0.450912,-67.059998,-59.570000,131.880005,21.36
1576732,0.338672,1.387384,0.411384,-82.879997,-61.740002,141.960007,21.34
1576743,0.334768,1.310768,0.367952,-103.459999,-65.940002,147.699997,21.34
1576754,0.322080,1.248792,0.360632,-120.120003,-73.010002,155.399994,21.34
1576765,0.373808,1.158024,0.324032,-138.600006,-69.160004,160.229996,21.35
1576776,0.363072,1.007232,0.333304,-136.149994,-66.430000,160.300003,21.35
1576787,0.352824,0.766648,0.366000,-114.379997,-72.589996,161.699997,21.34
1576798,0.412360,0.741760,0.347944,-97.650002,-72.940002,163.869995,21.37
1576809,0.449936,0.762256,0.322568,-88.900002,-73.220001,165.199997,21.37
1576820,0.471896,0.763232,0.276208,-88.760002,-70.839996,167.300003,21.35
1576831,0.490928,0.694912,0.200568,-98.629997,-71.889999,171.500000,21.35
1576842,0.513864,0.706136,0.162504,-113.889999,-69.860001,173.600006,21.36
1576854,0.534848,0.654408,0.142496,-139.929993,-65.449997,173.669998,21.34
1576865,0.566568,0.639280,0.168848,-160.649994,-62.230000,174.229996,21.34
1576876,0.534848,0.527528,0.225944,-167.509995,-62.860001,169.820007,21.38
1576887,0.563152,0.400160,0.280112,-164.570007,-64.190002,165.759995,21.38
1576898,0.567056,0.294752,0.289872,-155.050003,-63.630001,158.130005,21.34
1576909,0.591944,0.192760,0.245464,-140.139999,-64.750000,154.210007,21.34
1576920,0.622200,0.120048,0.207888,-130.130005,-65.099998,148.259995,21.34
1576931,0.662216,0.099064,0.175192,-121.309998,-63.770000,143.289993,21.37
1576942,0.675392,0.097600,0.155184,-119.000000,-62.509998,139.369995,21.37
1576953,0.688080,0.057584,0.156160,-114.660004,-62.439999,133.490005,21.40
1576964,0.694424,-0.050752,0.127856,-107.940002,-62.580002,129.429993,21.40
1576975,0.714432,-0.076128,0.128832,-106.680000,-62.020000,124.180000,21.32
1576986,0.745176,-0.154208,0.143472,-103.389999,-55.580002,114.940002,21.33
1576997,0.739808,-0.232776,0.136640,-96.459999,-51.310001,103.459999,21.33
1577008,0.749080,-0.337208,0.109312,-83.440002,-46.549999,91.489998,21.39
1577019,0.754936,-0.379176,0.068320,-73.430000,-40.599998,79.169998,21.39
1577031,0.773480,-0.420656,0.019520,-65.239998,-34.650002,66.430000,21.33
1577041,0.801784,-0.458720,-0.002440,-59.360001,-24.639999,56.139999,21.32
1577053,0.802272,-0.601216,-0.029280,-37.939999,-14.560000,41.509998,21.32
1577064,0.800320,-0.654896,-0.022448,-16.100000,-7.980000,28.000000,21.33
1577075,0.805200,-0.608536,-0.008296,3.360000,-3.990000,13.650000,21.33
1577086,0.807640,-0.582184,0.000000,17.850000,0.770000,1.750000,21.34
1577097,0.796416,-0.555832,0.003904,27.370001,5.950000,-14.070000,21.34
1577108,0.796904,-0.558272,-0.001952,40.389999,10.360000,-29.959999,21.34
1577119,0.790560,-0.594384,0.002928,62.509998,15.400000,-43.259998,21.40
1577130,0.780312,-0.615856,0.001952,92.610001,18.340000,-60.060001,21.40
1577141,0.778848,-0.591944,0.002928,117.879997,22.330000,-77.279999,21.34
1577152,0.758352,-0.584624,0.004392,153.580002,25.620001,-94.919998,21.33
1577163,0.726632,-0.509960,0.025864,181.509995,29.260000,-108.989998,21.33
1577174,0.691008,-0.502152,0.019032,219.029999,32.200001,-127.120003,21.34
1577185,0.610488,-0.529480,-0.042944,255.149994,7.700000,-136.570007,21.34
1577196,0.808616,-0.350384,-0.002928,279.160004,54.320000,-165.550003,21.33
1577207,0.578768,-0.177632,0.009760,284.059998,60.970001,-180.460007,21.33
1577218,0.543632,-0.170800,-0.013664,299.529999,55.720001,-196.350006,21.33
1577230,0.477752,0.027816,-0.029768,312.899994,55.230000,-208.529999,21.39
1577241,0.453352,0.206424,-0.036600,310.100006,52.849998,-229.949997,21.39
1577252,0.410896,0.279136,-0.081984,302.609985,54.669998,-235.830002,21.32
1577263,0.346968,0.537776,-0.050264,280.350006,48.930000,-241.149994,21.32
1577274,0.329400,0.758352,-0.028792,256.059998,45.220001,-250.740005,21.32
1577284,0.341112,0.988200,-0.014640,214.339996,47.529999,-254.240005,21.32
1577295,0.348920,1.272704,0.020984,162.820007,40.880001,-256.970001,21.32
1577306,0.344528,1.372744,0.050264,124.809998,33.950001,-258.720001,21.33
1577317,0.386984,1.425448,0.126392,86.029999,17.780001,-255.360001,21.33
1577328,0.458232,1.306864,0.103456,69.160004,76.160004,-271.179993,21.32
1577339,0.253272,1.053104,-0.019032,44.029999,45.500000,-265.089996,21.39
1577350,0.257176,1.130696,0.092720,30.309999,28.420000,-229.250000,21.39
1577361,0.212280,1.418616,0.235704,25.340000,31.360001,-202.369995,21.32
1577372,0.157624,1.613328,0.381128,24.990000,22.190001,-170.800003,21.32
1577383,0.201056,1.800720,0.467992,31.850000,23.520000,-142.309998,21.36
1577394,0.284016,1.900760,0.494832,13.860000,13.650000,-162.820007,21.30
1577405,0.283528,2.141344,0.470920,10.850000,13.370000,-88.410004,21.30
1577416,0.281088,2.156960,0.462136,-2.520000,11.200000,-59.009998,21.33
1577429,0.291336,2.141832,0.448960,-27.930000,-7.770000,-24.500000,21.33
1577440,0.330376,2.007144,0.456280,-32.970001,-12.670000,6.440000,21.36
1577451,0.338672,1.907104,0.480680,-30.730000,-18.690001,38.290001,21.34
1577462,0.337696,1.856352,0.483608,-29.750000,-24.780001,57.049999,21.34
1577473,0.323544,1.713368,0.475800,-31.010000,-34.369999,79.589996,21.34
1577484,0.336232,1.611864,0.440664,-28.700001,-41.439999,102.269997,21.34
1577495,0.334280,1.602592,0.387472,-36.189999,-47.669998,120.610001,21.37
1577506,0.341112,1.559160,0.325008,-53.200001,-54.740002,131.740005,21.30
1577518,0.350384,1.480592,0.273768,-72.379997,-58.169998,148.330002,21.30
1577529,0.339648,1.418128,0.227408,-92.470001,-60.410000,156.240005,21.37
1577541,0.334280,1.281488,0.206912,-106.680000,-60.549999,163.869995,21.37
1577551,0.337696,1.135576,0.187392,-114.169998,-63.070000,167.580002,21.30
1577562,0.393816,1.024312,0.188368,-118.510002,-56.910000,173.389999,21.30
1577573,0.379664,0.917928,0.199592,-112.629997,-55.230000,174.229996,21.30
1577584,0.390888,0.845216,0.214720,-102.550003,-57.259998,177.660004,21.31
1577595,0.419192,0.830088,0.194712,-95.480003,-57.680000,181.229996,21.31
1577606,0.441152,0.829600,0.165432,-96.949997,-58.939999,184.449997,21.33
1577617,0.452864,0.772504,0.127856,-101.150002,-60.759998,186.970001,21.33
1577628,0.471896,0.616832,0.088328,-97.370003,-61.459999,188.720001,21.32
1577640,0.511912,0.577304,0.073688,-95.760002,-60.340000,189.559998,21.32
1577651,0.537776,0.569984,0.095648,-104.089996,-58.310001,189.139999,21.32
1577662,0.549000,0.555832,0.123464,-120.540001,-56.139999,186.410004,21.36
1577673,0.558272,0.460672,0.135176,-135.520004,-52.709999,180.320007,21.36
1577684,0.567056,0.402600,0.162992,-151.339996,-51.520000,174.720001,21.39
1577695,0.571448,0.193736,0.168848,-139.160004,-49.770000,167.860001,21.34
1577706,0.586576,0.074664,0.176168,-122.290001,-51.169998,161.699997,21.34
1577717,0.623176,0.073200,0.143960,-110.599998,-51.660000,154.070007,21.36
1577728,0.676368,0.039528,0.109800,-108.500000,-49.980000,147.770004,21.36
1577739,0.704184,-0.024400,0.089792,-107.379997,-48.230000,140.350006,21.34
1577750,0.713944,-0.080032,0.068320,-108.290001,-46.200001,131.039993,21.34
1577761,0.732488,-0.093208,0.048800,-115.150002,-41.439999,119.559998,21.34
1577772,0.750056,-0.115168,0.055144,-121.449997,-36.680000,107.239998,21.30
1577783,0.743712,-0.273768,0.045872,-111.580002,-32.130001,96.809998,21.30
1577794,0.764208,-0.383568,0.029768,-98.209999,-28.350000,83.440002,21.33
1577805,0.793976,-0.475312,0.033184,-80.919998,-24.150000,69.440002,21.28
1577816,0.802760,-0.505080,0.042456,-67.269997,-16.660000,57.820000,21.28
1577827,0.818864,-0.516792,0.040504,-56.700001,-8.050000,43.470001,21.32
1577838,0.815448,-0.502640,0.022448,-51.310001,0.700000,28.280001,21.32
1577849,0.825208,-0.495808,-0.015616,-48.439999,7.070000,13.720000,21.34
1577861,0.833992,-0.525088,-0.040016,-39.549999,15.610000,1.120000,21.30
1577872,0.811544,-0.566568,-0.057584,-21.629999,23.030001,-14.910000,21.30
1577883,0.805200,-0.557784,-0.056608,-6.300000,28.700001,-32.340000,21.32
1577894,0.795928,-0.575840,-0.036112,16.870001,34.439999,-51.169998,21.32
1577905,0.767136,-0.560712,-0.016592,39.549999,36.959999,-65.519997,21.36
1577916,0.759328,-0.487512,0.012688,55.090000,41.439999,-83.720001,21.30
1577927,0.747616,-0.423096,0.039040,64.330002,46.900002,-100.940002,21.30
1577938,0.739320,-0.309880,0.066368,73.709999,52.360001,-117.459999,21.29
1577950,0.778848,-0.360144,0.114192,79.519997,76.440002,-127.050003,21.29
1577961,0.805200,-0.309880,0.096136,97.440002,67.620003,-146.789993,21.32
1577972,0.716384,-0.125904,0.081984,105.349998,106.260002,-167.929993,21.32
1577983,0.516792,-0.039040,0.133712,115.849998,105.419998,-187.320007,21.37
1577994,0.607072,0.003416,0.193248,126.349998,97.300003,-191.520004,21.29
1578005,0.583160,0.064416,0.257176,139.369995,102.550003,-212.729996,21.29
1578016,0.506544,0.058072,0.278648,154.979996,100.169998,-219.729996,21.37
1578027,0.463112,0.091744,0.339160,185.919998,91.559998,-225.190002,21.37
1578037,0.418216,0.386984,0.408456,209.160004,83.230003,-229.880005,21.36
1578049,0.419680,0.631960,0.440176,206.570007,75.669998,-236.320007,21.29
1578060,0.398696,0.737368,0.395280,207.479996,65.169998,-247.169998,21.29
1578071,0.367952,0.831552,0.337696,196.279999,57.610001,-268.450012,21.30
1578082,0.275232,0.852536,0.269864,178.360001,49.139999,-252.770004,21.30
1578092,0.281088,1.127280,0.154696,151.270004,54.320000,-233.169998,21.35
1578103,0.234728,1.349808,0.133224,102.760002,46.200001,-206.360001,21.33
1578114,0.351848,1.554280,0.250832,76.790001,87.570000,-191.800003,21.33
1578125,0.208376,1.676280,0.379176,58.310001,59.080002,-161.070007,21.32
1578136,0.253272,1.701656,0.492392,51.590000,49.349998,-139.440002,21.32
1578147,0.281088,1.709464,0.563152,40.669998,31.430000,-142.449997,21.32
1578158,0.258640,1.710928,0.621224,42.139999,26.389999,-98.629997,21.32
1578169,0.309880,1.727032,0.622200,43.959999,23.590000,-74.900002,21.33
1578180,0.304024,1.799744,0.610000,32.900002,17.360001,-52.360001,21.32
1578191,0.313296,1.846104,0.609512,19.809999,9.730000,-24.080000,21.32
1578201,0.325008,1.836344,0.605608,1.540000,0.420000,3.500000,21.32
1578213,0.349896,1.828536,0.587064,-19.879999,-10.010000,24.080000,21.32
1578224,0.348432,1.746552,0.570472,-39.340000,-20.510000,46.689999,21.31
1578235,0.362096,1.629432,0.567056,-49.840000,-27.440001,65.589996,21.36
1578246,0.368928,1.530856,0.553880,-57.889999,-34.439999,81.970001,21.36
1578257,0.374784,1.370792,0.532408,-56.630001,-44.029999,95.339996,21.32
1578268,0.398696,1.227808,0.515816,-45.639999,-50.959999,103.739998,21.32
1578280,0.410408,1.194136,0.472384,-37.099998,-55.020000,113.540001,21.32
1578291,0.409920,1.179984,0.454816,-35.700001,-58.730000,122.919998,21.37
1578302,0.426512,1.192184,0.445544,-40.180000,-59.290001,132.440002,21.37
1578313,0.448960,1.208288,0.437736,-50.049999,-57.330002,139.509995,21.34
1578324,0.461648,1.146800,0.420168,-60.200001,-58.380001,146.860001,21.34
1578335,0.473360,1.070184,0.400648,-67.480003,-56.560001,149.100006,21.31
1578346,0.472872,0.936960,0.371368,-70.980003,-57.259998,150.289993,21.30
1578358,0.484096,0.855464,0.370880,-66.570000,-58.590000,153.229996,21.30
1578369,0.492392,0.828136,0.354288,-67.269997,-60.200001,154.979996,21.34
1578380,0.511912,0.728096,0.317200,-71.470001,-61.250000,156.449997,21.34
1578391,0.525576,0.608536,0.304512,-73.430000,-62.020000,158.759995,21.32
1578402,0.535336,0.540216,0.298168,-76.089996,-64.050003,160.649994,21.34
1578413,0.564616,0.551440,0.298168,-82.110001,-65.730003,163.449997,21.34
1578424,0.573400,0.607072,0.287920,-94.500000,-65.940002,163.449997,21.32
1578435,0.593896,0.579256,0.231800,-111.230003,-65.309998,162.119995,21.32
1578446,0.593896,0.491416,0.185440,-123.339996,-64.190002,160.089996,21.34
1578457,0.610000,0.323056,0.192760,-120.470001,-62.090000,153.860001,21.34
1578468,0.746152,0.203008,0.202520,-112.489998,-61.040001,148.679993,21.31
1578479,0.646112,0.159576,0.195688,-102.760002,-60.830002,144.130005,21.35
1578490,0.663680,0.092720,0.204960,-97.580002,-59.360001,135.100006,21.35
1578500,0.672464,0.031232,0.209840,-93.449997,-59.430000,127.610001,21.32
1578512,0.692960,-0.013176,0.190320,-88.830002,-58.939999,119.000000,21.32
1578523,0.711992,-0.043920,0.158112,-89.110001,-58.029999,112.489998,21.37
1578534,0.735416,-0.108336,0.106384,-87.430000,-56.000000,102.970001,21.32
1578545,0.742736,-0.215696,0.066368,-77.349998,-52.990002,91.910004,21.32
1578556,0.758840,-0.276208,0.036600,-60.410000,-48.369999,81.480003,21.39
1578568,0.769576,-0.297192,0.016104,-48.580002,-43.540001,63.910000,21.39
1578579,0.788120,-0.330376,-0.003416,-39.130001,-37.660000,50.750000,21.34
1578590,0.797880,-0.393328,-0.019520,-29.750000,-31.080000,34.230000,21.35
1578601,0.799344,-0.438224,-0.021960,-18.129999,-23.030001,16.940001,21.35
1578612,0.819352,-0.422120,-0.007320,-8.330000,-15.820000,-0.980000,21.33
1578623,0.837896,-0.408944,-0.004880,-3.640000,-5.250000,-15.890000,21.33
1578635,0.822768,-0.466528,-0.018056,13.020000,4.620000,-33.880001,21.32
1578646,0.815936,-0.431880,-0.017080,24.920000,12.530000,-50.889999,21.31
1578657,0.805200,-0.430904,-0.022448,37.029999,18.900000,-68.389999,21.31
1578668,0.795928,-0.342088,0.025376,51.029999,24.360001,-81.059998,21.32
1578679,0.768112,-0.281576,0.019520,56.139999,23.309999,-92.190002,21.32
1578690,0.823256,-0.225456,0.046360,63.419998,45.990002,-119.349998,21.35
1578701,0.753960,-0.200080,0.068320,66.290001,50.889999,-135.169998,21.33
1578712,0.742248,-0.191784,0.070760,76.019997,58.380001,-143.990005,21.33
1578723,0.748104,-0.040016,0.103456,87.360001,66.989998,-154.139999,21.32
1578734,0.694912,0.043920,0.116632,97.510002,71.540001,-164.080002,21.32
1578744,0.619272,0.052216,0.116144,121.589996,71.400002,-172.339996,21.32
1578755,0.610488,0.113216,0.128344,141.750000,75.320000,-183.259995,21.32
1578766,0.586576,0.161040,0.137128,169.539993,73.709999,-196.000000,21.33
1578777,0.554368,0.242536,0.154696,189.979996,72.099998,-206.080002,21.32
1578788,0.523624,0.358680,0.189344,200.550003,70.769997,-218.539993,21.32
1578799,0.493368,0.502640,0.213744,206.080002,70.070000,-227.850006,21.34
1578810,0.441152,0.579256,0.253272,207.130005,64.260002,-236.600006,21.34
1578821,0.386984,0.596336,0.185928,208.460007,62.720001,-244.509995,21.39
1578832,0.343064,0.788120,0.061976,196.630005,56.419998,-237.860001,21.32
1578843,0.366976,1.078480,0.016592,147.490005,55.439999,-229.110001,21.32
1578854,0.354776,1.383968,0.042944,94.849998,59.919998,-212.169998,21.34
1578864,0.318664,1.588440,0.143472,55.790001,57.470001,-193.690002,21.34
1578875,0.225944,1.674816,0.304512,15.540000,43.750000,-173.600006,21.35
1578886,0.396744,1.795840,0.477264,2.590000,73.290001,-163.660004,21.35
1578897,0.251808,1.811456,0.607072,-10.500000,48.230000,-141.399994,21.31
1578908,0.269376,1.736792,0.656360,-9.170000,35.840000,-114.449997,21.33
1578920,0.285968,1.716784,0.622200,-3.780000,19.950001,-83.860001,21.33
1578931,0.338184,1.744112,0.575352,-2.380000,8.610000,-60.130001,21.32
1578942,0.357704,1.832440,0.552416,-5.740000,2.520000,-30.730000,21.32
1578953,0.344528,1.806088,0.544120,-5.670000,1.400000,4.970000,21.31
1578964,0.360144,1.796816,0.543144,-12.390000,-10.010000,27.160000,21.29
1578975,0.366000,1.771440,0.547048,-23.660000,-24.150000,53.619999,21.29
1578986,0.395768,1.661152,0.532896,-37.029999,-33.389999,74.620003,21.34
1578997,0.408456,1.545496,0.495320,-45.500000,-35.490002,91.980003,21.34
1579008,0.400160,1.382992,0.468968,-50.540001,-40.740002,104.230003,21.34
1579019,0.384056,1.287344,0.439200,-51.799999,-48.439999,118.300003,21.30
1579030,0.393816,1.229272,0.402112,-54.669998,-52.779999,128.029999,21.30
1579041,0.421144,1.195112,0.392840,-60.689999,-49.980000,134.820007,21.30
1579052,0.392840,1.168760,0.347944,-68.669998,-53.900002,143.500000,21.30
1579063,0.389912,1.123864,0.254248,-79.029999,-55.580002,152.600006,21.34
1579074,0.423096,1.071160,0.243512,-95.620003,-56.070000,161.279999,21.30
1579085,0.440176,1.019920,0.280600,-110.040001,-58.099998,166.880005,21.30
1579096,0.459208,1.020896,0.324032,-121.029999,-61.459999,175.279999,21.30
1579107,0.466040,0.952088,0.345992,-128.869995,-64.260002,180.110001,21.30
1579118,0.485560,0.806664,0.325008,-125.510002,-68.110001,181.580002,21.32
1579129,0.495808,0.640744,0.300120,-113.260002,-70.559998,182.350006,21.32
1579140,0.507520,0.500200,0.268888,-101.849998,-72.870003,180.809998,21.30
1579151,0.543632,0.441152,0.230336,-87.220001,-72.449997,181.160004,21.29
1579162,0.557296,0.458232,0.225456,-81.129997,-73.010002,181.369995,21.29
1579173,0.578768,0.429928,0.215696,-83.790001,-72.099998,179.970001,21.33
1579184,0.599752,0.358192,0.203008,-86.870003,-71.820000,178.080002,21.33
1579195,0.617808,0.287920,0.195200,-96.459999,-72.169998,175.559998,21.32
1579206,0.660752,0.165920,0.164456,-99.260002,-70.910004,173.039993,21.28
1579217,0.705160,0.193736,0.170312,-99.540001,-70.349998,171.779999,21.28
1579228,0.730048,0.200080,0.180072,-104.019997,-66.849998,163.380005,21.29
1579239,0.731512,0.185928,0.163968,-104.230003,-64.610001,155.470001,21.29
1579250,0.742248,0.048800,0.146400,-100.940002,-61.110001,142.449997,21.31
1579261,0.744200,-0.120536,0.112240,-92.050003,-57.470001,128.729996,21.29
1579272,0.739808,-0.189832,0.092720,-80.010002,-55.369999,118.230003,21.29
1579283,0.756400,-0.271816,0.061488,-72.449997,-52.009998,103.949997,21.34
1579294,0.787632,-0.375272,0.032696,-67.410004,-47.180000,89.250000,21.34
1579305,0.794952,-0.493856,-0.018056,-52.849998,-42.630001,74.690002,21.31
1579316,0.810080,-0.524112,-0.050752,-37.099998,-35.560001,62.299999,21.31
1579327,0.831552,-0.515816,-0.066856,-24.920000,-26.040001,45.639999,21.31
1579338,0.836920,-0.538264,-0.071248,-15.890000,-16.520000,28.910000,21.33
1579349,0.829600,-0.560712,-0.065880,1.750000,-8.540000,11.900000,21.33
1579360,0.811544,-0.537776,-0.056608,20.650000,0.000000,-2.170000,21.36
1579371,0.809592,-0.480680,-0.038064,29.750000,8.820000,-20.719999,21.36
1579382,0.806664,-0.460184,-0.014152,36.400002,16.240000,-39.270000,21.30
1579393,0.791536,-0.445544,-0.006344,41.650002,20.580000,-56.490002,21.34
1579404,0.804224,-0.409432,-0.007808,45.990002,26.250000,-70.419998,21.34
1579415,0.863272,-0.386008,-0.001952,53.270000,38.150002,-79.800003,21.32
1579426,0.717848,-0.354776,-0.042944,75.599998,33.180000,-104.580002,21.32
1579437,0.803736,-0.316224,-0.081496,89.949997,59.639999,-117.669998,21.29
1579448,0.713944,-0.322568,-0.100040,111.160004,61.040001,-135.940002,21.32
1579459,0.695888,-0.296216,-0.097112,139.020004,67.690002,-150.710007,21.32
1579470,0.690032,-0.115656,-0.008784,156.729996,73.989998,-169.679993,21.35
1579481,0.637328,0.060512,0.067832,158.619995,75.389999,-180.809998,21.35
1579492,0.576816,0.118584,0.105896,167.580002,74.760002,-189.699997,21.30
1579503,0.580720,0.239120,0.134200,179.759995,74.129997,-197.539993,21.30
1579514,0.565104,0.193248,0.110776,198.520004,73.010002,-210.000000,21.30
1579525,0.530456,0.190808,0.052704,209.649994,74.339996,-220.080002,21.30
1579536,0.470432,0.292800,0.056120,213.779999,72.099998,-230.649994,21.30
1579546,0.433344,0.546072,0.155184,225.679993,65.730003,-231.559998,21.36
1579557,0.373808,0.952088,0.286944,209.020004,61.320000,-232.119995,21.36
1579568,0.348432,0.960384,0.319640,190.399994,51.730000,-237.789993,21.32
1579579,0.356728,0.990640,0.324520,177.449997,47.040001,-235.899994,21.31
1579590,0.345504,1.061400,0.269864,153.509995,40.950001,-225.750000,21.31
1579601,0.362096,1.217072,0.268400,117.110001,36.820000,-212.100006,21.29
1579612,0.312320,1.364448,0.216672,81.480003,31.920000,-191.449997,21.29
1579623,0.456768,1.481080,0.231312,61.389999,52.779999,-172.970001,21.29
1579634,0.337208,1.636752,0.278160,45.500000,58.590000,-156.100006,21.32
1579644,0.303536,1.677744,0.323544,27.580000,36.119999,-137.270004,21.32
1579655,0.357704,1.663104,0.384056,22.120001,28.209999,-117.040001,21.32
1579666,0.370392,1.675792,0.423584,20.930000,17.080000,-100.309998,21.32
1579677,0.407480,1.615280,0.419192,23.030001,12.950000,-80.010002,21.31
1579688,0.401624,1.672376,0.404064,28.209999,11.480000,-57.119999,21.31
1579699,0.378200,1.753872,0.384056,22.330000,7.630000,-32.270000,21.32
1579710,0.379176,1.775832,0.379176,6.860000,0.070000,-11.690000,21.27
1579721,0.392352,1.796816,0.402600,-11.620000,-10.780000,14.770000,21.27
1579732,0.416264,1.760704,0.411384,-26.320000,-19.389999,38.290001,21.32
1579743,0.433344,1.666520,0.408456,-38.009998,-24.219999,57.259998,21.32
1579754,0.438712,1.559160,0.406016,-42.279999,-28.840000,70.629997,21.33
1579765,0.422608,1.524512,0.357704,-48.720001,-38.080002,86.870003,21.27
1579776,0.427000,1.422032,0.300120,-60.410000,-44.380001,102.129997,21.27
1579787,0.440664,1.349808,0.276208,-68.110001,-48.230000,113.889999,21.30
1579798,0.447984,1.309304,0.264984,-77.559998,-50.189999,126.279999,21.30
1579809,0.448472,1.276120,0.245952,-88.830002,-52.709999,137.970001,21.29
1579820,0.453352,1.241960,0.263032,-110.110001,-55.580002,144.690002,21.30
1579831,0.481168,1.209264,0.258152,-128.240005,-47.599998,152.039993,21.30
1579842,0.457744,1.133136,0.203984,-155.679993,-48.720001,159.110001,21.32
1579853,0.481656,0.906216,0.197640,-174.089996,-48.930000,164.360001,21.32
1579864,0.508008,0.821304,0.232776,-163.589996,-48.930000,166.600006,21.27
1579875,0.501664,0.772992,0.279136,-149.169998,-52.080002,167.160004,21.27
1579887,0.509960,0.687104,0.294264,-133.419998,-58.029999,166.949997,21.29
1579898,0.529480,0.606096,0.260104,-116.690002,-60.270000,167.509995,21.33
1579909,0.540216,0.610000,0.191296,-105.209999,-62.299999,171.220001,21.33
1579920,0.576328,0.593408,0.150792,-107.309998,-62.860001,172.479996,21.29
1579931,0.611464,0.539728,0.126880,-113.959999,-59.220001,172.619995,21.29
1579943,0.617320,0.490440,0.118584,-120.330002,-56.910000,171.149994,21.30
1579954,0.634400,0.445056,0.117120,-132.020004,-54.180000,167.860001,21.32
1579965,0.658800,0.384056,0.135176,-143.639999,-51.660000,165.970001,21.32
1579976,0.641232,0.283040,0.165432,-153.020004,-49.139999,159.529999,21.31
1579986,0.649528,0.177144,0.174216,-153.649994,-48.580002,153.720001,21.31
1579998,0.665144,0.048800,0.179096,-138.669998,-48.930000,146.929993,21.30
1580009,0.679296,-0.063440,0.164944,-119.629997,-48.299999,141.470001,21.29
1580020,0.687592,-0.094184,0.149328,-109.760002,-49.560001,132.720001,21.29
1580031,0.710528,-0.138592,0.124928,-102.480003,-48.930000,123.059998,21.30
1580042,0.732000,-0.177144,0.105896,-98.699997,-45.849998,115.290001,21.30
1580053,0.739808,-0.243024,0.084424,-98.419998,-43.540001,105.910004,21.27
1580064,0.755912,-0.289384,0.054168,-99.260002,-37.799999,93.940002,21.31
1580074,0.766648,-0.363560,0.015616,-97.089996,-33.110001,83.930000,21.31
1580085,0.775432,-0.461648,-0.008784,-86.309998,-26.950001,70.699997,21.27
1580097,0.793488,-0.491904,0.004880,-71.959999,-20.580000,56.349998,21.27
1580108,0.800808,-0.496784,0.020984,-62.230000,-12.950000,41.580002,21.34
1580119,0.810568,-0.519720,0.033672,-50.119999,-5.320000,29.400000,21.32
1580130,0.804712,-0.570960,0.032208,-31.290001,4.270000,13.930000,21.32
1580141,0.799832,-0.600240,0.035624,-13.790000,11.200000,-1.750000,21.27
1580152,0.800808,-0.592432,0.028304,4.270000,15.400000,-18.620001,21.27
1580163,0.807152,-0.572912,0.032208,19.740000,20.860001,-31.850000,21.30
1580174,0.797392,-0.567056,0.030256,51.450001,26.180000,-49.000000,21.30
1580184,0.783728,-0.553392,0.025376,52.009998,30.379999,-65.379997,21.29
1580195,0.770552,-0.517280,0.021960,68.320000,35.419998,-79.309998,21.27
1580206,0.675392,-0.503616,-0.009272,81.480003,26.530001,-86.940002,21.27
1580217,0.806664,-0.341112,0.036600,101.080002,55.580002,-111.440002,21.24
1580228,0.732976,-0.337208,0.029280,118.160004,70.209999,-127.050003,21.24
1580239,0.722728,-0.277184,0.047336,133.910004,74.900002,-139.300003,21.30
1580250,0.689544,-0.229360,0.071248,160.720001,77.349998,-156.520004,21.25
1580261,0.654896,-0.151280,0.088816,177.520004,86.309998,-170.029999,21.25
1580272,0.597312,-0.135664,0.095648,195.089996,85.470001,-187.110001,21.31
1580282,0.550952,-0.054168,0.124440,226.869995,82.529999,-201.529999,21.31
1580293,0.529968,0.040016,0.164456,252.490005,80.570000,-208.949997,21.30
1580304,0.487024,0.246440,0.203496,274.119995,78.470001,-220.009995,21.30
1580315,0.437736,0.450912,0.234728,281.820007,72.379997,-231.279999,21.29
1580326,0.405040,0.484096,0.228384,295.049988,63.630001,-241.919998,21.27
1580337,0.378688,0.627080,0.203008,303.589996,58.380001,-252.490005,21.27
1580348,0.356240,0.740296,0.168360,297.570007,51.240002,-261.029999,21.27
1580358,0.284016,0.875960,0.134688,271.040009,40.459999,-267.470001,21.27
1580369,0.262056,1.272704,0.126392,232.610001,41.369999,-249.899994,21.31
1580380,0.255712,1.627968,0.167384,160.929993,23.799999,-231.490005,21.29
1580390,0.354288,1.904176,0.184952,107.940002,69.650002,-212.729996,21.29
1580401,0.188368,1.983720,0.203984,41.230000,52.360001,-180.949997,21.28
1580412,0.246928,1.953464,0.244488,3.500000,37.520000,-149.729996,21.28
1580423,0.305000,1.957856,0.323056,-11.270000,28.420000,-115.919998,21.27
1580433,0.328912,1.950048,0.422120,-19.180000,18.129999,-92.610001,21.27
1580444,0.391864,1.983720,0.496784,-16.309999,15.680000,-63.279999,21.31
1580455,0.388448,1.968592,0.562664,-16.520000,10.290000,-36.610001,21.28
1580466,0.375272,1.908080,0.560712,-16.030001,0.630000,-13.090000,21.28
1580477,0.376248,1.868552,0.555344,-22.820000,-13.580000,15.890000,21.27
1580489,0.400160,1.799256,0.536312,-32.759998,-28.350000,46.410000,21.27
1580500,0.427488,1.720200,0.532408,-38.220001,-35.349998,72.589996,21.34
1580511,0.447496,1.673840,0.489952,-43.820000,-37.869999,93.940002,21.27
1580521,0.443592,1.606496,0.451888,-55.230000,-43.189999,108.360001,21.27
1580532,0.433344,1.504992,0.404552,-68.669998,-50.680000,125.089996,21.26
1580544,0.433832,1.407392,0.372832,-85.820000,-57.540001,139.929993,21.26
1580555,0.439688,1.370792,0.347944,-101.849998,-61.880001,150.779999,21.29
1580566,0.454816,1.260016,0.341600,-117.180000,-54.529999,154.279999,21.30
1580577,0.431880,1.118984,0.331352,-127.470001,-57.750000,159.110001,21.30
1580588,0.436760,1.051152,0.332328,-136.149994,-59.150002,162.889999,21.29
1580599,0.450424,0.974048,0.325008,-143.710007,-60.689999,165.059998,21.29
1580610,0.459208,0.856440,0.292312,-147.490005,-62.160000,165.690002,21.31
1580621,0.458232,0.733464,0.283040,-142.729996,-66.290001,166.389999,21.31
1580632,0.467992,0.695888,0.255712,-135.240005,-70.139999,168.000000,21.30
1580643,0.491904,0.624640,0.230336,-132.020004,-72.800003,168.490005,21.27
1580654,0.507032,0.528992,0.224968,-126.910004,-73.709999,167.929993,21.27
1580665,0.524112,0.435296,0.222528,-117.949997,-74.620003,166.460007,21.27
1580675,0.549000,0.357704,0.216672,-110.250000,-75.040001,162.960007,21.27
1580686,0.578280,0.268888,0.177632,-106.400002,-73.779999,156.169998,21.31
1580697,0.610488,0.203984,0.171288,-102.830002,-70.279999,149.660004,21.32
1580708,0.616832,0.195688,0.177632,-101.290001,-68.669998,143.429993,21.32
1580719,0.635864,0.168848,0.152744,-104.860001,-66.989998,136.710007,21.29
1580729,0.666608,0.164456,0.150304,-115.849998,-64.750000,132.300003,21.29
1580740,0.663680,0.077104,0.128344,-125.720001,-61.880001,123.059998,21.29
1580751,0.679296,0.019032,0.108824,-129.919998,-61.320000,117.110001,21.29
1580762,0.713944,-0.080520,0.089304,-125.650002,-58.450001,107.940002,21.35
1580773,0.719312,-0.187880,0.075152,-115.150002,-55.580002,96.529999,21.30
1580784,0.726144,-0.290848,0.061000,-97.860001,-54.389999,85.050003,21.30
1580795,0.755912,-0.352336,0.040016,-77.209999,-52.080002,75.110001,21.27
1580806,0.778360,-0.380640,0.019520,-61.110001,-46.549999,62.930000,21.27
1580817,0.788608,-0.405528,-0.006832,-42.209999,-40.669998,51.169998,21.27
1580828,0.811544,-0.429928,-0.030256,-19.180000,-34.369999,40.320000,21.28
1580839,0.831552,-0.427000,-0.048800,-0.210000,-25.410000,31.920000,21.28
1580850,0.844240,-0.413824,-0.068320,10.430000,-16.100000,20.580000,21.26
1580861,0.851560,-0.419192,-0.083936,21.209999,-10.290000,9.030000,21.26
1580872,0.850096,-0.401136,-0.090768,27.440001,-3.500000,-1.890000,21.29
1580883,0.850096,-0.421144,-0.099064,35.139999,3.150000,-16.379999,21.29
1580894,0.847168,-0.465064,-0.093696,47.459999,8.820000,-31.920000,21.26
1580905,0.831552,-0.622200,-0.098576,69.860001,12.810000,-47.880001,21.28
1580916,0.829600,-0.472384,-0.104920,88.900002,16.240000,-61.040001,21.28
1580927,0.914024,-0.442616,-0.083448,107.169998,32.970001,-69.230003,21.30
1580938,0.765184,-0.371368,-0.096136,122.709999,18.620001,-95.410004,21.30
1580949,0.890112,-0.317200,-0.063928,128.520004,57.400002,-108.150002,21.27
1580960,0.731024,-0.255224,-0.040016,139.720001,58.380001,-127.889999,21.28
1580971,0.738344,-0.205448,-0.021472,155.539993,68.110001,-138.250000,21.28
1580982,0.702720,-0.004392,0.006344,175.630005,76.370003,-160.789993,21.30
1580993,0.626592,-0.102968,0.009760,198.589996,71.540001,-174.229996,21.30
1581004,0.599264,-0.119560,0.011224,227.080002,63.980000,-202.229996,21.28
1581015,0.516792,0.124440,0.033672,252.350006,61.040001,-205.869995,21.27
1581026,0.510448,0.257664,0.057096,261.660004,64.400002,-218.750000,21.27
1581037,0.471896,0.507520,0.084424,261.450012,59.779999,-227.990005,21.29
1581048,0.432856,0.769576,0.146400,246.820007,54.110001,-236.320007,21.29
1581059,0.421632,0.881816,0.124440,227.149994,51.799999,-242.619995,21.26
1581070,0.393816,1.062376,0.130296,196.559998,46.619999,-247.100006,21.26
1581080,0.360632,1.141432,0.073688,173.460007,39.410000,-243.179993,21.23
1581091,0.341112,1.451312,0.046848,123.830002,33.250000,-224.559998,21.26
1581102,0.402600,1.702144,0.081496,72.870003,35.000000,-200.759995,21.26
1581113,0.482144,1.707024,0.191784,35.910000,73.290001,-181.509995,21.26
1581124,0.309392,1.756800,0.307440,5.950000,58.310001,-147.350006,21.26
1581135,0.366000,1.804624,0.419192,-7.700000,40.250000,-120.959999,21.28
1581146,0.422120,1.838296,0.510448,-8.540000,31.500000,-93.029999,21.21
1581157,0.439200,1.878800,0.557784,-9.100000,22.680000,-71.260002,21.21
1581167,0.470920,1.841712,0.563152,-7.070000,18.480000,-48.650002,21.30
1581178,0.488488,1.797304,0.529968,-6.860000,14.840000,-22.889999,21.30
1581189,0.491416,1.760704,0.485560,-12.110000,6.650000,-1.750000,21.30
1581200,0.488000,1.753384,0.447984,-20.719999,-6.790000,25.830000,21.30
1581211,0.508008,1.714344,0.439688,-36.189999,-16.170000,50.820000,21.27
1581222,0.522648,1.635776,0.442616,-48.930000,-19.740000,70.559998,21.28
1581233,0.508008,1.538176,0.450424,-60.619999,-25.480000,84.209999,21.28
1581244,0.494832,1.412272,0.422120,-68.040001,-33.250000,98.000000,21.26
1581255,0.472872,1.315648,0.352824,-73.430000,-41.160000,111.019997,21.26
1581266,0.528016,1.184864,0.325008,-74.690002,-43.750000,120.959999,21.30
1581277,0.495320,1.110688,0.329400,-71.400002,-43.049999,127.190002,21.25
1581288,0.502152,1.087752,0.316712,-72.449997,-47.459999,135.729996,21.25
1581298,0.523624,1.076528,0.302560,-75.389999,-45.990002,141.750000,21.30
1581309,0.514840,1.067256,0.262056,-84.419998,-47.250000,146.580002,21.30
1581320,0.522648,1.039928,0.208376,-100.099998,-47.320000,151.410004,21.26
1581331,0.517768,0.940376,0.181536,-116.760002,-49.279999,154.839996,21.30
1581342,0.526064,0.820816,0.174216,-123.339996,-49.630001,157.289993,21.30
1581353,0.539728,0.710040,0.189344,-128.729996,-48.860001,158.479996,21.23
1581364,0.548024,0.638792,0.227408,-131.389999,-49.770000,157.429993,21.23
1581375,0.567544,0.491416,0.245464,-126.910004,-49.209999,154.839996,21.30
1581386,0.581208,0.413336,0.268888,-116.760002,-49.700001,150.779999,21.30
1581397,0.602680,0.435784,0.252296,-108.010002,-51.450001,149.100006,21.26
