timestamp_ms,ax,ay,az,gx,gy,gz,tempC
2844894,0.537776,0.373808,0.763720,141.539993,-161.000000,-7.980000,22.13
2844906,0.570472,0.410408,0.694912,153.649994,-153.089996,4.620000,22.13
2844917,0.589992,0.475312,0.617320,166.809998,-145.179993,13.020000,22.12
2844929,0.633912,0.569008,0.549000,173.809998,-136.429993,24.639999,22.12
2844940,0.678808,0.625616,0.476288,169.259995,-130.690002,35.910000,22.14
2844951,0.728584,0.579256,0.428464,158.970001,-124.529999,43.049999,22.16
2844962,0.752984,0.525088,0.391376,148.539993,-116.480003,46.200001,22.16
2844973,0.749568,0.498248,0.370880,139.369995,-110.809998,49.490002,22.16
2844984,0.748592,0.500688,0.366976,135.449997,-105.209999,52.570000,22.16
2844995,0.765184,0.487512,0.368928,133.910004,-100.660004,55.160000,22.17
2845006,0.792024,0.513864,0.343064,127.959999,-94.010002,59.360001,22.17
2845017,0.823256,0.526064,0.300120,120.330002,-86.449997,64.120003,22.12
2845028,0.841800,0.490440,0.251320,112.910004,-78.260002,66.220001,22.15
2845039,0.847656,0.441640,0.213744,101.290001,-69.230003,69.860001,22.15
2845049,0.863760,0.379176,0.176168,96.949997,-59.639999,71.400002,22.15
2845060,0.873032,0.352336,0.177144,92.050003,-49.209999,69.650002,22.15
2845071,0.838384,0.348920,0.182512,86.519997,-41.580002,68.669998,22.12
2845082,0.824232,0.353312,0.191296,83.510002,-38.849998,65.870003,22.14
2845094,0.838872,0.377712,0.195200,81.550003,-33.250000,64.540001,22.14
2845105,0.836432,0.387472,0.189832,78.190002,-31.219999,60.759998,22.14
2845115,0.850096,0.386008,0.176168,75.040001,-27.370001,57.540001,22.14
2845126,0.858880,0.370392,0.143960,72.449997,-22.750000,55.020000,22.14
2845137,0.862784,0.370880,0.133224,65.800003,-18.969999,53.549999,22.13
2845148,0.860344,0.363560,0.120048,55.790001,-15.190000,52.570000,22.13
2845159,0.863760,0.359168,0.105408,43.959999,-12.250000,52.009998,22.14
2845170,0.853512,0.370392,0.122488,28.070000,-13.230000,53.200001,22.14
2845181,0.851560,0.346480,0.148840,13.930000,-15.120000,52.080002,22.10
2845191,0.860344,0.263032,0.208376,9.030000,-16.730000,50.540001,22.10
2845202,0.866688,0.263520,0.253760,6.230000,-20.090000,49.419998,22.15
2845213,0.872544,0.275720,0.266448,6.090000,-25.760000,49.209999,22.14
2845224,0.905728,0.260592,0.253272,5.110000,-29.469999,48.650002,22.14
2845235,0.933056,0.235216,0.224480,10.290000,-29.750000,47.599998,22.13
2845246,0.940376,0.247416,0.193248,11.690000,-28.629999,48.790001,22.13
2845257,0.942816,0.253760,0.174216,11.130000,-26.809999,47.529999,22.19
2845268,0.949648,0.264496,0.113704,10.430000,-23.379999,47.110001,22.12
2845279,0.923296,0.263032,0.126880,11.830000,-22.049999,46.410000,22.12
2845289,0.931592,0.252296,0.140544,11.830000,-22.400000,46.410000,22.14
2845301,0.944280,0.196664,0.166896,13.510000,-22.889999,44.380001,22.14
2845312,0.945256,0.146400,0.176168,18.830000,-25.969999,44.029999,22.14
2845322,0.940864,0.147864,0.169336,26.950001,-28.280001,44.169998,22.14
2845333,0.944280,0.164456,0.149328,35.490002,-28.420000,44.310001,22.16
2845344,0.961360,0.154696,0.137128,41.790001,-26.180000,43.540001,22.18
2845355,0.949160,0.141520,0.126392,46.200001,-23.240000,43.470001,22.18
2845366,0.943304,0.158112,0.078568,45.779999,-21.000000,45.570000,22.15
2845377,0.941840,0.200568,0.045872,39.340000,-18.059999,47.389999,22.15
2845388,0.942816,0.230824,0.045872,29.610001,-15.050000,48.930000,22.16
2845399,0.928664,0.225456,0.060512,22.889999,-13.510000,48.509998,22.12
2845410,0.926224,0.182512,0.092232,11.410000,-14.700000,47.389999,22.12
2845421,0.928664,0.126392,0.122000,1.260000,-17.150000,45.570000,22.14
2845432,0.913048,0.093208,0.134200,-4.830000,-19.600000,43.470001,22.14
2845443,0.904264,0.082960,0.135176,-12.600000,-22.330000,42.000000,22.14
2845454,0.911096,0.042944,0.086376,-16.309999,-23.309999,40.040001,22.15
2845465,0.934520,-0.040504,0.056120,-13.300000,-21.559999,37.869999,22.15
2845476,0.930128,-0.079544,0.023912,-6.720000,-18.760000,35.560001,22.15
2845487,0.933544,-0.077592,0.000000,0.770000,-17.290001,33.250000,22.15
2845499,0.939400,-0.099064,-0.011224,9.450000,-14.840000,29.680000,22.20
2845510,0.935008,-0.153720,-0.022936,19.950001,-11.830000,24.850000,22.14
2845521,0.913048,-0.196176,-0.037576,29.260000,-10.080000,18.969999,22.14
2845532,0.908168,-0.147376,0.061976,25.690001,-10.570000,15.190000,22.18
2845542,0.921344,-0.253760,-0.095648,49.840000,-6.650000,8.190000,22.18
2845553,0.909144,-0.265960,-0.143960,59.709999,-2.240000,0.560000,22.18
2845565,0.911096,-0.266448,-0.193248,70.279999,1.470000,-7.210000,22.18
2845575,0.915488,-0.288408,-0.253272,84.699997,8.750000,-14.840000,22.15
2845587,0.918416,-0.332816,-0.301584,101.919998,17.639999,-23.940001,22.13
2845598,0.921344,-0.314272,-0.330376,111.790001,27.230000,-33.459999,22.13
2845609,0.916952,-0.297680,-0.333304,122.360001,37.520000,-43.959999,22.14
2845620,0.904264,-0.245952,-0.321104,127.470001,44.240002,-54.250000,22.14
2845631,0.862784,-0.230824,-0.294752,130.130005,50.820000,-64.050003,22.11
2845642,0.841800,-0.210816,-0.266448,128.100006,58.380001,-75.809998,22.11
2845654,0.808616,-0.195200,-0.261568,128.380005,66.360001,-90.860001,22.11
2845665,0.806664,-0.158600,-0.276696,133.910004,73.919998,-104.790001,22.16
2845676,0.801784,-0.052704,-0.273768,112.629997,75.949997,-122.150002,22.16
2845687,0.780312,-0.162504,-0.278648,144.059998,88.339996,-136.289993,22.16
2845699,0.729072,-0.150792,-0.220088,151.130005,97.720001,-153.440002,22.14
2845710,0.677344,-0.161040,-0.023424,167.929993,103.180000,-172.550003,22.14
2845721,0.628056,-0.044896,-0.033672,172.830002,109.269997,-184.240005,22.18
2845732,0.549488,0.042944,0.046848,175.770004,108.220001,-197.539993,22.18
2845743,0.537776,0.077592,0.079544,177.449997,109.199997,-205.800003,22.12
2845754,0.506056,0.219112,0.102480,168.000000,105.070000,-210.979996,22.16
2845765,0.477264,0.308904,0.049288,179.270004,105.139999,-217.000000,22.16
2845776,0.432368,0.521184,0.054168,164.500000,100.519997,-216.300003,22.13
2845788,0.389912,0.795928,0.106872,148.399994,93.519997,-210.350006,22.13
2845798,0.390400,1.025288,0.144936,123.269997,81.129997,-200.550003,22.12
2845810,0.384544,1.226344,0.253272,102.269997,68.250000,-184.589996,22.16
2845820,0.364048,1.312720,0.379664,86.660004,57.259998,-174.089996,22.16
2845831,0.406992,1.405440,0.447008,78.260002,46.549999,-154.699997,22.14
2845842,0.421144,1.660664,0.475312,69.650002,39.200001,-133.910004,22.14
2845853,0.447984,1.783640,0.488488,52.919998,29.959999,-106.959999,22.14
2845864,0.513864,1.844640,0.490928,34.720001,21.280001,-88.550003,22.14
2845875,0.560712,1.888072,0.478240,20.160000,7.420000,-57.119999,22.14
2845886,0.580720,1.919304,0.464576,5.040000,3.710000,-34.230000,22.16
2845897,0.621712,1.909544,0.437248,-13.720000,-0.980000,-19.809999,22.16
2845908,0.647576,1.842688,0.419192,-33.740002,-5.250000,-0.560000,22.17
2845920,0.651480,1.710440,0.400648,-47.950001,-8.750000,17.290001,22.17
2845931,0.640256,1.547936,0.400160,-56.560001,-13.790000,34.720001,22.13
2845941,0.629520,1.469856,0.382592,-59.709999,-19.250000,48.650002,22.13
2845952,0.621712,1.403488,0.344528,-65.169998,-28.629999,64.750000,22.13
2845963,0.616344,1.330288,0.283040,-71.959999,-32.340000,78.750000,22.15
2845974,0.602680,1.242448,0.248392,-84.349998,-40.599998,89.599998,22.15
2845985,0.604144,1.172664,0.242048,-97.089996,-46.549999,102.269997,22.15
2845996,0.552416,1.135576,0.224968,-105.419998,-52.709999,110.040001,22.16
2846007,0.589016,1.045784,0.217648,-116.760002,-53.549999,116.199997,22.16
2846019,0.599752,0.925736,0.209352,-115.919998,-53.060001,122.709999,22.15
2846030,0.603656,0.834968,0.200568,-108.080002,-52.849998,126.000000,22.15
2846041,0.605608,0.766160,0.185440,-104.230003,-50.959999,128.100006,22.12
2846052,0.616344,0.713944,0.167872,-102.269997,-51.310001,131.320007,22.14
2846063,0.625616,0.687104,0.155184,-102.760002,-50.400002,133.279999,22.14
2846074,0.613904,0.707112,0.138104,-125.440002,-51.099998,138.110001,22.15
2846085,0.617320,0.687104,0.104432,-121.309998,-54.459999,136.919998,22.15
2846095,0.639280,0.617808,0.120536,-137.690002,-58.660000,138.320007,22.15
2846106,0.633424,0.454328,0.111264,-137.270004,-60.689999,133.419998,22.15
2846118,0.655872,0.357704,0.123464,-138.880005,-59.009998,134.050003,22.14
2846129,0.657336,0.327936,0.114680,-136.429993,-58.939999,130.899994,22.11
2846140,0.656848,0.224968,0.109312,-131.529999,-59.990002,124.180000,22.11
2846150,0.691496,0.077104,0.108824,-124.389999,-59.220001,118.089996,22.15
2846161,0.709552,0.020984,0.107848,-115.779999,-55.090000,112.419998,22.15
2846172,0.714432,0.012688,0.083448,-109.339996,-50.400002,105.769997,22.16
2846184,0.752496,0.000000,0.053680,-109.970001,-46.759998,99.330002,22.13
2846194,0.766648,-0.065392,0.033184,-105.000000,-43.259998,91.209999,22.13
2846205,0.779336,-0.131272,-0.007320,-95.690002,-40.320000,84.699997,22.17
2846217,0.798856,-0.152256,-0.023912,-92.540001,-38.779999,78.260002,22.17
2846228,0.806176,-0.204472,0.013176,-94.430000,-40.599998,68.110001,22.14
2846239,0.828624,-0.313784,0.046360,-90.580002,-40.529999,56.419998,22.13
2846250,0.834480,-0.396256,0.047336,-77.349998,-39.410000,44.169998,22.13
2846261,0.836432,-0.413824,0.018056,-60.549999,-36.959999,33.459999,22.18
2846272,0.857904,-0.445056,-0.012200,-39.689999,-30.450001,18.969999,22.18
2846283,0.859856,-0.531920,-0.053680,-12.530000,-20.020000,2.310000,22.13
2846295,0.891088,-0.543632,-0.092232,24.150000,-10.780000,-10.990000,22.14
2846306,0.886696,-0.485560,-0.123952,56.070000,2.730000,-25.200001,22.14
2846321,0.903288,-0.432856,-0.142496,82.250000,18.549999,-41.299999,22.19
2846334,0.884256,-0.370880,-0.132248,95.620003,27.020000,-55.790001,22.15
2846352,0.842776,-0.291824,-0.103944,102.900002,35.630001,-73.430000,22.09
2846363,0.817400,-0.266936,-0.117120,107.589996,39.200001,-88.620003,22.09
2846376,0.804224,-0.220576,-0.069784,126.070000,40.529999,-103.669998,22.16
2846387,0.794952,-0.096624,-0.073200,130.410004,47.040001,-115.709999,22.10
2846398,0.781288,-0.117608,-0.035624,143.500000,53.830002,-136.080002,22.10
2846409,0.769088,-0.065392,-0.008296,154.279999,58.939999,-147.770004,22.09
2846420,0.703208,0.028792,0.032208,170.800003,67.269997,-161.770004,22.09
2846430,0.694424,0.068320,0.044896,183.399994,70.910004,-176.820007,22.12
2846441,0.677832,0.185928,0.091256,192.850006,73.220001,-185.570007,22.12
2846452,0.622688,0.299632,0.114192,204.679993,75.529999,-192.080002,22.13
2846463,0.605120,0.412848,0.105896,215.389999,74.480003,-193.059998,22.11
2846474,0.590968,0.574376,0.011712,212.240005,77.139999,-194.949997,22.11
2846485,0.568520,0.675392,-0.070272,202.160004,78.190002,-194.529999,22.13
2846496,0.524600,0.864736,-0.082472,192.009995,74.830002,-188.509995,22.13
2846507,0.463600,1.156560,0.005368,164.779999,68.669998,-175.210007,22.14
2846518,0.426024,1.306864,0.131272,137.270004,56.630001,-160.300003,22.13
2846529,0.416264,1.445944,0.244488,102.900002,43.889999,-142.660004,22.13
2846540,0.444080,1.538664,0.302560,82.809998,33.459999,-125.370003,22.17
2846551,0.467992,1.630896,0.355264,59.639999,30.240000,-102.410004,22.17
2846562,0.508008,1.764120,0.387960,37.520000,23.240000,-84.070000,22.14
2846573,0.547048,1.817800,0.379664,17.920000,17.360001,-62.090000,22.14
2846584,0.555832,1.807064,0.366000,3.850000,7.630000,-40.669998,22.12
2846595,0.630984,1.767536,0.371368,-12.180000,9.100000,-25.410000,22.12
2846606,0.647088,1.730448,0.378688,-27.020000,7.350000,-8.680000,22.12
2846617,0.655872,1.695800,0.390888,-40.950001,5.530000,8.890000,22.20
2846628,0.657336,1.603568,0.408944,-56.840000,1.330000,25.200001,22.20
2846639,0.632936,1.500600,0.425048,-68.110001,-5.880000,37.520000,22.16
2846650,0.635864,1.378112,0.427488,-70.489998,-13.090000,52.639999,22.10
2846661,0.630496,1.324920,0.389912,-73.500000,-19.040001,66.639999,22.10
2846672,0.626104,1.260504,0.351848,-77.349998,-24.990000,77.070000,22.12
2846683,0.628056,1.200968,0.318176,-81.550003,-31.150000,88.830002,22.12
2846694,0.618296,1.138016,0.283040,-88.620003,-35.419998,101.220001,22.18
2846705,0.613416,1.110688,0.268400,-103.040001,-38.570000,109.620003,22.13
2846716,0.619760,1.069208,0.258152,-123.199997,-41.090000,117.879997,22.13
2846727,0.609024,0.962336,0.252784,-133.490005,-43.820000,120.680000,22.13
2846738,0.625128,0.796416,0.286944,-134.820007,-45.360001,120.610001,22.13
2846748,0.619760,0.738344,0.287432,-128.240005,-45.220001,122.570000,22.13
2846760,0.614880,0.701256,0.263032,-121.169998,-47.810001,120.820000,22.13
2846771,0.643672,0.642696,0.221552,-117.809998,-47.950001,119.139999,22.11
2846782,0.654408,0.608536,0.175192,-118.089996,-47.810001,120.260002,22.11
2846792,0.650504,0.563640,0.126880,-121.029999,-47.250000,120.260002,22.11
2846803,0.658800,0.494344,0.104920,-125.370003,-45.430000,118.860001,22.14
2846814,0.647576,0.390400,0.103944,-118.019997,-43.820000,115.779999,22.14
2846825,0.684664,0.268400,0.121024,-109.760002,-39.410000,114.309998,22.13
2846837,0.691984,0.201544,0.116144,-101.500000,-38.220001,112.000000,22.14
2846847,0.704672,0.140544,0.131760,-98.279999,-38.360001,107.870003,22.14
2846858,0.724192,0.084424,0.170800,-94.010002,-40.389999,103.599998,22.16
2846870,0.721264,0.071248,0.177144,-91.489998,-39.900002,100.379997,22.16
2846880,0.738344,0.098088,0.173728,-95.269997,-41.369999,95.620003,22.14
2846891,0.753960,0.091256,0.153232,-105.699997,-42.630001,87.919998,22.14
2846902,0.747128,0.006344,0.121024,-106.540001,-45.080002,77.209999,22.14
2846913,0.791048,-0.049776,0.131760,-109.620003,-42.139999,72.660004,22.13
2846925,0.798856,-0.139080,0.125904,-102.760002,-40.320000,60.970001,22.13
2846936,0.821304,-0.182024,0.140056,-97.160004,-38.080002,50.610001,22.14
2846947,0.833992,-0.251808,0.133712,-86.169998,-33.250000,41.439999,22.13
2846958,0.848632,-0.283528,0.125416,-75.949997,-27.090000,29.959999,22.13
2846969,0.848632,-0.265472,0.134200,-69.720001,-22.959999,18.900000,22.12
2846980,0.852536,-0.276696,0.125904,-66.220001,-19.459999,7.630000,22.12
2846991,0.864248,-0.309392,0.104920,-59.639999,-15.540000,-0.280000,22.12
2847002,0.870104,-0.311832,0.100528,-56.840000,-12.180000,-10.080000,22.12
2847014,0.878888,-0.362096,0.081496,-45.360001,-7.560000,-21.910000,22.12
2847025,0.889136,-0.395280,0.061976,-25.900000,-1.120000,-32.970001,22.08
2847036,0.883280,-0.424560,0.019520,4.900000,4.340000,-45.990002,22.08
2847047,0.913048,-0.389424,-0.008784,30.660000,12.600000,-54.740002,22.14
2847058,0.907680,-0.308416,-0.013176,51.099998,20.650000,-66.849998,22.14
2847069,0.906704,-0.231800,0.020496,58.099998,27.510000,-77.629997,22.13
2847080,0.876448,-0.190320,0.061488,63.630001,31.780001,-86.309998,22.18
2847091,0.849120,-0.147864,0.091744,67.269997,36.680000,-98.139999,22.18
2847102,0.815448,-0.099552,0.128832,74.970001,44.310001,-107.029999,22.12
2847113,0.801784,-0.091256,0.147376,90.720001,50.330002,-122.919998,22.12
2847124,0.752496,-0.005368,0.111264,96.040001,46.060001,-125.230003,22.12
2847135,0.772504,0.081008,0.119072,109.480003,61.389999,-139.229996,22.13
2847146,0.731512,0.257176,0.130784,115.010002,63.770000,-145.039993,22.13
2847157,0.689056,0.365024,0.183000,118.019997,72.309998,-153.300003,22.12
2847168,0.662704,0.417728,0.188368,122.360001,77.279999,-161.490005,22.12
2847179,0.631472,0.440176,0.218136,133.419998,81.199997,-166.809998,22.14
2847190,0.602680,0.469456,0.189832,159.250000,84.910004,-169.259995,22.14
2847200,0.595848,0.563152,0.165920,178.990005,90.089996,-168.070007,22.14
2847211,0.535824,0.755424,0.124928,193.619995,89.110001,-166.460007,22.12
2847222,0.522160,0.812032,0.112240,194.179993,86.099998,-164.639999,22.12
2847233,0.492392,0.894504,0.138104,187.949997,84.769997,-161.419998,22.16
2847244,0.438712,1.046760,0.208864,174.929993,79.940002,-151.339996,22.16
2847255,0.399184,1.215608,0.321592,156.449997,70.699997,-141.820007,22.14
2847266,0.393328,1.407392,0.399672,111.860001,60.480000,-121.379997,22.13
2847277,0.362096,1.441064,0.469944,103.389999,44.520000,-103.250000,22.13
2847287,0.413824,1.466440,0.480680,86.309998,36.189999,-84.489998,22.13
2847298,0.418216,1.595760,0.472384,73.989998,28.980000,-64.820000,22.13
2847309,0.436272,1.610400,0.443592,62.439999,25.270000,-49.139999,22.12
2847320,0.498248,1.599176,0.392840,50.330002,25.690001,-39.200001,22.07
2847331,0.513864,1.572824,0.356728,39.900002,23.240000,-24.500000,22.07
2847342,0.538752,1.569408,0.390400,26.600000,23.660000,-11.690000,22.13
2847353,0.539240,1.584048,0.419192,13.090000,20.020000,-0.350000,22.13
2847363,0.531432,1.539640,0.446032,3.500000,12.110000,15.680000,22.14
2847374,0.520208,1.501576,0.437736,-5.460000,4.410000,29.049999,22.14
2847385,0.511424,1.463024,0.413824,-13.790000,-4.900000,46.340000,22.12
2847395,0.514352,1.369816,0.399184,-25.690001,-11.690000,62.720001,22.12
2847406,0.501176,1.324920,0.368440,-38.150002,-19.530001,75.459999,22.12
2847417,0.512400,1.284416,0.342088,-49.490002,-24.430000,92.050003,22.11
2847428,0.517280,1.261480,0.292312,-65.870003,-28.139999,106.540001,22.11
2847439,0.523624,1.223416,0.280112,-84.980003,-31.570000,115.779999,22.12
2847451,0.517768,1.164368,0.287432,-106.330002,-37.590000,126.139999,22.12
2847462,0.529968,1.088728,0.293776,-120.820000,-39.619999,130.479996,22.12
2847473,0.518256,0.987224,0.294752,-132.509995,-42.139999,134.610001,22.13
2847484,0.509960,0.908656,0.287432,-140.070007,-46.830002,135.589996,22.13
2847495,0.531432,0.734440,0.281576,-134.820007,-49.490002,134.330002,22.14
2847506,0.551928,0.603168,0.269376,-126.769997,-49.770000,133.839996,22.14
2847517,0.558760,0.383568,0.262056,-108.220001,-49.910000,130.059998,22.16
2847527,0.598776,0.396256,0.248392,-93.589996,-52.290001,123.129997,22.12
2847539,0.612440,0.399672,0.224968,-80.500000,-48.439999,129.710007,22.12
2847549,0.617320,0.394792,0.193248,-75.949997,-46.900002,133.139999,22.13
2847560,0.644648,0.406016,0.174704,-84.419998,-49.349998,134.190002,22.13
2847571,0.660264,0.394792,0.154696,-95.059998,-51.310001,134.820007,22.13
2847582,0.651480,0.357704,0.157136,-115.570000,-54.110001,132.929993,22.10
2847593,0.656360,0.231312,0.183000,-119.489998,-57.049999,126.629997,22.10
2847605,0.673928,0.097112,0.207400,-116.690002,-56.910000,118.860001,22.12
2847616,0.683688,0.058072,0.221552,-117.529999,-59.709999,109.900002,22.12
2847627,0.707600,-0.004392,0.246928,-126.209999,-63.279999,97.370003,22.14
2847638,0.744200,-0.079056,0.232776,-134.050003,-62.509998,87.360001,22.11
2847649,0.766648,-0.166896,0.211792,-137.899994,-61.810001,73.919998,22.11
2847660,0.783240,-0.214720,0.169824,-137.130005,-61.529999,61.529999,22.16
2847671,0.819352,-0.281576,0.095648,-126.489998,-56.490002,47.810001,22.16
2847682,0.860832,-0.426512,0.056608,-90.440002,-47.110001,33.669998,22.16
2847693,0.903776,-0.476776,0.009272,-49.910000,-32.689999,24.010000,22.16
2847704,0.873520,-0.426024,-0.026840,-17.709999,-20.090000,12.530000,22.14
2847715,0.875960,-0.401136,-0.054168,14.280000,-13.440000,-0.420000,22.11
2847726,0.879376,-0.408944,-0.066368,43.470001,-5.600000,-9.870000,22.11
2847737,0.871080,-0.423584,-0.068320,68.669998,-0.070000,-24.430000,22.11
2847748,0.896456,-0.408456,-0.042944,85.540001,5.950000,-38.570000,22.11
2847759,0.874008,-0.407480,-0.063928,105.769997,11.200000,-58.099998,22.13
2847770,0.852536,-0.414312,-0.069784,132.789993,19.250000,-73.010002,22.12
2847781,0.814472,-0.346480,-0.066856,156.800003,29.400000,-89.320000,22.12
2847792,0.764208,-0.221552,-0.069784,165.899994,36.750000,-105.559998,22.14
2847803,0.804712,-0.126392,-0.031720,160.160004,43.680000,-117.110001,22.14
2847817,0.737856,-0.038064,-0.037088,171.429993,57.049999,-135.729996,22.15
2847828,0.692472,-0.046848,-0.006832,183.750000,62.020000,-151.970001,22.15
2847839,0.674904,0.083936,-0.009760,188.160004,72.029999,-165.690002,22.15
2847849,0.594384,0.167384,-0.003904,214.899994,74.339996,-175.559998,22.13
2847860,0.560224,0.273280,0.055632,229.880005,76.089996,-188.020004,22.13
2847871,0.541192,0.401624,0.060024,244.229996,76.230003,-196.210007,22.11
2847882,0.493368,0.536312,0.101992,245.070007,71.959999,-200.270004,22.08
2847893,0.449448,0.810080,0.146400,235.059998,64.680000,-200.899994,22.08
2847904,0.454816,0.935008,0.111264,228.199997,58.029999,-197.820007,22.14
2847915,0.458720,0.919392,0.002928,234.009995,53.830002,-196.279999,22.14
2847926,0.438224,1.032120,-0.070272,224.279999,58.450001,-185.779999,22.13
2847937,0.443104,1.437160,-0.030744,184.309998,52.009998,-164.500000,22.11
2847948,0.394304,1.721664,0.054168,121.099998,39.480000,-126.349998,22.11
2847959,0.404552,1.825608,0.162504,69.089996,32.410000,-121.730003,22.12
2847970,0.430416,1.755824,0.274256,45.919998,27.510000,-93.730003,22.12
2847980,0.439688,1.765584,0.330864,32.759998,20.930000,-75.669998,22.16
2847991,0.489952,1.782176,0.350872,28.490000,13.720000,-56.490002,22.16
2848002,0.549976,1.836832,0.321104,21.209999,11.550000,-33.250000,22.12
2848013,0.588528,1.845128,0.264008,12.810000,9.310000,-16.799999,22.13
2848024,0.605120,1.808528,0.225944,2.660000,5.320000,3.990000,22.13
2848034,0.616344,1.776320,0.220088,-14.420000,1.960000,22.889999,22.12
2848045,0.606096,1.720200,0.229360,-36.680000,-3.500000,37.380001,22.12
2848056,0.600240,1.617720,0.237168,-52.919998,-11.340000,56.279999,22.10
2848067,0.587552,1.538664,0.237168,-69.580002,-16.590000,74.339996,22.12
2848078,0.563640,1.444480,0.210328,-84.000000,-22.120001,87.500000,22.12
2848089,0.529480,1.364936,0.148840,-95.059998,-26.740000,101.919998,22.13
2848100,0.519720,1.306376,0.102968,-110.389999,-30.870001,116.129997,22.13
2848111,0.510936,1.262944,0.118584,-127.750000,-35.700001,122.919998,22.14
2848122,0.534848,1.165832,0.118584,-143.220001,-37.310001,131.250000,22.14
2848133,0.538752,1.067744,0.134688,-153.649994,-37.939999,138.460007,22.11
2848144,0.545096,1.014552,0.152744,-170.309998,-38.150002,141.889999,22.10
2848155,0.542168,0.942328,0.159088,-184.380005,-40.529999,144.550003,22.10
2848166,0.548512,0.815936,0.162992,-190.679993,-42.700001,145.179993,22.11
2848177,0.557296,0.673440,0.127856,-190.679993,-45.080002,145.669998,22.11
2848188,0.575840,0.569984,0.115168,-187.179993,-44.450001,143.990005,22.11
2848199,0.584136,0.469944,0.106384,-178.639999,-47.040001,141.190002,22.11
2848210,0.609512,0.403088,0.109800,-173.320007,-48.020000,138.460007,22.11
2848221,0.631960,0.388936,0.125416,-172.130005,-49.560001,136.779999,22.14
2848232,0.636840,0.353312,0.131760,-173.529999,-50.820000,135.100006,22.14
2848243,0.644648,0.250832,0.159576,-167.649994,-53.200001,130.059998,22.11
2848254,0.648064,0.136640,0.175192,-155.259995,-54.250000,124.389999,22.16
2848265,0.657336,0.060024,0.186416,-141.679993,-56.560001,118.089996,22.16
2848276,0.689056,-0.025376,0.167872,-131.250000,-56.630001,108.570000,22.13
2848287,0.713456,-0.085888,0.150304,-130.059998,-55.509998,98.070000,22.13
2848298,0.736880,-0.123952,0.132736,-134.259995,-53.759998,88.339996,22.10
2848309,0.766648,-0.168360,0.084912,-137.130005,-50.750000,79.099998,22.17
2848320,0.796904,-0.223504,0.055144,-137.550003,-45.570000,66.849998,22.17
2848331,0.801296,-0.421144,0.068320,-109.760002,-39.830002,48.860001,22.11
2848342,0.823256,-0.474824,0.080520,-72.870003,-33.669998,36.330002,22.11
2848354,0.808128,-0.440664,0.069296,-38.639999,-24.219999,24.570000,22.14
2848364,0.825208,-0.428952,0.036112,-14.630000,-16.940001,9.380000,22.14
2848376,0.840824,-0.454328,0.016592,13.020000,-8.610000,-5.460000,22.14
2848387,0.834968,-0.453352,0.012200,37.029999,-2.520000,-21.559999,22.12
2848398,0.840824,-0.439200,0.008296,55.230000,5.390000,-34.369999,22.12
2848409,0.837896,-0.468480,0.015616,75.529999,14.000000,-51.380001,22.10
2848420,0.837896,-0.382104,0.012200,91.279999,20.580000,-65.800003,22.10
2848431,0.816912,-0.315736,0.011224,102.410004,27.299999,-78.120003,22.09
2848442,0.791048,-0.310856,0.010248,123.129997,35.139999,-94.639999,22.10
2848453,0.777872,-0.305976,0.011224,145.809998,43.540001,-109.480003,22.10
2848464,0.741272,-0.211304,-0.017080,171.500000,49.279999,-124.809998,22.12
2848475,0.728584,-0.084912,-0.025376,194.809998,57.889999,-136.429993,22.12
2848486,0.695400,-0.000976,0.000000,213.779999,62.439999,-148.539993,22.11
2848497,0.649040,0.100528,0.041480,236.740005,67.269997,-161.630005,22.12
2848507,0.609024,0.170800,0.069784,259.769989,67.129997,-170.309998,22.12
2848518,0.559736,0.300120,0.083936,278.250000,67.830002,-180.949997,22.06
2848529,0.525088,0.501176,0.113216,292.670013,64.260002,-185.570007,22.06
2848540,0.502152,0.671000,0.104432,297.989990,59.220001,-187.110001,22.16
2848551,0.480192,0.988200,0.071248,290.290009,52.709999,-181.720001,22.16
2848562,0.489952,1.081896,0.012688,264.250000,45.009998,-180.389999,22.13
2848573,0.514352,0.985272,-0.006832,250.949997,38.290001,-184.800003,22.11
2848584,0.502640,1.026752,0.002440,234.500000,42.000000,-178.289993,22.11
2848594,0.440664,1.478640,0.023424,182.559998,37.660000,-156.729996,22.12
2848605,0.431392,1.589904,0.059048,125.860001,27.440001,-145.110001,22.12
2848616,0.466040,1.673352,0.030256,89.110001,23.590000,-122.779999,22.17
2848627,0.478728,1.709464,0.042944,56.980000,22.680000,-97.089996,22.08
2848638,0.496784,1.690432,0.055144,45.290001,20.790001,-79.589996,22.08
2848648,0.519720,1.762168,0.091744,41.439999,18.549999,-57.400002,22.13
2848659,0.556808,1.796816,0.150304,38.360001,17.500000,-40.459999,22.13
2848670,0.566080,1.797304,0.178608,36.400002,13.370000,-17.780001,22.13
2848681,0.594872,1.770952,0.188368,31.920000,8.890000,5.320000,22.13
2848692,0.609024,1.721664,0.183488,23.450001,5.740000,22.469999,22.12
2848703,0.608048,1.658224,0.176656,14.280000,1.820000,42.630001,22.08
2848714,0.602192,1.602592,0.151768,-0.490000,-1.190000,61.950001,22.08
2848725,0.591944,1.557208,0.098088,-18.620001,-5.390000,76.930000,22.12
2848736,0.587064,1.519144,0.070272,-41.720001,-7.630000,93.309998,22.12
2848746,0.560712,1.459608,0.050264,-60.830002,-11.760000,107.800003,22.12
2848757,0.561688,1.357128,0.016592,-81.199997,-12.950000,115.919998,22.13
2848768,0.554856,1.247328,0.002440,-100.519997,-13.860000,125.019997,22.13
2848779,0.546072,1.154608,0.002928,-118.230003,-16.940001,132.440002,22.08
2848790,0.536312,1.095072,0.007808,-143.990005,-18.690001,137.690002,22.08
2848801,0.526552,0.991616,0.036600,-176.679993,-22.750000,141.399994,22.12
2848812,0.500688,0.884256,0.022936,-196.979996,-31.010000,142.029999,22.12
2848823,0.526064,0.783240,0.045384,-217.770004,-32.200001,143.429993,22.11
2848834,0.533872,0.694424,0.044896,-236.250000,-35.770000,145.250000,22.09
2848845,0.545584,0.617320,0.033184,-248.289993,-38.570000,142.100006,22.09
2848856,0.563640,0.537288,0.014152,-253.960007,-42.349998,139.160004,22.09
2848867,0.579744,0.443104,0.038552,-250.740005,-46.619999,136.990005,22.09
2848878,0.595848,0.326960,0.088328,-238.979996,-48.090000,133.490005,22.09
2848889,0.601704,0.278160,0.132248,-224.000000,-49.560001,129.919998,22.09
2848900,0.610488,0.261568,0.160552,-220.779999,-52.009998,108.010002,22.09
2848911,0.623664,0.171288,0.161528,-223.369995,-56.070000,117.949997,22.13
2848922,0.657336,0.059536,0.131760,-225.330002,-57.750000,109.900002,22.13
2848933,0.676856,-0.039040,0.095648,-209.789993,-58.590000,99.750000,22.09
2848944,0.716384,-0.152744,0.091744,-189.210007,-54.740002,92.540001,22.12
2848955,0.741272,-0.167872,0.049288,-177.449997,-50.400002,81.620003,22.12
2848966,0.766648,-0.241072,0.030744,-161.839996,-46.410000,69.019997,22.10
2848977,0.802272,-0.327936,0.017568,-136.220001,-40.880001,55.720001,22.10
2848988,0.841800,-0.396744,0.072224,-101.080002,-32.970001,44.380001,22.12
2848999,0.837408,-0.412360,-0.004392,-75.949997,-23.100000,30.309999,22.12
2849010,0.844728,-0.433344,-0.015616,-48.930000,-16.590000,14.070000,22.08
2849021,0.862784,-0.483608,-0.017568,-17.990000,-7.140000,-1.540000,22.09
2849032,0.860832,-0.485072,-0.005856,6.230000,1.610000,-13.720000,22.09
2849043,0.860344,-0.462624,0.006832,26.600000,9.870000,-29.889999,22.08
2849054,0.860344,-0.430416,0.033184,39.970001,34.580002,-44.169998,22.08
2849065,0.834968,-0.375272,0.057096,54.389999,24.080000,-56.139999,22.11
2849076,0.822280,-0.332816,0.074176,69.790001,32.689999,-71.540001,22.09
2849087,0.794464,-0.332328,0.079056,91.139999,41.860001,-88.199997,22.09
2849098,0.777872,-0.301584,0.060024,123.339996,49.980000,-103.669998,22.08
2849109,0.774944,-0.299144,0.043432,168.559998,60.060001,-115.220001,22.08
2849120,0.744200,-0.205448,0.024400,212.309998,70.559998,-129.220001,22.10
2849131,0.697352,-0.051240,0.014640,244.580002,76.580002,-142.029999,22.07
2849142,0.656848,0.115168,0.031720,274.470001,78.470001,-153.300003,22.07
2849153,0.616344,0.225456,0.098088,300.720001,75.949997,-156.940002,22.10
2849164,0.564128,0.356728,0.104432,334.600006,77.419998,-168.000000,22.10
2849175,0.525088,0.514352,0.056120,350.910004,73.709999,-175.630005,22.06
2849186,0.508496,0.642208,0.027328,351.820007,67.410004,-179.759995,22.11
2849197,0.492880,0.802272,-0.001952,346.779999,60.759998,-181.509995,22.11
2849208,0.461160,0.981368,-0.094184,315.420013,55.720001,-178.429993,22.09
2849219,0.449936,0.967704,-0.185440,298.059998,48.299999,-179.130005,22.09
2849230,0.435784,1.081896,-0.218624,251.580002,48.020000,-173.039993,22.10
2849241,0.393816,1.446920,-0.203984,210.350006,39.130001,-152.460007,22.10
2849252,0.405528,1.706048,-0.123952,136.289993,29.680000,-133.139999,22.06
2849263,0.415776,1.812432,-0.039040,82.459999,21.770000,-121.239998,22.09
2849274,0.434320,1.758264,0.051240,55.160000,21.770000,-101.220001,22.09
2849285,0.456768,1.779736,0.131760,40.810001,20.650000,-78.750000,22.11
2849295,0.492392,1.786080,0.162016,27.090000,22.260000,-66.080002,22.11
2849306,0.539728,1.764120,0.173240,18.480000,23.940001,-44.730000,22.08
2849317,0.563152,1.760216,0.157136,9.940000,25.200001,-25.690001,22.07
2849328,0.600240,1.822192,0.171288,-4.340000,23.590000,-1.960000,22.07
2849339,0.597800,1.801696,0.203984,-23.520000,17.709999,21.840000,22.12
2849349,0.592432,1.771928,0.236680,-45.779999,10.360000,41.090000,22.12
2849360,0.577304,1.646512,0.270840,-59.570000,1.680000,62.299999,22.09
2849371,0.562664,1.478640,0.289872,-68.180000,-3.850000,79.730003,22.09
2849382,0.552904,1.406416,0.251808,-73.919998,-9.730000,92.820000,22.09
2849394,0.546072,1.339560,0.210328,-86.449997,-16.379999,104.300003,22.05
2849404,0.547536,1.301984,0.161528,-102.339996,-21.139999,113.120003,22.05
2849416,0.550464,1.241472,0.137128,-131.949997,-23.660000,123.410004,22.09
2849427,0.545096,1.192672,0.120536,-171.360001,-27.790001,127.400002,22.09
2849438,0.542168,1.086288,0.122000,-210.979996,-31.290001,131.179993,22.09
2849449,0.524112,0.916952,0.143472,-234.149994,-34.930000,129.850006,22.07
2849460,0.564616,0.749080,0.180560,-232.470001,-38.080002,123.970001,22.07
2849471,0.535336,0.632936,0.211792,-220.360001,-40.180000,123.620003,22.09
2849482,0.547048,0.570472,0.208864,-211.539993,-45.570000,122.080002,22.09
2849493,0.589992,0.536312,0.179584,-206.919998,-52.709999,120.190002,22.09
2849504,0.564616,0.496296,0.185928,-202.509995,-55.509998,120.959999,22.10
2849514,0.601216,0.453352,0.148840,-207.759995,-58.169998,122.220001,22.10
2849526,0.617320,0.412848,0.129808,-217.419998,-61.740002,118.230003,22.08
2849536,0.643672,0.306464,0.141032,-214.830002,-61.320000,113.190002,22.08
2849548,0.660752,0.190808,0.165432,-213.149994,-59.360001,108.080002,22.11
2849558,0.673928,0.045384,0.188368,-196.070007,-58.730000,99.120003,22.11
2849570,0.692960,0.006344,0.227408,-173.389999,-57.400002,93.870003,22.10
2849581,0.700280,0.059536,0.224968,-164.360001,-57.470001,91.839996,22.09
2849592,0.720288,0.074176,0.203496,-164.990005,-58.169998,84.629997,22.09
2849603,0.753472,0.047336,0.168848,-164.570007,-58.099998,74.269997,22.10
2849614,0.769576,-0.016104,0.124928,-168.070007,-53.689999,63.700001,22.10
2849625,0.779336,-0.130784,0.070272,-149.869995,-47.950001,47.950001,22.12
2849636,0.837896,-0.385520,0.110288,-96.599998,-37.799999,33.250000,22.07
2849647,0.830088,-0.419192,0.112728,-72.309998,-27.020000,21.490000,22.07
2849658,0.818864,-0.384056,0.077104,-38.709999,-21.280001,9.170000,22.11
2849669,0.846680,-0.387960,0.042944,-9.800000,-13.440000,-0.560000,22.11
2849680,0.845704,-0.375272,0.034648,15.610000,-3.570000,-12.670000,22.11
2849691,0.837408,-0.326472,0.035136,34.509998,7.560000,-27.510000,22.09
2849703,0.830088,-0.325984,0.045384,59.709999,33.950001,-41.509998,22.09
2849714,0.807152,-0.277672,0.058560,81.830002,23.520000,-51.029999,22.05
2849725,0.772504,-0.296704,0.067832,113.470001,29.190001,-65.730003,22.05
2849736,0.781288,-0.277184,0.075152,141.750000,35.910000,-78.050003,22.11
2849747,0.750056,-0.186904,0.077104,166.740005,39.689999,-93.730003,22.08
2849758,0.753960,-0.155184,0.095648,189.839996,45.570000,-106.750000,22.08
2849769,0.725656,-0.080520,0.122976,205.029999,50.820000,-120.260002,22.08
2849780,0.688568,0.003904,0.148840,226.940002,54.529999,-133.770004,22.08
2849791,0.675880,0.063440,0.091744,251.860001,59.779999,-142.169998,22.10
2849801,0.637328,0.220088,0.120536,272.440002,61.459999,-149.309998,22.10
2849812,0.603168,0.427000,0.118584,280.839996,58.939999,-154.979996,22.07
2849823,0.587552,0.504104,0.114680,283.149994,54.950001,-159.039993,22.11
2849834,0.581696,0.612440,0.114192,279.720001,52.779999,-161.910004,22.11
2849845,0.554856,0.721752,0.081496,275.519989,49.349998,-164.220001,22.07
2849856,0.544120,0.750056,0.024888,273.140015,46.480000,-168.139999,22.07
2849867,0.534848,0.816912,-0.035136,270.480011,46.549999,-167.860001,22.08
2849878,0.503128,1.031632,-0.067832,255.639999,45.430000,-157.639999,22.06
2849890,0.483120,1.343952,-0.046360,211.259995,37.310001,-138.740005,22.06
2849900,0.471896,1.588928,-0.028792,153.229996,29.190001,-119.000000,22.09
2849911,0.478728,1.769000,0.026840,98.489998,16.730000,-101.779999,22.09
2849922,0.490928,1.775344,0.107848,66.080002,12.250000,-81.480003,22.11
2849933,0.492392,1.768024,0.170312,40.740002,7.280000,-62.299999,22.10
2849944,0.539240,1.738744,0.188856,22.959999,7.630000,-47.250000,22.10
2849955,0.581208,1.691408,0.182512,12.250000,10.080000,-28.629999,22.09
2849966,0.588040,1.689944,0.158112,2.450000,11.550000,-11.270000,22.09
2849976,0.606584,1.746552,0.146400,-10.570000,10.220000,9.450000,22.08
2849987,0.605608,1.725080,0.138104,-33.320000,6.230000,29.680000,22.08
2849998,0.594384,1.657736,0.160552,-56.209999,-1.190000,45.919998,22.12
2850010,0.592920,1.544032,0.180560,-77.839996,-8.190000,64.330002,22.05
2850021,0.582672,1.443992,0.198128,-93.519997,-13.300000,79.169998,22.05
2850032,0.565592,1.326872,0.200080,-109.129997,-15.750000,94.430000,22.10
2850043,0.539240,1.251232,0.183976,-121.099998,-22.820000,105.980003,22.10
2850054,0.550464,1.170712,0.158600,-132.860001,-25.480000,116.199997,22.08
2850065,0.538752,1.119960,0.114680,-144.830002,-29.889999,124.040001,22.10
2850076,0.543144,1.068232,0.113704,-166.740005,-33.040001,129.500000,22.10
2850087,0.552416,1.013576,0.090768,-191.029999,-34.160000,132.580002,22.06
2850098,0.574864,0.970144,0.136640,-208.600006,-38.779999,134.050003,22.06
2850109,0.564616,0.782264,0.146400,-218.960007,-39.410000,134.330002,22.11
2850120,0.557784,0.610000,0.182024,-212.869995,-40.950001,132.649994,22.08
2850131,0.563152,0.549000,0.199104,-205.100006,-45.009998,130.970001,22.08
2850142,0.580232,0.506544,0.202032,-202.369995,-52.150002,129.080002,22.07
2850153,0.593408,0.455792,0.201056,-202.440002,-55.020000,126.139999,22.07
2850164,0.629520,0.414312,0.173728,-211.050003,-57.750000,122.430000,22.11
2850175,0.649040,0.289384,0.170800,-210.070007,-59.500000,117.529999,22.09
2850186,0.691496,0.134688,0.188368,-199.009995,-58.240002,109.199997,22.09
2850197,0.691496,0.085888,0.187880,-188.300003,-56.910000,103.669998,22.12
2850208,0.700280,0.005856,0.198128,-169.399994,-56.700001,96.739998,22.12
2850219,0.738832,-0.060512,0.183976,-151.970001,-52.849998,90.300003,22.09
2850230,0.749080,-0.088328,0.140056,-140.070007,-49.000000,84.419998,22.09
2850241,0.761280,-0.117120,0.117608,-129.779999,-47.250000,73.709999,22.07
2850252,0.792024,-0.219600,0.120048,-109.059998,-43.119999,61.950001,22.07
2850263,0.812520,-0.307440,0.128832,-86.379997,-36.119999,48.160000,22.07
2850275,0.812520,-0.345016,0.113216,-64.610001,-29.400000,33.389999,22.12
2850286,0.827160,-0.381616,0.112240,-38.150002,-23.170000,18.270000,22.12
2850297,0.823256,-0.380152,0.084424,-14.560000,-13.580000,7.070000,22.14
2850308,0.817400,-0.361608,0.084912,3.290000,-5.110000,-7.490000,22.09
2850319,0.813496,-0.325984,0.084912,22.469999,5.180000,-22.820000,22.09
2850330,0.802272,-0.299144,0.092720,38.500000,12.810000,-53.270000,22.09
2850340,0.801296,-0.356240,0.101016,64.750000,22.540001,-52.570000,22.09
2850351,0.793976,-0.359168,0.101016,92.120003,32.830002,-67.690002,22.06
2850362,0.759816,-0.245952,0.093208,118.860001,37.660000,-77.839996,22.07
2850373,0.766648,-0.250832,0.087840,149.100006,43.259998,-93.169998,22.07
2850384,0.754936,-0.142008,0.115168,163.309998,49.139999,-103.879997,22.07
2850395,0.701744,-0.007320,0.150304,175.350006,49.349998,-116.690002,22.07
2850406,0.696376,-0.052704,0.180560,205.660004,49.209999,-128.449997,22.10
2850418,0.687592,0.075152,0.179096,228.899994,54.040001,-135.589996,22.05
2850429,0.647576,0.198128,0.175680,243.460007,55.160000,-146.369995,22.05
2850440,0.643672,0.311344,0.142008,277.269989,54.180000,-151.690002,22.08
2850450,0.600240,0.542656,0.132248,284.760010,51.939999,-150.570007,22.08
2850461,0.581208,0.717360,0.124928,283.989990,45.430000,-151.970001,22.06
2850472,0.598776,0.756888,0.100040,283.359985,42.209999,-154.279999,22.06
2850483,0.580232,0.833504,0.064904,276.570007,39.759998,-155.750000,22.07
2850494,0.600240,0.773968,-0.030744,273.350006,41.930000,-159.039993,22.07
2850505,0.593408,0.926224,-0.137616,254.029999,48.720001,-147.070007,22.07
2850516,0.528504,1.338096,-0.125904,198.169998,43.959999,-129.009995,22.09
2850527,0.530456,1.604544,-0.069784,154.419998,34.650002,-106.120003,22.09
2850538,0.533384,1.727520,0.040016,99.750000,24.080000,-81.900002,22.10
2850549,0.530456,1.789008,0.163480,62.230000,18.480000,-64.470001,22.10
2850559,0.569008,1.786080,0.214720,40.880001,10.920000,-46.200001,22.10
2850570,0.621712,1.717760,0.267424,19.600000,8.890000,-28.700001,22.05
2850581,0.661240,1.639680,0.247904,5.880000,8.330000,-14.000000,22.05
2850592,0.682712,1.601128,0.203984,-4.410000,9.100000,5.600000,22.07
2850603,0.698328,1.626992,0.164944,-24.500000,10.920000,22.400000,22.07
2850613,0.675880,1.641144,0.165920,-55.230000,5.530000,38.150002,22.05
2850625,0.654408,1.571848,0.189344,-81.620003,-3.290000,57.820000,22.07
2850636,0.641720,1.498648,0.214232,-113.889999,-9.590000,74.129997,22.07
2850647,0.621224,1.385920,0.234728,-141.889999,-18.480000,86.099998,22.08
2850658,0.614392,1.184376,0.255224,-154.350006,-23.240000,96.389999,22.08
2850669,0.594872,1.077992,0.262056,-161.210007,-27.580000,106.260002,22.11
2850680,0.589992,0.979416,0.247416,-166.250000,-32.270000,110.529999,22.07
2850691,0.599264,0.884744,0.184952,-165.690002,-35.279999,109.690002,22.07
2850702,0.610000,0.835944,0.172752,-174.160004,-39.410000,115.150002,22.04
2850713,0.615368,0.792024,0.156160,-185.149994,-42.770000,118.650002,22.04
2850724,0.630008,0.732000,0.188856,-193.830002,-44.520000,118.720001,22.05
2850735,0.632936,0.632448,0.213744,-197.679993,-46.200001,119.000000,22.05
2850753,0.618296,0.512400,0.226432,-206.429993,-53.480000,117.669998,22.05
2850772,0.642208,0.300608,0.241560,-195.789993,-58.660000,109.269997,22.03
2850791,0.683200,0.150792,0.262056,-161.630005,-59.919998,98.699997,22.06
2850808,0.710528,0.134200,0.237168,-145.460007,-58.240002,90.160004,22.09
2850822,0.739320,0.123464,0.184464,-150.850006,-56.770000,84.559998,22.07
2850834,0.743224,0.109800,0.148352,-162.190002,-56.000000,77.349998,22.08
2850845,0.770552,0.047336,0.111752,-165.899994,-53.270000,70.629997,22.08
2850856,0.808616,-0.109312,0.110288,-145.740005,-47.950001,59.779999,22.09
2850867,0.833504,-0.254736,0.115168,-112.839996,-38.290001,48.230000,22.07
2850878,0.817400,-0.262544,0.118584,-72.099998,-30.660000,35.000000,22.07
2850890,0.817400,-0.297680,0.101016,-32.130001,-21.910000,21.139999,22.05
2850902,0.828624,-0.302560,0.082472,1.680000,-11.830000,8.190000,22.05
2850912,0.823256,-0.278160,0.086864,23.730000,-4.620000,-3.080000,22.06
2850924,0.825208,-0.259616,0.100528,41.299999,3.010000,-17.430000,22.06
2850935,0.816912,-0.245952,0.121512,54.180000,10.920000,-30.730000,22.06
2850946,0.795440,-0.183976,0.123952,64.050003,16.379999,-42.980000,22.05
2850957,0.795440,-0.222528,0.132248,85.959999,23.309999,-54.529999,22.05
2850968,0.783240,-0.231800,0.133224,107.940002,30.870001,-68.040001,22.08
2850979,0.759328,-0.133712,0.125416,129.080002,35.279999,-80.919998,22.09
2850990,0.757864,-0.105896,0.115656,148.610001,39.410000,-90.860001,22.09
2851001,0.760792,-0.037576,0.103456,168.139999,45.500000,-101.779999,22.10
2851012,0.732976,0.055632,0.114680,182.070007,46.689999,-112.000000,22.10
2851023,0.699792,0.077592,0.133224,206.220001,49.770000,-123.059998,22.09
2851034,0.682224,0.148840,0.154208,227.710007,51.660000,-128.100006,22.10
2851045,0.644160,0.306464,0.155184,243.460007,50.610001,-134.679993,22.10
2851056,0.651480,0.374296,0.129808,256.130005,50.330002,-140.770004,22.04
2851066,0.623176,0.534848,0.084912,263.130005,52.500000,-140.699997,22.04
2851077,0.601704,0.622200,0.031720,264.390015,48.580002,-144.550003,22.08
2851088,0.624152,0.656848,-0.017080,268.100006,48.160000,-149.660004,22.08
2851099,0.606584,0.784216,-0.018056,258.019989,49.910000,-150.009995,22.08
2851110,0.582184,0.820328,-0.029768,243.809998,44.939999,-150.500000,22.04
2851121,0.558760,0.963312,-0.039040,222.809998,40.669998,-145.460007,22.04
2851132,0.542656,1.117520,-0.018056,185.429993,40.529999,-136.710007,22.07
2851143,0.499712,1.363472,0.016104,127.050003,30.309999,-120.959999,22.07
2851153,0.513864,1.436672,0.059048,99.820000,21.910000,-109.410004,22.08
2851164,0.564616,1.477664,0.093696,67.339996,21.000000,-94.430000,22.09
2851175,0.562176,1.559160,0.104920,49.209999,21.070000,-78.050003,22.09
2851186,0.558272,1.588440,0.148352,33.110001,18.830000,-64.750000,22.03
2851197,0.570960,1.664568,0.171776,18.760000,18.690001,-50.330002,22.03
2851208,0.569984,1.669448,0.212280,5.740000,15.890000,-30.520000,22.05
2851218,0.569008,1.674816,0.245464,-11.410000,14.210000,-16.870001,22.05
2851229,0.565592,1.661640,0.254736,-34.090000,8.820000,4.830000,22.09
2851241,0.596336,1.586000,0.259128,-46.619999,1.610000,23.450001,22.05
2851251,0.589016,1.548912,0.266448,-57.119999,-3.080000,42.700001,22.05
2851263,0.573888,1.483032,0.258152,-70.629997,-9.030000,55.860001,22.09
2851274,0.566568,1.400560,0.243024,-84.699997,-13.370000,72.730003,22.09
2851285,0.562176,1.351272,0.223504,-100.379997,-20.370001,88.410004,22.06
2851296,0.564128,1.287832,0.187880,-126.070000,-26.600000,99.540001,22.04
2851307,0.567056,1.236592,0.174704,-158.339996,-29.540001,107.239998,22.04
2851318,0.556808,1.148264,0.170312,-190.610001,-32.830002,111.300003,22.05
2851330,0.546560,1.059448,0.168848,-219.660004,-37.799999,114.519997,22.05
2851341,0.546560,0.895968,0.208376,-224.839996,-41.650002,114.730003,22.02
2851352,0.549000,0.754448,0.254248,-211.960007,-44.240002,114.029999,22.04
2851362,0.530944,0.656360,0.254248,-191.169998,-50.820000,111.860001,22.04
2851373,0.592920,0.579256,0.244976,-172.479996,-53.900002,112.139999,22.04
2851384,0.609512,0.537288,0.244488,-155.190002,-54.459999,112.839996,22.04
2851395,0.609512,0.525088,0.224480,-142.309998,-55.580002,114.449997,22.02
2851406,0.643184,0.518256,0.213256,-144.199997,-57.680000,118.720001,22.02
2851417,0.659776,0.490928,0.195688,-151.479996,-59.150002,121.309998,22.05
2851428,0.666608,0.434320,0.206424,-156.029999,-59.709999,119.000000,22.00
2851439,0.681248,0.300608,0.239120,-147.979996,-58.169998,111.440002,22.00
2851450,0.692472,0.229848,0.255224,-143.570007,-57.259998,106.889999,22.09
2851461,0.700280,0.190320,0.238144,-137.059998,-55.860001,100.519997,22.09
2851472,0.717848,0.177144,0.192760,-135.380005,-54.880001,91.699997,22.04
2851483,0.747128,0.151280,0.200080,-144.130005,-53.130001,85.260002,22.04
2851494,0.741760,0.065880,0.176168,-147.910004,-51.029999,73.639999,22.04
2851506,0.776896,-0.036112,0.164456,-145.600006,-47.389999,60.549999,22.03
2851517,0.804712,-0.124440,0.142496,-131.880005,-41.580002,49.980000,22.03
2851528,0.832528,-0.219112,0.135664,-92.610001,-33.599998,40.459999,22.04
2851539,0.829112,-0.288896,0.105896,-76.790001,-24.570000,27.790001,22.05
2851550,0.838872,-0.300608,0.082960,-41.299999,-17.920000,1.330000,22.05
2851561,0.831064,-0.277672,0.063928,-11.900000,-11.270000,8.540000,22.05
2851572,0.829112,-0.285480,0.067344,7.840000,-2.870000,-4.130000,22.05
2851583,0.820816,-0.296216,0.073688,32.689999,4.060000,-17.570000,22.07
2851594,0.803736,-0.284504,0.093696,54.250000,11.900000,-29.190001,22.04
2851604,0.793488,-0.253760,0.110288,70.279999,19.040001,-43.049999,22.04
2851615,0.777872,-0.191296,0.104920,83.300003,23.799999,-55.930000,22.05
2851626,0.758352,-0.157136,0.104432,101.430000,30.240000,-66.779999,22.05
2851638,0.752008,-0.138592,0.112240,127.540001,36.610001,-79.099998,22.04
2851649,0.743224,-0.074664,0.102480,148.679993,46.270000,-93.730003,22.04
2851660,0.728584,-0.046848,0.094184,178.779999,53.759998,-107.099998,22.04
2851671,0.698816,0.023424,0.101016,202.020004,59.570000,-115.709999,22.05
2851682,0.668560,0.113704,0.129808,215.389999,61.880001,-126.489998,22.05
2851693,0.665632,0.176656,0.148840,226.309998,66.500000,-135.800003,22.07
2851703,0.603656,0.324520,0.106384,245.770004,65.730003,-136.289993,22.07
2851715,0.598288,0.471896,0.079056,250.809998,62.580002,-139.440002,22.07
2851725,0.616344,0.564616,0.054168,251.369995,60.619999,-144.270004,22.05
2851736,0.595360,0.552416,0.069784,262.220001,59.849998,-149.589996,22.05
2851748,0.564616,0.589504,0.057584,275.380005,58.799999,-152.039993,22.08
2851759,0.551440,0.735416,0.028304,273.350006,56.419998,-151.270004,22.08
2851770,0.556320,0.930128,0.020008,251.509995,51.660000,-144.479996,22.03
2851781,0.527040,1.137040,0.041480,214.059998,45.990002,-136.990005,22.02
2851792,0.486048,1.402512,0.044896,166.949997,40.389999,-118.720001,22.02
2851802,0.548024,1.484984,0.073200,129.080002,31.010000,-105.629997,22.02
2851813,0.547536,1.541592,0.101016,89.739998,26.950001,-93.800003,22.02
2851824,0.563152,1.578680,0.143472,57.259998,25.340000,-80.010002,22.09
2851835,0.575352,1.612840,0.205936,38.009998,23.379999,-65.239998,22.09
2851846,0.587064,1.592344,0.279624,26.320000,21.350000,-48.020000,22.04
2851857,0.582184,1.606008,0.291336,20.370001,21.070000,-35.139999,22.02
2851868,0.597800,1.627968,0.281576,13.230000,15.680000,-15.120000,22.02
2851879,0.606096,1.651392,0.258640,0.210000,10.990000,4.270000,22.06
2851890,0.609512,1.651880,0.231312,-21.700001,4.130000,21.700001,22.06
2851900,0.609512,1.665056,0.211304,-47.320000,-3.850000,45.150002,22.04
2851911,0.604144,1.648952,0.190808,-87.779999,-9.520000,63.279999,22.08
2851922,0.583648,1.555256,0.191784,-128.869995,-16.520000,83.370003,22.08
2851933,0.572912,1.387872,0.229360,-150.710007,-21.910000,96.599998,22.05
2851944,0.557296,1.250256,0.261568,-169.259995,-25.830000,104.510002,22.05
2851955,0.561200,1.122888,0.264984,-178.570007,-29.820000,108.290001,22.08
2851967,0.571448,1.008696,0.259616,-182.279999,-32.130001,111.720001,22.07
2851977,0.573888,0.964776,0.244000,-184.380005,-36.049999,115.010002,22.07
2851988,0.580232,0.903776,0.236192,-187.460007,-39.549999,117.529999,22.07
2851999,0.555344,0.778360,0.217648,-180.669998,-44.939999,113.889999,22.07
2852010,0.621224,0.654896,0.207888,-173.740005,-44.939999,119.209999,22.02
2852021,0.628056,0.586088,0.192272,-165.270004,-44.730000,121.239998,22.02
2852032,0.632448,0.565104,0.209352,-167.860001,-48.020000,123.760002,22.09
2852043,0.634888,0.537776,0.215208,-178.639999,-51.799999,124.879997,22.03
2852055,0.632936,0.440664,0.225456,-185.220001,-55.369999,124.529999,22.03
2852066,0.645136,0.325984,0.264008,-188.020004,-57.400002,117.529999,22.03
2852077,0.670512,0.258152,0.287920,-180.110001,-59.009998,111.580002,22.03
2852088,0.678808,0.193248,0.310856,-174.089996,-59.500000,104.230003,22.06
2852099,0.706136,0.080032,0.329888,-159.320007,-58.520000,92.330002,22.05
2852110,0.720776,0.021472,0.299632,-143.149994,-56.070000,83.160004,22.05
2852121,0.725168,0.031232,0.246928,-129.710007,-53.410000,78.190002,22.04
2852132,0.752008,0.026352,0.199592,-126.349998,-51.310001,69.510002,22.04
2852143,0.776408,0.033672,0.173240,-132.440002,-49.349998,62.650002,22.07
2852154,0.783240,-0.039040,0.167872,-129.500000,-45.500000,53.619999,22.04
2852165,0.810080,-0.157624,0.167872,-109.900002,-38.919998,43.330002,22.04
2852176,0.797392,-0.243512,0.173240,-74.339996,-31.150000,30.870001,22.06
2852187,0.793000,-0.276696,0.156648,-47.529999,-24.430000,18.129999,22.06
2852198,0.802760,-0.301096,0.129320,-17.360001,-19.879999,5.320000,22.04
2852209,0.802272,-0.324520,0.106872,10.570000,-12.670000,-5.040000,22.04
2852220,0.791536,-0.301096,0.079544,30.170000,-5.600000,-18.410000,22.04
2852231,0.795928,-0.279136,0.068808,50.189999,0.560000,-31.570000,22.04
2852242,0.785192,-0.255224,0.063440,68.809998,10.710000,-42.349998,22.04
2852253,0.766160,-0.277184,0.061488,93.800003,19.670000,-55.509998,22.04
2852265,0.750056,-0.247904,0.041480,119.279999,29.120001,-68.110001,22.04
2852276,0.741760,-0.253272,0.026840,148.470001,38.290001,-81.830002,22.02
2852287,0.711016,-0.085400,0.049288,170.660004,45.570000,-91.279999,22.05
2852298,0.697840,0.037088,0.074176,179.690002,47.669998,-101.220001,22.05
2852311,0.724680,0.021960,0.114680,189.699997,51.869999,-116.550003,22.05
2852327,0.689056,0.061000,0.155672,217.210007,57.470001,-133.490005,22.03
2852340,0.646600,0.225944,0.172752,243.740005,60.060001,-138.809998,22.03
2852353,0.586576,0.521672,0.146888,248.429993,57.259998,-142.800003,22.07
2852365,0.594384,0.534360,0.112240,264.529999,54.599998,-149.660004,22.06
2852376,0.596824,0.668072,0.079544,266.140015,53.830002,-150.850006,22.06
2852391,0.555344,0.785192,0.127856,267.540009,46.410000,-157.779999,22.07
2852402,0.565592,0.853024,0.143472,260.890015,43.610001,-161.419998,22.06
2852413,0.537776,0.863272,0.081008,250.669998,41.790001,-160.860001,22.06
2852424,0.536312,1.060424,0.001952,215.880005,42.209999,-149.800003,22.06
2852435,0.499712,1.324432,-0.036112,176.539993,41.299999,-138.320007,22.03
2852446,0.525576,1.390312,-0.055144,121.099998,35.419998,-117.669998,22.03
2852457,0.487512,1.635288,-0.041968,71.680000,32.060001,-101.360001,22.07
2852468,0.484096,1.786080,0.042456,27.510000,21.420000,-78.610001,22.07
2852479,0.529480,1.755336,0.186904,8.260000,16.309999,-60.830002,22.04
2852490,0.532408,1.691408,0.264984,0.140000,14.630000,-39.759998,22.04
2852501,0.580232,1.691408,0.268400,-6.230000,11.060000,-20.580000,22.04
2852512,0.567056,1.741184,0.251320,-17.639999,7.000000,-3.710000,22.02
2852523,0.582672,1.779736,0.207888,-36.119999,3.290000,17.920000,22.02
2852534,0.590968,1.758264,0.190320,-67.970001,-1.470000,40.180000,22.04
2852545,0.586088,1.705072,0.187880,-105.769997,-9.800000,56.349998,22.01
2852556,0.587552,1.622112,0.199104,-139.580002,-15.680000,76.860001,22.01
2852567,0.569496,1.469368,0.250832,-173.949997,-21.420000,91.419998,22.03
2852578,0.547536,1.303448,0.321592,-187.179993,-26.950001,101.220001,22.03
2852589,0.525088,1.154120,0.322080,-189.139999,-32.970001,110.809998,22.04
2852600,0.535824,1.059936,0.295240,-186.339996,-38.080002,117.389999,22.04
2852611,0.569008,1.037000,0.278648,-184.869995,-45.919998,120.959999,22.03
2852622,0.578768,0.933544,0.239608,-184.309998,-48.439999,127.260002,22.05
2852633,0.577304,0.886208,0.207888,-186.410004,-50.470001,130.690002,22.05
2852644,0.581208,0.838872,0.212280,-194.389999,-71.190002,136.289993,22.03
2852655,0.584136,0.793488,0.228872,-204.960007,-54.950001,137.759995,22.03
2852666,0.577304,0.662216,0.238632,-207.059998,-57.889999,139.720001,22.00
2852677,0.585600,0.536800,0.242536,-208.179993,-60.270000,138.320007,22.04
2852688,0.601216,0.455792,0.263520,-210.139999,-63.070000,135.869995,22.04
2852699,0.613416,0.386984,0.255224,-208.669998,-65.940002,131.949997,22.01
2852710,0.627080,0.308904,0.280112,-204.399994,-70.209999,125.370003,22.01
2852721,0.663680,0.207888,0.267424,-202.300003,-74.059998,116.970001,22.03
2852732,0.674416,0.129808,0.257176,-188.440002,-69.019997,111.019997,22.02
2852744,0.695400,0.066368,0.257176,-175.350006,-67.970001,104.860001,22.02
2852755,0.724192,0.014640,0.234240,-145.809998,-66.080002,98.000000,22.04
2852766,0.744200,-0.037576,0.205936,-147.910004,-62.509998,90.650002,22.04
2852777,0.769088,-0.110288,0.183976,-128.729996,-58.869999,84.769997,22.04
2852788,0.783728,-0.191296,0.165920,-101.500000,-53.340000,76.790001,22.00
2852799,0.796416,-0.238632,0.157624,-74.129997,-46.830002,66.989998,22.00
2852810,0.803736,-0.254736,0.158600,-59.919998,-41.650002,56.490002,22.04
2852821,0.815448,-0.287920,0.138104,-43.750000,-37.029999,44.099998,22.04
2852832,0.829112,-0.361608,0.123952,-27.510000,-31.500000,33.669998,22.07
2852843,0.832040,-0.400648,0.110776,-10.780000,-24.010000,19.809999,22.07
2852854,0.831552,-0.396744,0.083448,9.660000,-16.730000,5.530000,22.02
2852865,0.831552,-0.368440,0.064904,26.389999,-7.000000,-8.610000,22.00
2852877,0.831552,-0.362096,0.065880,43.889999,3.920000,-20.650000,22.00
2852888,0.813008,-0.352824,0.072712,62.650002,14.980000,-35.700001,22.04
2852899,0.798856,-0.377224,0.091256,83.300003,20.510000,-49.000000,22.04
2852909,0.799832,-0.361608,0.112240,108.779999,32.480000,-61.040001,22.05
2852921,0.776408,-0.325984,0.122488,136.990005,40.250000,-74.900002,21.98
2852933,0.753472,-0.228872,0.141032,162.679993,47.599998,-87.639999,21.98
2852944,0.726632,-0.122000,0.167872,184.940002,52.220001,-101.290001,22.04
2852955,0.707600,-0.066368,0.189344,205.309998,55.090000,-114.239998,22.04
2852966,0.697352,-0.008296,0.201056,228.130005,55.020000,-126.000000,22.05
2852977,0.695400,0.037088,0.216672,262.640015,55.930000,-135.869995,22.00
2852988,0.640744,0.147376,0.155184,275.029999,55.930000,-144.550003,22.00
2852998,0.640256,0.243512,0.225944,283.850006,52.639999,-152.179993,22.06
2853009,0.638304,0.375272,0.168360,287.910004,50.750000,-155.820007,22.06
2853020,0.609512,0.507032,0.098576,281.750000,48.230000,-158.550003,22.02
2853031,0.601216,0.508984,0.032696,284.200012,45.500000,-164.850006,22.03
2853042,0.588040,0.648552,0.010736,275.940002,45.500000,-163.660004,22.03
2853053,0.542168,0.821792,0.005368,260.329987,40.950001,-160.929993,21.99
2853064,0.541192,0.945744,0.010248,234.149994,37.799999,-153.580002,21.99
2853075,0.506056,1.170712,0.032208,189.350006,32.759998,-142.520004,22.00
2853086,0.526064,1.301008,0.012200,161.490005,27.860001,-125.019997,22.00
2853097,0.526552,1.343464,-0.002440,128.449997,23.870001,-116.339996,22.04
2853108,0.522160,1.443016,0.020984,95.059998,25.200001,-105.489998,22.04
2853119,0.572912,1.545008,0.039040,70.629997,24.920000,-85.889999,22.04
2853129,0.545096,1.594296,0.074664,47.740002,22.469999,-72.029999,22.05
2853140,0.581696,1.619184,0.128832,30.100000,21.420000,-58.099998,22.05
2853151,0.583160,1.654808,0.193248,17.219999,18.270000,-37.310001,22.04
2853161,0.589992,1.656272,0.240584,2.800000,14.560000,-21.559999,22.03
2853172,0.596824,1.644072,0.251808,-12.950000,10.010000,-1.260000,22.03
2853183,0.611464,1.630408,0.237656,-30.379999,3.990000,20.440001,22.05
2853194,0.615856,1.600152,0.237656,-56.560001,-1.050000,40.320000,22.05
2853205,0.609512,1.551840,0.223016,-85.120003,-6.790000,56.419998,22.03
2853216,0.601216,1.442040,0.232776,-106.680000,-12.670000,73.779999,22.03
2853227,0.589504,1.314672,0.268888,-128.029999,-16.940001,86.519997,22.00
2853238,0.577304,1.206336,0.287432,-139.440002,-22.750000,95.199997,22.02
2853249,0.568032,1.099464,0.265472,-146.160004,-27.090000,103.110001,22.02
2853260,0.569984,1.035048,0.227408,-154.139999,-31.360001,109.760002,22.02
2853271,0.575840,0.998936,0.186416,-171.429993,-34.650002,115.989998,22.02
2853282,0.580232,0.933544,0.178120,-192.080002,-38.009998,119.070000,22.00
2853293,0.604144,0.846192,0.209352,-202.649994,-43.750000,119.910004,22.06
2853304,0.596336,0.745176,0.213744,-212.800003,-46.340000,124.669998,22.06
2853315,0.593896,0.682712,0.245952,-218.750000,-50.959999,123.760002,22.05
2853326,0.614392,0.552904,0.273280,-217.350006,-54.669998,120.260002,22.05
2853337,0.623176,0.462136,0.259616,-217.979996,-56.840000,117.949997,22.02
2853348,0.626104,0.425536,0.252296,-224.559998,-60.200001,113.820000,22.02
2853359,0.644160,0.360632,0.244976,-228.199997,-65.730003,107.589996,22.02
2853370,0.688080,0.224480,0.217160,-223.720001,-64.050003,100.800003,22.05
2853381,0.711016,0.129320,0.193248,-215.809998,-62.160000,93.589996,22.05
2853392,0.724192,0.015128,0.206912,-188.369995,-61.669998,86.239998,22.01
2853403,0.759328,-0.032696,0.204472,-164.289993,-56.630001,81.059998,22.01
2853415,0.762744,0.022448,0.205936,-154.559998,-53.340000,77.559998,21.97
2853426,0.771528,-0.012688,0.193248,-145.949997,-51.799999,69.160004,22.02
2853437,0.792512,-0.074664,0.174704,-136.990005,-47.950001,62.090000,22.02
2853448,0.801296,-0.158112,0.142008,-124.739998,-42.700001,51.240002,22.02
2853459,0.832040,-0.285480,0.129320,-103.040001,-35.349998,36.259998,22.02
2853470,0.846680,-0.331840,0.132736,-73.080002,-26.809999,23.030001,21.98
2853481,0.833504,-0.362096,0.137616,-34.860001,-16.240000,11.970000,22.00
2853492,0.822768,-0.365024,0.150304,-4.900000,-5.950000,-0.770000,22.00
2853503,0.813496,-0.333792,0.145912,26.250000,2.870000,-12.950000,22.04
2853514,0.812032,-0.287920,0.143472,50.959999,9.660000,-25.620001,22.04
2853525,0.809104,-0.263032,0.146400,70.070000,19.110001,-35.980000,22.01
2853536,0.793488,-0.249856,0.154696,90.930000,27.860001,-49.279999,22.03
2853547,0.784704,-0.202032,0.162504,117.040001,33.669998,-61.950001,22.03
2853558,0.774456,-0.172752,0.170800,145.320007,39.759998,-73.150002,22.01
2853568,0.756888,-0.205448,0.172752,177.940002,45.500000,-87.779999,22.01
2853579,0.743224,-0.161528,0.168848,217.839996,50.189999,-100.519997,22.01
2853591,0.722728,-0.054656,0.174216,249.690002,52.290001,-110.180000,21.98
2853602,0.718336,0.039528,0.188856,274.399994,54.389999,-121.940002,21.98
2853612,0.678808,0.223992,0.290360,285.529999,53.689999,-124.320000,22.02
2853623,0.640256,0.313296,0.227896,292.950012,50.470001,-131.389999,22.02
2853634,0.644160,0.462136,0.186416,297.149994,46.759998,-134.259995,22.02
2853645,0.644160,0.508008,0.144448,301.839996,44.730000,-138.179993,22.02
2853656,0.629520,0.604632,0.112728,300.160004,42.980000,-139.300003,22.01
2853667,0.613904,0.669048,0.066368,295.959991,40.950001,-142.449997,22.04
2853680,0.608048,0.756888,-0.032696,274.399994,42.000000,-140.910004,22.04
2853691,0.587064,0.916952,-0.057096,244.649994,43.750000,-130.199997,22.01
2853702,0.519232,1.259040,-0.062952,197.470001,39.060001,-116.410004,22.00
2853713,0.542168,1.387872,-0.025864,143.850006,25.340000,-100.870003,22.00
2853724,0.585112,1.531832,0.044896,120.190002,22.049999,-83.860001,22.01
2853735,0.554856,1.581120,0.111752,86.519997,14.210000,-72.870003,22.01
2853746,0.585600,1.526464,0.149328,66.919998,10.990000,-61.599998,22.05
2853757,0.610488,1.592832,0.151768,55.509998,11.900000,-43.400002,22.05
2853768,0.624152,1.633824,0.143960,38.220001,11.130000,-25.410000,22.03
2853780,0.650504,1.632360,0.151768,24.080000,11.620000,-10.640000,21.98
2853791,0.655384,1.639680,0.161040,6.090000,11.130000,10.150000,21.98
2853802,0.649040,1.619672,0.185440,-10.920000,5.390000,30.100000,22.00
2853812,0.644648,1.615768,0.181536,-38.779999,0.280000,51.310001,22.00
2853823,0.638792,1.567456,0.178608,-71.750000,-7.350000,67.550003,22.03
2853837,0.630496,1.477664,0.171288,-109.970001,-14.560000,87.709999,22.02
2853848,0.611464,1.364936,0.155672,-150.360001,-19.530001,101.080002,22.02
2853859,0.602680,1.241472,0.142496,-183.820007,-23.590000,107.940002,22.01
2853870,0.605608,1.131184,0.144448,-212.380005,-27.160000,114.449997,22.01
2853881,0.589992,1.022360,0.153232,-233.380005,-30.590000,117.949997,21.98
2853892,0.589504,0.934032,0.145912,-253.330002,-35.139999,119.349998,22.02
2853903,0.598776,0.819352,0.140056,-258.929993,-39.619999,119.910004,22.02
2853914,0.600240,0.722728,0.165920,-260.540009,-46.619999,117.949997,22.01
2853925,0.612440,0.428952,0.237656,-237.860001,-48.230000,115.010002,22.01
2853936,0.628544,0.356728,0.298168,-196.630005,-48.790001,114.099998,22.02
2853947,0.636352,0.355752,0.287432,-146.440002,-48.790001,116.269997,22.03
2853958,0.667096,0.376248,0.259128,-142.449997,-49.279999,117.529999,22.03
2853969,0.691496,0.376248,0.211792,-137.410004,-49.419998,118.580002,22.03
2853980,0.703208,0.342088,0.161040,-147.210007,-49.630001,118.790001,22.03
2853991,0.709552,0.357704,0.150304,-167.089996,-50.680000,115.360001,22.00
2854002,0.709064,0.355264,0.169336,-202.369995,-52.570000,109.970001,22.03
2854013,0.720776,0.243024,0.189344,-221.059998,-52.080002,101.989998,22.03
2854024,0.704672,-0.096624,0.176656,-190.050003,-50.189999,81.339996,22.02
2854035,0.753960,-0.051240,0.262544,-184.940002,-46.900002,81.620003,22.02
2854046,0.717848,-0.015616,0.256688,-174.300003,-47.389999,71.260002,21.99
2854057,0.744200,-0.025376,0.149328,-169.820007,-44.590000,58.380001,21.98
2854068,0.781288,-0.134200,0.136152,-170.380005,-41.090000,51.590000,21.98
2854079,0.798368,-0.268888,0.117120,-154.839996,-36.330002,38.150002,22.01
2854090,0.836432,-0.321104,0.034160,-128.169998,-25.760000,22.750000,22.01
2854101,0.861808,-0.393328,0.093208,-108.010002,-15.890000,15.820000,22.04
2854112,0.866688,-0.524112,0.107848,-68.739998,-4.060000,3.710000,22.04
2854123,0.837408,-0.485072,0.103944,-21.000000,2.730000,-3.710000,22.02
2854134,0.818864,-0.421632,0.102968,17.850000,9.310000,-15.610000,22.00
2854145,0.825696,-0.388448,0.092232,41.439999,17.990000,-27.370001,22.00
2854156,0.812520,-0.364048,0.107360,67.410004,23.170000,-40.389999,22.02
2854166,0.813496,-0.299632,0.118096,82.739998,29.049999,-51.310001,22.02
2854177,0.809104,-0.292312,0.129320,96.739998,36.259998,-66.570000,22.02
2854188,0.778848,-0.251808,0.118096,114.940002,36.680000,-80.080002,22.00
2854199,0.799344,-0.320616,0.128832,160.860001,50.889999,-89.949997,22.00
2854210,0.770552,-0.230336,0.137128,202.229996,59.360001,-103.739998,22.00
2854221,0.736880,-0.092232,0.121512,230.020004,63.279999,-115.849998,22.00
2854232,0.744688,-0.140056,0.122000,278.809998,66.709999,-127.959999,21.98
2854243,0.724192,-0.020008,0.126880,316.190002,74.830002,-136.990005,22.03
2854254,0.589016,0.291824,0.154208,330.329987,70.769997,-143.360001,22.03
2854265,0.598288,0.419192,0.181536,336.980011,65.099998,-146.160004,21.98
2854276,0.630984,0.541192,0.175192,333.760010,62.580002,-146.229996,21.98
2854287,0.569496,0.694912,0.188856,325.010010,54.180000,-145.600006,22.03
2854298,0.551928,0.763232,0.180560,318.079987,44.380001,-149.309998,22.03
2854309,0.561688,0.812032,0.145912,307.720001,38.849998,-151.690002,22.02
2854320,0.592920,0.683688,0.067344,303.660004,38.500000,-156.729996,21.96
2854331,0.570960,0.926224,0.000000,269.920013,38.009998,-149.309998,21.96
2854341,0.499712,1.197064,-0.015616,217.000000,32.060001,-141.190002,22.07
2854352,0.538264,1.374208,-0.038064,166.529999,26.879999,-124.110001,22.07
2854363,0.560712,1.605032,-0.090280,104.860001,25.549999,-101.989998,21.98
2854374,0.527040,1.675304,0.002928,52.990002,18.200001,-88.830002,21.96
2854385,0.553392,1.683112,0.089792,25.760000,15.540000,-72.169998,21.96
2854396,0.563640,1.619184,0.185928,9.100000,14.910000,-54.040001,22.00
2854407,0.575840,1.594296,0.236192,2.870000,14.490000,-39.340000,22.00
2854417,0.604144,1.601128,0.260104,-2.450000,12.600000,-20.650000,22.03
2854429,0.611952,1.573312,0.244000,-10.640000,10.430000,1.190000,22.03
2854440,0.618784,1.588440,0.219600,-23.730000,5.600000,17.219999,22.04
2854450,0.616832,1.569896,0.213744,-39.130001,-1.190000,36.470001,22.05
2854461,0.612928,1.524024,0.212768,-62.580002,-7.000000,54.880001,22.05
2854472,0.615856,1.462536,0.232288,-88.199997,-12.880000,68.529999,22.00
2854483,0.608536,1.369328,0.250344,-112.629997,-17.990000,82.809998,22.00
2854494,0.600240,1.224880,0.266448,-125.160004,-21.490000,93.589996,22.03
2854505,0.581208,1.149240,0.270840,-136.919998,-26.180000,101.360001,22.00
2854516,0.575352,1.082384,0.250832,-147.279999,-30.450001,105.769997,22.00
2854527,0.571448,1.020408,0.207888,-159.389999,-33.389999,111.160004,22.02
2854538,0.586576,0.983320,0.152744,-181.440002,-35.770000,114.940002,22.02
2854549,0.595848,0.929152,0.145424,-206.009995,-38.500000,117.040001,21.99
2854560,0.594872,0.810568,0.187392,-217.910004,-42.630001,119.139999,21.99
2854571,0.594872,0.765184,0.226432,-225.470001,-48.299999,117.599998,22.00
2854583,0.591456,0.703696,0.247904,-234.639999,-52.709999,121.519997,22.00
2854594,0.609024,0.631472,0.234240,-242.130005,-57.049999,120.190002,22.00
2854605,0.611952,0.540216,0.213256,-249.690002,-62.299999,118.230003,22.00
2854616,0.643672,0.434320,0.195200,-250.600006,-65.730003,112.769997,22.00
2854627,0.677344,0.304024,0.221552,-240.100006,-67.410004,102.550003,21.99
2854638,0.688080,0.236192,0.241072,-224.000000,-63.419998,102.550003,22.01
2854649,0.687104,0.188368,0.234728,-212.029999,-62.020000,97.650002,22.01
2854660,0.722728,0.136152,0.268400,-197.190002,-62.160000,93.099998,21.98
2854671,0.737856,0.118096,0.286456,-186.970001,-61.880001,91.489998,21.98
2854681,0.746152,0.103944,0.270352,-183.539993,-61.669998,88.620003,22.00
2854692,0.761768,0.033672,0.275720,-183.539993,-62.369999,81.550003,22.02
2854703,0.784216,-0.049776,0.257664,-184.449997,-60.759998,75.180000,22.02
2854714,0.823744,-0.240096,0.242536,-164.429993,-56.279999,64.540001,22.01
2854725,0.846680,-0.328424,0.213256,-139.580002,-50.049999,54.529999,22.01
2854736,0.847656,-0.345504,0.146400,-108.010002,-44.939999,35.279999,22.00
2854747,0.867176,-0.388936,0.142984,-74.129997,-37.520000,30.240000,21.98
2854758,0.850584,-0.399672,0.116144,-50.610001,-28.209999,17.780001,21.98
2854769,0.845216,-0.366976,0.086376,-29.260000,-22.610001,4.060000,21.96
2854781,0.860832,-0.384056,0.061000,-10.430000,-13.930000,-10.360000,21.96
2854792,0.858880,-0.395768,0.059048,6.580000,-4.270000,-20.860001,21.97
2854803,0.842776,-0.392352,0.077104,21.280001,3.920000,-34.369999,21.97
2854813,0.827648,-0.385520,0.091256,40.810001,10.850000,-46.830002,21.96
2854824,0.791536,-0.345504,0.098576,60.689999,17.150000,-56.700001,22.00
2854836,0.771040,-0.305488,0.102968,79.730003,23.590000,-68.459999,22.00
2854847,0.756888,-0.257176,0.100040,95.199997,30.450001,-80.570000,22.00
2854858,0.747128,-0.221552,0.101992,124.739998,37.520000,-92.260002,22.00
2854869,0.729560,-0.164456,0.088816,155.399994,46.830002,-101.080002,21.99
2854880,0.750544,-0.245464,0.066856,212.660004,57.119999,-114.800003,22.01
2854891,0.732488,-0.099552,0.058560,244.580002,66.430000,-124.250000,22.01
2854902,0.664168,0.004880,0.046848,280.630005,69.930000,-134.190002,21.96
2854912,0.678320,0.087840,0.093696,290.920013,72.449997,-137.690002,21.96
2854923,0.593408,0.175192,0.061000,331.450012,75.180000,-155.820007,21.98
2854934,0.560224,0.312320,0.103456,343.980011,71.680000,-160.509995,21.94
2854945,0.537776,0.501664,0.085400,336.839996,66.989998,-165.339996,21.94
2854956,0.534360,0.594384,0.103456,325.149994,58.310001,-165.830002,22.01
2854967,0.496784,0.711992,0.109800,300.369995,49.209999,-168.000000,22.01
2854978,0.489952,0.697840,0.126392,286.230011,39.759998,-173.320007,22.00
2854989,0.485560,0.762256,0.081008,273.839996,36.540001,-173.600006,22.00
2855000,0.458232,0.941840,0.017568,240.800003,35.139999,-169.330002,22.02
2855010,0.489464,1.220976,0.002440,182.770004,28.770000,-155.610001,21.98
2855021,0.453840,1.353224,-0.050752,143.080002,25.340000,-146.509995,21.98
2855032,0.452376,1.392264,-0.055144,107.099998,26.250000,-141.190002,22.02
2855043,0.485560,1.515728,-0.004880,72.029999,28.980000,-118.019997,22.02
2855054,0.437736,1.633824,0.020984,54.389999,26.740000,-108.919998,22.02
2855065,0.469456,1.652368,0.088816,38.570000,25.830000,-91.419998,22.01
2855076,0.468968,1.671888,0.143472,30.590000,24.920000,-74.830002,22.01
2855087,0.479216,1.734352,0.181048,25.270000,20.370001,-50.400002,21.99
2855098,0.499224,1.752896,0.220088,15.540000,14.910000,-27.230000,21.99
2855109,0.521184,1.750944,0.246928,6.300000,9.730000,-9.660000,22.02
2855120,0.529968,1.777296,0.255712,-4.480000,3.500000,13.580000,22.02
2855131,0.542656,1.778272,0.244976,-29.049999,-2.240000,34.650002,22.00
2855142,0.554368,1.717272,0.232776,-56.349998,-7.070000,50.049999,21.98
2855153,0.544120,1.621136,0.213744,-82.110001,-10.990000,68.949997,21.98
2855164,0.540704,1.540128,0.197152,-101.080002,-13.720000,83.720001,22.04
2855175,0.524112,1.466928,0.195688,-121.730003,-18.059999,94.500000,22.04
2855186,0.520208,1.338584,0.219600,-132.720001,-23.799999,104.510002,22.00
2855197,0.514352,1.246352,0.232776,-138.179993,-28.000000,112.629997,21.99
2855208,0.517280,1.195112,0.220088,-147.910004,-32.689999,121.169998,21.99
2855219,0.509960,1.155584,0.204472,-162.190002,-36.680000,126.000000,21.99
2855230,0.517280,1.070184,0.165432,-180.529999,-39.900002,133.070007,21.99
2855241,0.518256,0.958920,0.139080,-193.830002,-41.650002,137.339996,21.97
2855252,0.550952,0.848632,0.189344,-202.160004,-46.759998,138.949997,21.98
2855263,0.549000,0.727120,0.231312,-202.089996,-47.810001,141.050003,21.98
2855274,0.536800,0.642696,0.230824,-196.979996,-52.570000,142.940002,22.00
2855285,0.552416,0.575840,0.235704,-187.110001,-56.910000,140.139999,22.00
2855296,0.577792,0.522648,0.240584,-178.990005,-57.820000,141.889999,21.99
2855307,0.575840,0.480680,0.242048,-179.759995,-60.060001,140.910004,21.99
2855318,0.592432,0.422120,0.242048,-182.770004,-63.419998,136.149994,21.97
2855329,0.603656,0.359168,0.274256,-189.839996,-67.620003,132.580002,21.98
2855339,0.608536,0.263520,0.243512,-195.929993,-69.930000,124.599998,21.98
2855350,0.648552,0.088328,0.226432,-193.130005,-68.739998,114.660004,21.98
2855361,0.680760,-0.057584,0.257176,-179.970001,-67.199997,103.669998,21.98
2855372,0.703208,-0.143960,0.244488,-161.559998,-63.980000,96.739998,21.99
2855384,0.732488,-0.126392,0.226432,-150.779999,-61.669998,89.110001,21.99
2855395,0.734440,-0.097112,0.187392,-140.979996,-59.500000,80.010002,21.99
2855406,0.750544,-0.154696,0.144448,-128.589996,-58.029999,67.830002,21.98
2855417,0.782264,-0.372344,0.130296,-83.510002,-52.570000,54.880001,21.98
2855428,0.809592,-0.444568,0.130296,-47.459999,-45.009998,42.840000,21.97
2855439,0.806664,-0.374296,0.099552,-13.790000,-38.290001,29.049999,21.97
2855450,0.827160,-0.380640,0.057584,10.290000,-31.780001,16.170000,21.97
2855461,0.813008,-0.382592,0.040992,31.709999,-22.889999,6.230000,21.99
2855472,0.805688,-0.348920,0.026352,43.189999,-15.330000,-8.050000,21.99
2855483,0.813496,-0.312320,0.025864,53.130001,-7.700000,-23.660000,21.96
2855494,0.798856,-0.283528,0.035136,59.570000,1.890000,-36.189999,21.98
2855505,0.780312,-0.307928,0.054656,74.900002,10.430000,-51.799999,21.98
2855515,0.769088,-0.256200,0.064904,84.980003,16.240000,-63.349998,22.03
2855526,0.754936,-0.191296,0.062464,96.040001,21.910000,-73.989998,22.03
2855537,0.763720,-0.199104,0.070760,112.000000,30.799999,-86.730003,22.00
2855548,0.739320,-0.152256,0.033672,137.619995,33.389999,-96.389999,22.00
2855559,0.738832,-0.120048,0.022936,164.360001,44.520000,-108.779999,21.98
2855570,0.731024,-0.086376,-0.024400,180.669998,51.169998,-120.889999,21.98
2855581,0.719800,0.040504,-0.028304,199.639999,60.130001,-133.070007,21.98
2855592,0.661728,0.120536,-0.013664,228.270004,62.790001,-141.610001,21.97
2855603,0.628056,0.205936,0.014152,248.360001,67.059998,-152.179993,21.97
2855614,0.610976,0.339648,-0.000976,265.019989,67.760002,-158.199997,21.96
2855625,0.587064,0.385520,0.066368,274.750000,63.139999,-164.220001,21.98
2855636,0.567544,0.467016,0.054656,280.839996,61.389999,-170.800003,21.98
2855647,0.527528,0.606096,0.060024,280.769989,56.840000,-173.460007,21.92
2855658,0.504592,0.751520,0.055144,270.200012,52.220001,-175.630005,21.92
2855669,0.491416,0.887184,0.023912,256.269989,49.000000,-173.740005,21.98
2855680,0.487512,0.961848,-0.045872,241.710007,47.180000,-170.309998,21.98
2855690,0.509472,1.137040,-0.168848,203.490005,49.560001,-152.809998,21.96
2855702,0.488976,1.422032,-0.213744,141.820007,48.580002,-138.320007,21.97
2855713,0.488000,1.662128,-0.134200,76.089996,42.139999,-121.169998,21.97
2855724,0.549488,1.831952,0.000000,32.830002,38.990002,-94.220001,22.01
2855735,0.510936,1.883192,0.161040,4.270000,34.369999,-74.339996,22.01
2855746,0.514352,1.805600,0.303536,-4.970000,28.490000,-53.060001,22.01
2855757,0.579256,1.765096,0.371368,-2.590000,24.709999,-34.090000,21.98
2855768,0.600240,1.764608,0.393328,-1.190000,20.860001,-12.670000,21.98
2855779,0.633424,1.759728,0.353800,-11.620000,17.570000,9.310000,21.97
2855790,0.661240,1.738744,0.315248,-29.400000,13.020000,26.600000,21.97
2855801,0.658800,1.717760,0.301096,-48.230000,6.930000,49.419998,22.03
2855812,0.651968,1.687016,0.287432,-76.720001,1.610000,71.050003,21.98
2855823,0.630496,1.642608,0.275232,-110.529999,-5.390000,87.150002,21.98
2855834,0.597312,1.500112,0.275720,-138.389999,-12.320000,103.040001,21.96
2855845,0.578768,1.291736,0.314760,-160.089996,-19.040001,115.360001,21.96
2855856,0.555344,1.170712,0.350872,-171.919998,-24.990000,120.610001,21.99
2855867,0.559248,1.017480,0.354776,-176.119995,-30.379999,124.669998,21.99
2855878,0.532408,0.941352,0.298656,-165.830002,-37.869999,125.510002,21.99
2855889,0.562664,0.752008,0.275720,-168.699997,-38.080002,126.349998,21.96
2855900,0.579744,0.792024,0.263032,-161.070007,-40.389999,127.540001,21.96
2855911,0.586088,0.723704,0.228872,-155.960007,-40.810001,127.470001,22.02
2855922,0.596824,0.689544,0.217160,-159.179993,-43.119999,132.369995,22.02
2855933,0.589992,0.658312,0.218136,-172.410004,-45.709999,134.119995,21.96
2855944,0.594872,0.607560,0.228872,-192.220001,-50.540001,137.690002,21.98
2855955,0.593896,0.515816,0.237168,-208.110001,-54.320000,137.899994,21.98
2855966,0.592920,0.374296,0.292312,-209.860001,-58.939999,132.089996,21.96
2855977,0.620736,0.239120,0.288408,-208.949997,-60.549999,125.580002,21.96
2855988,0.650016,0.170800,0.320128,-208.600006,-62.930000,117.459999,22.01
2855999,0.656848,0.097112,0.294264,-211.539993,-65.660004,106.470001,21.96
2856009,0.663680,-0.039040,0.297680,-189.630005,-65.730003,95.199997,21.96
2856020,0.691984,-0.113704,0.278160,-172.270004,-63.419998,89.320000,22.00
2856031,0.704672,-0.067344,0.230336,-156.869995,-62.790001,84.699997,22.00
2856042,0.741272,-0.068808,0.189344,-155.259995,-61.320000,78.680000,22.01
2856054,0.772992,-0.185440,0.154696,-145.600006,-56.700001,67.269997,21.95
2856065,0.790560,-0.339648,0.129320,-108.290001,-50.820000,54.599998,21.95
2856076,0.804224,-0.456280,0.110288,-87.570000,-44.799999,38.919998,21.98
2856087,0.818864,-0.508984,0.101992,-38.290001,-35.630001,23.450001,21.98
2856098,0.811056,-0.446520,0.086864,-4.410000,-27.160000,12.320000,22.00
2856109,0.805200,-0.406016,0.068808,14.490000,-19.459999,-2.240000,22.00
2856120,0.799832,-0.394792,0.060512,33.880001,-12.740000,-17.780001,21.97
2856131,0.782752,-0.375760,0.059048,51.099998,-5.110000,-30.240000,22.00
2856142,0.787632,-0.315248,0.067832,59.009998,2.870000,-44.520000,22.00
2856153,0.779824,-0.271816,0.075152,66.989998,9.030000,-58.169998,22.00
2856164,0.762744,-0.273280,0.097600,79.449997,16.030001,-68.529999,22.00
2856175,0.753960,-0.216184,0.102480,91.910004,23.730000,-79.730003,21.98
2856186,0.746640,-0.198616,0.078568,108.849998,27.650000,-91.629997,21.95
2856196,0.752496,-0.176656,0.084912,138.179993,37.799999,-101.779999,21.95
2856207,0.733464,-0.137616,0.073200,172.759995,44.590000,-112.910004,22.00
2856218,0.725168,-0.051240,0.070760,197.679993,54.599998,-124.949997,22.00
2856229,0.685640,0.029280,0.093696,230.369995,57.470001,-134.399994,21.97
2856240,0.653432,0.152256,0.124928,250.179993,56.000000,-141.259995,21.97
2856251,0.663680,0.283528,0.130784,253.119995,57.400002,-147.210007,21.95
2856262,0.609024,0.353800,0.130296,270.760010,54.880001,-150.289993,21.95
2856272,0.607072,0.403088,0.085888,276.220001,53.270000,-156.729996,21.95
2856283,0.599264,0.524600,0.050752,281.540009,50.889999,-159.389999,21.96
2856294,0.568520,0.658312,0.016104,276.779999,46.900002,-160.229996,21.96
2856305,0.564128,0.698328,-0.004392,268.589996,41.580002,-163.800003,21.97
2856316,0.554368,0.850096,-0.012688,262.079987,40.040001,-158.339996,21.93
2856328,0.509960,1.119960,0.018056,228.410004,36.259998,-147.070007,21.93
2856338,0.534848,1.265872,0.009760,182.979996,27.650000,-136.919998,21.96
2856350,0.552416,1.337120,0.000976,143.500000,22.750000,-125.790001,21.96
2856361,0.549976,1.395192,0.007808,113.750000,25.900000,-114.800003,21.98
2856371,0.562176,1.509872,0.036112,80.500000,25.410000,-100.589996,21.96
2856382,0.565592,1.686040,0.065392,57.610001,23.520000,-82.040001,21.96
2856393,0.577304,1.747040,0.122488,30.030001,21.420000,-58.590000,21.98
2856404,0.593896,1.745576,0.172752,10.570000,21.700001,-43.470001,21.98
2856415,0.597800,1.745088,0.211304,-2.310000,14.910000,-21.209999,21.96
2856426,0.628544,1.738256,0.250344,-21.350000,12.600000,0.490000,21.96
2856437,0.629032,1.683600,0.263032,-35.279999,7.070000,16.450001,21.95
2856447,0.640256,1.626992,0.257176,-45.849998,0.980000,36.189999,21.99
2856458,0.642208,1.565992,0.252784,-60.619999,-3.080000,55.580002,21.99
2856470,0.632448,1.500600,0.244976,-76.930000,-8.680000,72.940002,21.98
2856481,0.621712,1.430816,0.229848,-95.339996,-13.720000,87.290001,21.98
2856491,0.608536,1.380064,0.201544,-115.500000,-18.830000,100.730003,21.98
2856502,0.595848,1.332728,0.185440,-146.929993,-22.190001,112.419998,21.95
2856513,0.584136,1.251232,0.176656,-181.580002,-27.230000,120.540001,21.95
2856524,0.572424,1.133624,0.191784,-210.070007,-29.750000,125.510002,21.98
2856535,0.559736,0.996008,0.230824,-226.449997,-33.250000,126.489998,21.98
2856546,0.556808,0.856440,0.212280,-225.960007,-37.660000,120.610001,21.98
2856557,0.565592,0.743224,0.225456,-232.119995,-43.119999,121.589996,21.98
2856568,0.577304,0.632936,0.230824,-228.899994,-48.160000,120.680000,22.02
2856579,0.603168,0.537776,0.245464,-221.899994,-54.180000,118.440002,21.95
2856590,0.596824,0.479704,0.244000,-213.080002,-57.119999,118.930000,21.95
2856601,0.623664,0.430904,0.252784,-211.119995,-59.990002,120.190002,21.97
2856612,0.629032,0.410896,0.278160,-212.589996,-62.160000,118.160004,21.97
2856623,0.647576,0.353312,0.253272,-220.289993,-64.120003,116.059998,21.94
2856634,0.656848,0.271816,0.220088,-227.429993,-65.870003,113.050003,21.95
2856645,0.686128,0.102968,0.261568,-216.020004,-65.519997,103.599998,21.95
2856656,0.694912,-0.038064,0.264496,-186.830002,-64.050003,95.900002,21.97
2856667,0.701256,-0.075152,0.269864,-155.889999,-60.480000,88.410004,21.97
2856679,0.736392,-0.128832,0.263520,-125.230003,-57.259998,79.660004,21.96
2856690,0.771528,-0.147864,0.255712,-104.230003,-52.009998,71.470001,21.94
2856700,0.768112,-0.168848,0.206424,-82.529999,-48.160000,62.299999,21.94
2856711,0.789584,-0.207400,0.172752,-63.910000,-43.610001,52.849998,21.94
2856722,0.822768,-0.236680,0.126392,-54.459999,-35.840000,41.369999,21.94
2856733,0.839360,-0.335744,0.098088,-33.250000,-29.260000,27.440001,21.99
2856744,0.848632,-0.364048,0.081984,-12.110000,-19.040001,17.570000,21.96
2856755,0.833016,-0.347456,0.091744,6.930000,-10.430000,5.390000,21.96
2856766,0.824232,-0.304512,0.095160,16.240000,-2.940000,-7.840000,21.93
2856777,0.804712,-0.297680,0.093208,27.719999,2.660000,-22.120001,21.93
2856788,0.793976,-0.319152,0.091744,42.700001,9.940000,-34.509998,21.97
2856799,0.785680,-0.320616,0.102968,59.570000,17.990000,-49.840000,21.97
2856811,0.762256,-0.239120,0.114192,73.290001,23.309999,-62.860001,21.90
2856821,0.756888,-0.228384,0.122976,88.059998,29.330000,-72.449997,21.95
2856832,0.752496,-0.239120,0.127368,115.430000,36.330002,-84.769997,21.95
2856844,0.723704,-0.121024,0.113216,131.179993,42.419998,-96.250000,21.96
2856855,0.719312,-0.094672,0.081008,158.690002,48.439999,-109.199997,21.96
2856866,0.721264,-0.046848,0.061488,191.169998,57.049999,-116.620003,21.96
2856877,0.715408,0.090280,0.048312,214.550003,59.290001,-125.300003,21.98
2856888,0.721752,0.215696,0.040016,232.190002,62.790001,-132.789993,21.98
2856898,0.696864,0.317200,-0.021960,251.300003,70.070000,-136.289993,21.91
2856909,0.659288,0.413824,-0.013176,264.109985,69.160004,-139.160004,21.91
2856920,0.652944,0.512400,0.042944,275.660004,69.160004,-141.610001,21.99
2856931,0.623664,0.545096,0.064904,289.660004,66.570000,-146.160004,21.98
2856942,0.605120,0.597312,0.075640,295.820007,65.099998,-147.839996,21.98
2856953,0.569008,0.672952,0.072712,297.640015,60.549999,-150.009995,21.96
2856964,0.566080,0.819352,0.061976,279.510010,57.750000,-145.039993,21.96
2856975,0.540216,1.094584,0.058560,243.809998,54.320000,-131.389999,21.97
2856985,0.540216,1.217560,0.019032,195.020004,48.439999,-120.540001,21.97
2856996,0.563152,1.342488,0.037576,144.199997,48.720001,-108.500000,21.99
2857007,0.541680,1.567944,0.093208,104.160004,44.380001,-90.790001,21.93
2857018,0.578768,1.629920,0.196176,58.799999,39.480000,-76.650002,21.93
2857028,0.573888,1.641144,0.282552,29.820000,33.950001,-65.449997,21.94
2857039,0.584136,1.587952,0.381128,18.480000,29.750000,-49.490002,21.94
2857050,0.600240,1.559160,0.417240,14.560000,26.809999,-34.299999,21.96
2857062,0.607560,1.564040,0.408456,9.380000,22.049999,-22.610001,21.88
2857073,0.613904,1.610888,0.402112,-2.800000,15.610000,-4.270000,21.88
2857084,0.609024,1.649440,0.392840,-19.809999,6.650000,16.170000,21.93
2857095,0.615856,1.638216,0.394792,-45.919998,-1.050000,36.540001,21.93
2857106,0.622688,1.582096,0.385520,-73.779999,-8.820000,52.220001,22.00
2857117,0.613416,1.502552,0.366976,-98.980003,-14.980000,70.419998,22.00
2857128,0.606096,1.339560,0.349408,-121.870003,-20.930000,83.720001,21.96
2857139,0.599264,1.123376,0.398208,-115.849998,-24.010000,90.860001,21.93
2857150,0.582672,1.016504,0.380640,-97.300003,-26.110001,95.830002,21.93
2857161,0.587552,0.976488,0.341600,-85.750000,-29.049999,99.190002,21.96
2857172,0.597800,0.960872,0.280600,-78.680000,-30.240000,101.919998,21.96
2857183,0.599752,0.942816,0.217648,-86.239998,-33.180000,108.570000,21.96
2857195,0.607560,0.939888,0.158112,-109.830002,-35.209999,112.139999,21.94
2857206,0.624152,0.943792,0.126392,-150.779999,-36.680000,117.250000,21.94
2857218,0.609024,0.919392,0.144936,-196.770004,-40.459999,123.269997,21.96
2857229,0.594872,0.871568,0.173240,-243.320007,-44.099998,124.040001,21.96
2857240,0.580232,0.775920,0.195200,-276.010010,-49.560001,122.080002,21.94
2857252,0.574376,0.530456,0.231800,-290.359985,-56.700001,113.680000,21.95
2857263,0.635864,0.287920,0.253272,-274.399994,-59.009998,99.190002,21.95
2857274,0.641720,0.194712,0.242048,-251.300003,-60.549999,93.169998,21.95
2857285,0.657336,0.165432,0.256688,-227.779999,-57.400002,84.629997,21.95
2857296,0.692960,0.177144,0.267424,-220.500000,-56.840000,83.370003,21.94
2857307,0.708088,0.177144,0.256688,-217.839996,-56.209999,81.620003,21.95
2857318,0.704184,0.147376,0.259128,-223.580002,-57.959999,79.099998,21.95
2857329,0.721264,0.080520,0.261568,-229.529999,-58.799999,77.070000,21.98
2857339,0.719800,0.040016,0.242536,-235.479996,-60.130001,74.129997,21.98
2857351,0.730048,0.011224,0.228872,-241.779999,-61.950001,68.809998,21.96
2857361,0.746152,-0.014152,0.206912,-246.259995,-61.389999,61.250000,21.99
2857372,0.766160,-0.150792,0.120048,-233.869995,-58.380001,45.849998,21.99
2857384,0.803736,-0.296704,0.165920,-200.830002,-52.430000,38.290001,21.95
2857395,0.779824,-0.444080,0.048312,-143.220001,-43.400002,16.030001,21.95
2857406,0.837408,-0.420656,0.134688,-121.239998,-33.389999,9.030000,21.98
2857417,0.840824,-0.433344,0.141520,-76.370003,-24.430000,-4.760000,21.97
2857428,0.864736,-0.450912,0.074664,-43.889999,-8.330000,-14.490000,21.97
2857439,0.837896,-0.433832,0.059048,-11.270000,2.520000,-23.030001,21.96
2857450,0.852536,-0.400160,0.078080,12.670000,15.470000,-30.940001,21.96
2857461,0.824232,-0.329400,0.074664,35.419998,22.889999,-39.480000,21.98
2857472,0.812032,-0.319640,0.076616,61.599998,31.219999,-47.669998,21.99
2857484,0.809592,-0.287432,0.087352,84.489998,38.709999,-58.520000,21.99
2857495,0.794952,-0.279136,0.088328,110.180000,44.869999,-71.260002,21.98
2857506,0.781288,-0.284504,0.089304,133.210007,51.099998,-82.459999,21.98
2857517,0.776896,-0.313296,0.083448,179.199997,56.419998,-94.709999,21.96
2857528,0.756400,-0.244976,0.070760,232.889999,66.430000,-103.459999,21.95
2857539,0.733952,-0.083448,0.069296,266.630005,72.239998,-111.930000,21.95
2857550,0.712968,0.031232,0.095160,292.739990,74.059998,-122.500000,21.95
2857560,0.697840,0.058072,0.109800,317.869995,78.750000,-132.369995,21.95
2857571,0.725168,0.186904,0.187392,308.980011,85.820000,-137.550003,21.98
2857582,0.592920,0.391864,0.203496,326.690002,77.279999,-139.300003,21.98
2857593,0.592432,0.531920,0.258152,322.489990,68.809998,-144.550003,22.00
2857604,0.595360,0.581696,0.276696,329.980011,63.630001,-146.789993,21.93
2857615,0.549488,0.694424,0.273280,331.589996,57.750000,-147.070007,21.93
2857626,0.528992,0.755912,0.209352,336.000000,48.090000,-150.850006,21.96
2857637,0.552904,0.829112,0.055144,326.480011,44.660000,-151.199997,21.96
2857648,0.548024,0.967216,-0.046360,296.660004,45.500000,-142.940002,21.95
2857659,0.508496,1.141432,-0.074664,247.169998,40.810001,-133.490005,21.98
2857670,0.482144,1.428376,-0.023424,202.020004,33.880001,-112.419998,21.98
2857681,0.476288,1.670424,0.057584,146.649994,28.209999,-89.529999,21.93
2857692,0.503128,1.752408,0.135176,104.790001,20.299999,-70.839996,21.93
2857703,0.523624,1.734352,0.209840,76.580002,12.810000,-56.419998,21.98
2857714,0.546560,1.630896,0.263520,63.770000,8.330000,-40.250000,21.98
2857725,0.558760,1.610888,0.268400,54.110001,7.420000,-22.680000,21.89
2857736,0.598776,1.608936,0.209840,42.349998,6.440000,-6.790000,21.94
2857747,0.636352,1.612352,0.154208,29.469999,9.170000,11.340000,21.94
2857757,0.639280,1.602104,0.136152,9.870000,8.260000,30.240000,21.95
2857768,0.629520,1.589416,0.146400,-12.670000,3.640000,44.240002,21.95
2857779,0.635864,1.520120,0.157624,-32.689999,-3.080000,60.130001,21.95
2857790,0.633424,1.447896,0.163480,-55.299999,-7.770000,74.620003,21.90
2857801,0.620248,1.335168,0.163480,-73.919998,-13.300000,84.209999,21.90
2857812,0.628544,1.194624,0.161040,-80.080002,-13.090000,95.760002,21.95
2857823,0.600728,1.141432,0.133224,-85.680000,-15.890000,103.949997,21.95
2857834,0.612440,1.068232,0.092720,-92.610001,-12.810000,110.250000,21.93
2857845,0.601704,1.022360,0.081496,-106.750000,-15.050000,113.610001,21.93
2857856,0.607072,1.007720,0.082960,-123.550003,-16.660000,119.839996,21.93
2857867,0.600728,1.003328,0.100528,-152.460007,-18.340000,122.220001,21.92
2857878,0.557784,0.939400,0.103456,-180.600006,-21.629999,117.320000,21.92
2857888,0.606584,0.833504,0.140056,-199.990005,-23.940001,126.419998,21.89
2857899,0.571448,0.738344,0.146888,-210.070007,-26.670000,124.180000,21.89
2857910,0.609512,0.656848,0.184952,-220.220001,-28.280001,126.279999,21.95
2857921,0.614880,0.535336,0.212280,-220.009995,-33.950001,122.779999,21.96
2857932,0.626592,0.481168,0.246928,-220.289993,-38.080002,119.559998,21.96
2857943,0.615856,0.433832,0.222040,-216.720001,-37.939999,115.080002,21.93
2857954,0.643184,0.402600,0.216672,-218.259995,-40.180000,115.010002,21.93
2857965,0.648064,0.365024,0.212280,-220.850006,-41.439999,111.650002,21.92
2857977,0.703696,0.265472,0.178120,-225.820007,-41.720001,106.330002,21.90
2857988,0.726144,0.145424,0.176168,-221.899994,-40.669998,99.330002,21.90
2857999,0.728584,0.056608,0.176168,-216.229996,-40.250000,96.110001,21.95
2858010,0.744688,0.000000,0.205448,-213.360001,-40.950001,89.669998,21.95
2858021,0.758352,-0.044896,0.254248,-211.190002,-41.369999,81.690002,21.97
2858032,0.762256,-0.151768,0.262056,-201.179993,-41.930000,75.389999,21.93
2858043,0.748592,-0.252296,0.206424,-182.490005,-42.980000,60.970001,21.93
2858054,0.796416,-0.307440,0.235704,-176.539993,-42.139999,54.950001,21.90
2858065,0.806664,-0.375272,0.238632,-150.500000,-40.599998,42.910000,21.90
2858076,0.866200,-0.439688,0.136152,-127.050003,-32.130001,35.419998,21.93
2858087,0.874984,-0.435784,0.134200,-104.230003,-24.780001,25.200001,21.93
2858099,0.869616,-0.421632,0.125904,-80.919998,-15.050000,13.720000,21.91
2858110,0.858392,-0.406992,0.131272,-63.700001,-5.600000,3.010000,21.95
2858121,0.834968,-0.397720,0.134688,-42.910000,1.400000,-8.400000,21.95
2858132,0.823256,-0.377712,0.138592,-19.459999,10.990000,-18.129999,21.93
2858144,0.806664,-0.376248,0.136152,9.870000,20.090000,-32.060001,21.93
2858154,0.800808,-0.347944,0.136152,29.330000,28.350000,-44.730000,21.89
2858165,0.793488,-0.300120,0.121512,50.680000,34.230000,-57.750000,21.94
2858176,0.788608,-0.210816,0.094672,67.900002,42.070000,-67.830002,21.94
2858187,0.775920,-0.169336,0.049288,80.290001,50.820000,-80.360001,21.93
2858199,0.781776,-0.244976,0.020984,109.620003,61.810001,-93.309998,21.93
2858210,0.763720,-0.202032,0.056120,141.119995,71.050003,-103.389999,21.93
2858221,0.722728,-0.129320,0.119560,166.320007,76.930000,-111.300003,21.90
2858232,0.710528,-0.094672,0.194224,196.699997,81.970001,-119.139999,21.90
2858243,0.665632,-0.093208,0.275232,238.210007,87.360001,-127.120003,21.94
2858254,0.615368,0.024400,0.298168,288.260010,88.339996,-131.389999,21.94
2858265,0.581696,0.257176,0.296704,325.079987,87.290001,-136.009995,21.92
2858276,0.556808,0.388936,0.239120,350.000000,86.239998,-141.259995,21.96
2858286,0.587552,0.432368,0.264984,371.489990,81.410004,-143.779999,21.96
2858298,0.564616,0.487512,0.203984,392.000000,74.830002,-149.449997,21.92
2858308,0.552416,0.575840,0.164456,395.779999,65.870003,-153.929993,21.92
2858319,0.531920,0.810080,0.167872,369.040009,60.270000,-148.960007,21.91
2858330,0.482144,0.978928,0.135176,329.279999,51.590000,-146.229996,21.91
2858341,0.512888,1.112640,0.074664,286.369995,47.950001,-130.199997,21.92
2858352,0.503128,1.303936,0.000488,232.470001,44.450001,-112.419998,21.92
2858362,0.503128,1.559648,-0.007320,188.509995,37.590000,-93.660004,21.92
2858373,0.565104,1.752408,0.061488,131.529999,25.410000,-77.139999,21.97
2858384,0.576816,1.783152,0.131760,83.160004,20.299999,-63.910000,21.97
2858395,0.568520,1.697752,0.265960,57.750000,12.740000,-51.240002,21.93
2858406,0.611952,1.632848,0.332328,39.340000,13.230000,-34.509998,21.92
2858417,0.613904,1.625040,0.368440,28.700001,8.540000,-22.889999,21.92
2858428,0.651480,1.639192,0.337696,19.389999,9.380000,-7.140000,21.92
2858438,0.657824,1.650904,0.296704,0.910000,7.000000,11.270000,21.92
2858449,0.662704,1.635288,0.280600,-23.870001,3.080000,25.969999,21.96
2858460,0.658312,1.602104,0.253272,-46.270000,-3.220000,45.639999,21.96
2858471,0.649040,1.495720,0.244976,-75.949997,-7.910000,63.139999,21.92
2858482,0.642696,1.384944,0.259616,-99.750000,-13.020000,75.599998,21.93
2858493,0.628056,1.251232,0.279624,-113.330002,-19.110001,89.040001,21.93
2858504,0.634888,1.153632,0.290360,-124.669998,-20.650000,100.239998,21.93
2858515,0.620248,1.063352,0.282552,-133.139999,-24.780001,105.349998,21.93
2858526,0.619760,0.945744,0.278648,-129.500000,-27.020000,107.589996,21.94
2858537,0.641232,0.885232,0.264984,-127.050003,-28.629999,109.059998,21.95
2858548,0.601216,0.839360,0.254248,-126.419998,-30.940001,108.989998,21.95
2858559,0.630984,0.813984,0.237656,-135.029999,-30.660000,110.180000,21.92
2858570,0.634888,0.749568,0.210816,-144.970001,-31.010000,112.139999,21.92
2858581,0.645136,0.703208,0.197640,-164.990005,-31.010000,114.730003,21.93
2858592,0.637328,0.664168,0.187392,-186.619995,-33.250000,115.849998,21.94
2858603,0.631960,0.616832,0.192272,-206.149994,-38.919998,116.970001,21.94
2858614,0.604144,0.543144,0.201544,-225.679993,-45.779999,113.470001,21.95
2858625,0.645624,0.451888,0.237656,-240.029999,-46.830002,109.269997,21.95
2858636,0.657824,0.308416,0.257176,-240.589996,-50.820000,104.160004,21.91
2858647,0.660264,0.207888,0.261080,-230.089996,-52.849998,95.059998,21.91
2858658,0.677832,0.132248,0.266448,-221.479996,-52.779999,88.480003,21.93
2858669,0.698816,0.068320,0.295728,-208.389999,-52.009998,80.919998,21.96
2858680,0.699792,-0.007320,0.306464,-190.750000,-52.290001,75.879997,21.96
2858691,0.736392,-0.078568,0.297192,-177.309998,-50.889999,72.099998,21.93
2858702,0.756888,-0.104920,0.299144,-162.820007,-50.750000,66.010002,21.93
2858714,0.783728,-0.123952,0.247904,-150.850006,-46.759998,60.200001,21.90
2858725,0.791536,-0.142496,0.184464,-138.110001,-41.860001,36.119999,21.92
2858736,0.795928,-0.185440,0.143960,-120.190002,-36.400002,43.259998,21.92
2858747,0.818376,-0.337208,0.124440,-92.260002,-27.790001,28.629999,21.95
2858758,0.818376,-0.415288,0.111752,-49.139999,-1.260000,13.440000,21.95
2858769,0.798368,-0.427976,0.116144,-5.180000,-8.820000,-17.430000,21.94
2858781,0.793000,-0.397232,0.122976,27.160000,1.120000,-14.420000,21.90
2858792,0.777872,-0.352336,0.114680,50.610001,8.120000,-28.139999,21.90
2858803,0.776896,-0.314272,0.120048,63.419998,14.630000,-41.090000,21.90
2858814,0.769576,-0.245464,0.143960,71.190002,19.809999,-52.639999,21.90
2858825,0.747616,-0.197640,0.163480,77.489998,25.549999,-61.740002,21.92
2858836,0.722240,-0.218136,0.165920,98.839996,33.040001,-74.129997,21.89
2858847,0.702232,-0.182024,0.163968,129.919998,39.549999,-86.029999,21.89
2858858,0.712968,-0.226920,0.157136,178.570007,44.799999,-101.430000,21.93
2858869,0.726632,-0.222528,0.150792,226.589996,53.340000,-111.089996,21.93
2858880,0.691008,-0.103456,0.138592,259.140015,59.500000,-122.709999,21.95
2858891,0.664656,0.004392,0.158112,297.500000,62.860001,-134.820007,21.90
2858902,0.644648,0.180560,0.171288,319.200012,62.020000,-139.789993,21.90
2858913,0.503616,0.353312,0.183000,321.299988,58.869999,-146.929993,21.93
2858924,0.578768,0.498736,0.150792,332.079987,52.500000,-147.070007,21.93
2858934,0.576816,0.607072,0.172752,326.619995,45.009998,-150.779999,21.94
2858945,0.568520,0.670512,0.146400,329.630005,36.820000,-153.649994,21.94
2858956,0.574376,0.784704,0.085888,314.510010,33.880001,-152.529999,21.94
2858967,0.562176,0.901824,0.032696,280.769989,30.100000,-148.960007,21.93
2858978,0.572424,0.995032,-0.013176,246.960007,29.260000,-140.770004,21.93
2858989,0.533872,1.238544,-0.013664,189.910004,27.020000,-121.870003,21.91
2858999,0.493856,1.575752,0.013664,132.300003,20.440001,-104.580002,21.91
2859010,0.542656,1.699704,0.078568,93.730003,12.950000,-79.239998,21.93
2859021,0.546560,1.711416,0.109312,55.299999,8.610000,-72.169998,21.91
2859032,0.579256,1.639192,0.148840,34.790001,7.910000,-59.009998,21.91
2859044,0.610000,1.604056,0.169336,27.020000,7.980000,-43.330002,21.94
2859054,0.621224,1.610888,0.151280,15.960000,9.450000,-26.250000,21.94
2859067,0.646112,1.654320,0.122976,-3.640000,10.990000,-6.580000,21.92
2859077,0.654408,1.669936,0.139080,-31.010000,7.770000,15.610000,21.91
2859088,0.651480,1.633336,0.176656,-58.169998,2.730000,30.940001,21.91
2859099,0.641232,1.541592,0.224968,-78.050003,-5.110000,49.209999,21.89
2859110,0.645624,1.443504,0.245952,-96.110001,-8.400000,64.470001,21.89
2859122,0.640744,1.324920,0.239120,-110.389999,-12.250000,77.209999,21.96
2859133,0.633912,1.238056,0.220088,-123.970001,-15.190000,86.519997,21.92
2859144,0.632448,1.123864,0.218624,-129.500000,-16.940001,95.339996,21.92
2859155,0.618296,1.036512,0.212280,-135.029999,-20.790001,102.620003,21.94
2859166,0.620248,0.988688,0.214232,-141.399994,-22.400000,107.169998,21.94
2859177,0.623664,0.931104,0.215208,-150.639999,-24.430000,108.570000,21.95
2859188,0.589992,0.864248,0.172264,-159.740005,-26.530001,103.879997,21.95
2859199,0.641232,0.812520,0.230824,-173.179993,-26.950001,112.489998,21.93
2859210,0.609512,0.757376,0.242536,-186.759995,-30.309999,114.239998,21.89
2859221,0.631960,0.726144,0.256688,-199.500000,-34.720001,113.330002,21.89
2859232,0.615856,0.612928,0.203008,-206.710007,-38.290001,115.849998,21.88
2859243,0.617808,0.561200,0.181536,-218.050003,-41.020000,110.669998,21.88
2859254,0.637328,0.484096,0.206912,-230.160004,-45.220001,112.769997,21.96
2859265,0.644160,0.373320,0.237656,-233.309998,-47.669998,105.769997,21.90
2859276,0.655384,0.282064,0.322568,-229.529999,-50.330002,101.919998,21.90
2859287,0.681736,0.189344,0.336232,-212.100006,-49.910000,96.040001,21.89
2859299,0.694424,0.094184,0.342576,-189.839996,-49.279999,90.300003,21.89
2859309,0.721264,-0.001952,0.343064,-168.699997,-48.650002,84.070000,21.95
2859320,0.747128,-0.042944,0.320128,-149.520004,-46.970001,81.410004,21.89
2859331,0.746640,-0.042944,0.290848,-136.710007,-46.619999,76.790001,21.89
2859342,0.770064,-0.052704,0.259128,-127.470001,-44.520000,70.629997,21.91
2859353,0.792512,-0.087352,0.221552,-117.739998,-40.529999,63.840000,21.91
2859365,0.807640,-0.142008,0.204960,-105.000000,-36.259998,53.970001,21.93
2859376,0.816912,-0.242048,0.194712,-74.129997,-29.680000,43.119999,21.88
2859387,0.818864,-0.302072,0.176168,-47.599998,-22.049999,30.170000,21.88
2859397,0.817400,-0.323056,0.154208,-17.290001,-16.170000,16.170000,21.95
2859409,0.824232,-0.319640,0.165920,4.410000,-9.240000,4.900000,21.95
2859419,0.815448,-0.299632,0.179096,22.190001,-2.030000,-8.260000,21.90
2859431,0.797392,-0.273280,0.182512,35.700001,3.290000,-21.350000,21.90
2859442,0.804224,-0.286456,0.185440,47.740002,8.960000,-33.250000,21.93
2859453,0.793000,-0.247904,0.179584,60.970001,17.080000,-41.230000,21.87
2859464,0.772504,-0.210328,0.175192,72.660004,23.660000,-51.730000,21.87
2859475,0.779336,-0.245952,0.158600,89.739998,33.320000,-63.910000,21.93
2859486,0.760304,-0.200568,0.161040,123.480003,39.830002,-76.019997,21.93
2859497,0.734440,-0.162992,0.155672,155.119995,45.779999,-86.940002,21.96
2859508,0.736880,-0.141520,0.158600,179.690002,51.169998,-99.470001,21.90
2859519,0.718336,-0.078568,0.184952,200.759995,53.619999,-110.320000,21.90
2859530,0.692472,-0.006344,0.238144,217.210007,53.970001,-118.650002,21.89
2859541,0.659776,0.086376,0.270840,235.619995,52.570000,-126.769997,21.89
2859552,0.625616,0.273768,0.294264,242.690002,49.349998,-131.740005,21.89
2859565,0.619760,0.382104,0.288408,253.889999,44.939999,-138.320007,21.89
2859581,0.629032,0.510448,0.270840,274.470001,44.029999,-141.330002,21.92
2859596,0.599752,0.634400,0.200080,284.899994,38.430000,-145.529999,21.92
2859607,0.611952,0.653920,0.125416,286.859985,34.930000,-148.399994,21.91
2859618,0.614392,0.766160,0.091256,276.500000,35.419998,-145.809998,21.93
2859629,0.559736,1.034072,0.038552,245.630005,33.810001,-136.360001,21.93
2859640,0.527040,1.249768,0.027328,199.710007,28.559999,-120.820000,21.92
2859652,0.546560,1.382992,0.048312,156.869995,21.350000,-105.769997,21.92
2859663,0.527040,1.480592,0.106872,123.410004,15.680000,-91.699997,21.97
2859674,0.506544,1.563064,0.106872,89.320000,9.030000,-72.309998,21.97
2859684,0.555832,1.581120,0.159576,69.160004,4.690000,-59.500000,21.91
2859695,0.587552,1.588440,0.163968,47.880001,4.830000,-45.779999,21.93
2859706,0.588528,1.613816,0.153720,31.500000,3.500000,-26.110001,21.93
2859717,0.584136,1.741672,0.127856,8.890000,4.340000,-7.000000,21.91
2859728,0.630496,1.660664,0.110776,-19.600000,1.820000,6.300000,21.91
2859739,0.638792,1.670424,0.113704,-48.369999,-0.070000,25.620001,21.91
2859749,0.636840,1.600640,0.164944,-80.849998,-3.780000,40.950001,21.92
2859760,0.630496,1.498160,0.191784,-106.959999,-9.100000,52.220001,21.92
2859771,0.626592,1.382992,0.218624,-142.869995,-11.970000,66.150002,21.93
2859782,0.617808,1.252208,0.238632,-138.320007,-16.240000,77.559998,21.93
2859794,0.610976,1.160952,0.248880,-147.070007,-20.090000,85.260002,21.91
2859804,0.610000,1.059448,0.249368,-152.669998,-23.379999,93.449997,21.91
2859815,0.614880,0.979416,0.234240,-158.059998,-27.790001,99.050003,21.90
2859826,0.643184,0.944280,0.230336,-167.229996,-30.240000,103.949997,21.89
2859838,0.627080,0.869128,0.227408,-176.119995,-31.570000,107.519997,21.89
2859849,0.638304,0.814960,0.248392,-182.839996,-33.529999,108.010002,21.91
2859860,0.629032,0.717360,0.249368,-181.789993,-35.070000,109.550003,21.91
2859871,0.624152,0.646600,0.267424,-176.050003,-40.250000,106.820000,21.91
2859882,0.617320,0.575352,0.275232,-170.589996,-40.669998,108.360001,21.89
2859892,0.641720,0.530456,0.295728,-166.460007,-42.840000,107.099998,21.89
2859903,0.653432,0.466040,0.278648,-169.820007,-43.750000,105.699997,21.93
2859914,0.682224,0.419192,0.288408,-172.479996,-45.779999,101.570000,21.93
2859925,0.688080,0.369416,0.286456,-176.610001,-45.220001,97.930000,21.96
2859936,0.679296,0.298656,0.283528,-179.130005,-44.869999,91.000000,21.85
2859947,0.686616,0.228872,0.276696,-179.830002,-43.750000,85.120003,21.85
2859958,0.692472,0.152256,0.320616,-178.500000,-45.150002,79.099998,21.92
2859969,0.718824,0.071736,0.348432,-166.600006,-44.799999,76.300003,21.92
2859980,0.731512,0.036112,0.348432,-154.910004,-45.150002,71.820000,21.91
2859991,0.747128,0.024888,0.301584,-144.059998,-44.380001,66.709999,21.91
2860002,0.772992,-0.007808,0.275232,-143.429993,-43.259998,60.830002,21.85
2860013,0.789584,-0.066856,0.239608,-134.330002,-39.410000,53.970001,21.89
2860024,0.813984,-0.133224,0.211304,-119.349998,-34.439999,44.310001,21.89
2860035,0.829600,-0.298656,0.197152,-84.629997,-26.600000,30.309999,21.88
2860046,0.836432,-0.329888,0.147376,-43.049999,-18.410000,12.320000,21.88
2860057,0.830576,-0.299144,0.145424,-4.200000,-11.060000,8.540000,21.91
2860068,0.823744,-0.276208,0.132248,19.879999,-0.560000,-2.800000,21.88
2860079,0.809592,-0.236680,0.135664,42.139999,4.970000,-14.770000,21.88
2860090,0.796416,-0.224968,0.149328,58.869999,11.200000,-23.730000,21.93
2860101,0.787632,-0.250344,0.161040,78.680000,17.570000,-36.049999,21.93
2860112,0.774944,-0.162992,0.185440,89.389999,24.430000,-46.200001,21.93
2860123,0.748104,-0.164456,0.183000,114.099998,30.100000,-59.220001,21.89
2860133,0.745664,-0.146400,0.185440,144.899994,36.400002,-67.620003,21.89
2860145,0.732488,-0.117608,0.169824,167.789993,43.119999,-80.290001,21.92
2860155,0.731024,-0.137616,0.157624,202.580002,47.950001,-95.199997,21.92
2860166,0.722240,-0.092720,0.195200,232.470001,54.459999,-103.809998,21.90
2860177,0.680760,-0.014640,0.221552,257.950012,55.650002,-116.339996,21.90
2860188,0.665144,0.064416,0.265472,288.820007,55.650002,-124.599998,21.88
2860199,0.578768,0.177632,0.227896,296.309998,54.040001,-126.839996,21.85
2860210,0.617320,0.377712,0.268400,300.510010,45.849998,-131.250000,21.85
2860221,0.638304,0.458720,0.151768,302.679993,44.169998,-135.380005,21.89
2860232,0.617320,0.457744,0.058560,318.429993,44.099998,-141.190002,21.89
2860243,0.603168,0.401624,-0.014152,340.480011,46.340000,-148.259995,21.90
2860254,0.563640,0.741272,-0.108336,328.790009,48.580002,-140.139999,21.86
2860265,0.514352,1.004792,-0.129808,298.760010,40.880001,-131.320007,21.86
2860275,0.545096,1.269288,-0.138104,247.800003,35.349998,-112.980003,21.87
2860286,0.547536,1.451800,-0.106872,205.800003,26.740000,-90.930000,21.87
2860298,0.557784,1.527928,-0.046848,159.039993,20.370001,-75.459999,21.90
2860309,0.575352,1.640656,0.118584,117.389999,9.310000,-62.930000,21.84
2860319,0.594384,1.708976,0.064416,89.250000,4.760000,-51.099998,21.84
2860330,0.625128,1.505968,0.105408,63.490002,5.530000,-39.689999,21.85
2860341,0.654896,1.538176,0.100040,47.880001,10.640000,-27.719999,21.85
2860352,0.679296,1.542080,0.081008,33.459999,15.120000,-14.770000,21.86
2860363,0.715896,1.577216,0.065392,11.830000,18.760000,15.540000,21.86
2860373,0.689056,1.597224,0.061976,-11.060000,17.639999,14.770000,21.92
2860384,0.691984,1.574288,0.076616,-31.430000,16.100000,32.689999,21.92
2860395,0.680272,1.515728,0.124928,-58.869999,10.010000,47.599998,21.92
2860406,0.665632,1.396168,0.160064,-81.129997,3.080000,64.470001,21.89
2860417,0.660752,1.299544,0.184464,-95.410004,1.330000,79.449997,21.89
2860428,0.633912,1.229272,0.168360,-115.709999,-7.770000,91.910004,21.90
2860439,0.638304,1.176568,0.151768,-138.320007,-11.480000,100.519997,21.90
2860450,0.618296,1.131672,0.106384,-156.309998,-14.350000,106.750000,21.84
2860461,0.617320,1.088728,0.104432,-187.389999,-17.219999,109.480003,21.89
2860472,0.625616,1.037488,0.140544,-223.860001,-19.250000,110.320000,21.89
2860483,0.604632,0.923784,0.165920,-245.559998,-22.469999,103.459999,21.90
2860494,0.604144,0.825208,0.162992,-268.519989,-27.790001,104.930000,21.90
2860505,0.593408,0.634400,0.206912,-284.829987,-31.570000,108.919998,21.86
2860516,0.588528,0.680272,0.232288,-302.329987,-39.619999,106.400002,21.87
2860527,0.602680,0.596336,0.229848,-314.160004,-44.590000,107.449997,21.87
2860538,0.590480,0.509472,0.245464,-327.250000,-50.259998,107.099998,21.88
2860549,0.606584,0.402112,0.229848,-331.519989,-58.099998,101.500000,21.88
2860560,0.619760,0.273280,0.225944,-326.899994,-62.720001,95.410004,21.90
2860571,0.644648,0.197640,0.216184,-324.730011,-64.820000,92.050003,21.89
2860582,0.653432,0.150792,0.246440,-319.970001,-67.900002,88.760002,21.89
2860593,0.691008,0.073688,0.243024,-317.380005,-71.190002,84.910004,21.91
2860604,0.715896,-0.069784,0.222528,-301.420013,-70.910004,76.930000,21.91
2860615,0.757376,-0.186416,0.233264,-267.820007,-69.720001,73.080002,21.87
2860626,0.810080,-0.322568,0.271816,-201.460007,-65.239998,63.910000,21.88
2860637,0.824232,-0.403576,0.187392,-125.860001,-51.590000,53.970001,21.88
2860648,0.818864,-0.427488,0.157136,-75.599998,-44.730000,43.959999,21.91
2860659,0.840336,-0.419680,0.142496,-20.020000,-33.950001,32.759998,21.91
2860670,0.840824,-0.372344,0.124440,16.799999,-23.379999,25.270000,21.89
2860681,0.826184,-0.300608,0.112728,37.380001,-14.140000,14.560000,21.89
2860692,0.817888,-0.246440,0.113216,43.540001,-8.260000,2.800000,21.86
2860703,0.804712,-0.236680,0.121024,45.570000,-1.050000,-7.770000,21.87
2860714,0.809104,-0.271328,0.118584,49.209999,6.930000,-21.980000,21.87
2860725,0.802272,-0.282552,0.121512,53.480000,15.190000,-36.119999,21.88
2860736,0.781776,-0.295728,0.119072,64.889999,21.559999,-51.660000,21.88
2860747,0.764696,-0.269376,0.126880,81.690002,30.379999,-60.759998,21.90
2860758,0.745664,-0.244976,0.129320,97.089996,38.639999,-71.540001,21.93
2860769,0.758840,-0.192272,0.135176,117.389999,45.430000,-81.199997,21.93
2860780,0.736880,-0.127856,0.146400,135.869995,52.360001,-89.459999,21.90
2860791,0.728096,-0.119072,0.179096,153.929993,58.029999,-101.500000,21.90
2860802,0.721752,-0.140544,0.210816,176.820007,64.190002,-113.120003,21.91
2860813,0.699792,-0.140056,0.256200,220.919998,68.459999,-122.290001,21.88
2860824,0.662704,-0.027816,0.280600,262.779999,71.540001,-131.529999,21.88
2860835,0.623176,0.135176,0.283528,294.420013,71.120003,-139.369995,21.84
2860846,0.589504,0.308416,0.264008,323.049988,69.510002,-144.479996,21.84
2860857,0.609024,0.451888,0.250344,337.959991,62.790001,-146.789993,21.91
2860868,0.600728,0.636840,0.225456,343.769989,57.049999,-148.050003,21.91
2860879,0.567056,0.691984,0.184464,348.459991,51.240002,-153.860001,21.92
2860889,0.573400,0.667584,0.182024,351.119995,43.540001,-154.770004,21.88
2860900,0.562664,0.830576,0.076128,336.980011,42.419998,-147.910004,21.88
2860911,0.524600,1.035536,-0.000976,295.959991,39.340000,-137.059998,21.90
2860922,0.522160,1.218536,-0.051240,247.169998,33.669998,-123.269997,21.90
2860933,0.510936,1.476200,-0.047336,200.410004,26.320000,-100.379997,21.87
2860944,0.496296,1.704096,0.024400,144.130005,19.459999,-80.709999,21.86
2860955,0.506544,1.778272,0.066368,92.610001,10.430000,-64.820000,21.86
2860966,0.547048,1.727520,0.169336,56.770000,3.990000,-51.660000,21.89
2860977,0.575352,1.605520,0.200080,42.700001,1.890000,-36.259998,21.89
2860988,0.602192,1.550376,0.174704,31.290001,4.130000,-22.120001,21.89
2860999,0.638304,1.563064,0.142984,13.300000,6.230000,-10.500000,21.89
2861010,0.637328,1.604056,0.117120,-5.250000,7.140000,5.880000,21.86
2861021,0.642696,1.630896,0.117120,-37.730000,4.340000,21.629999,21.84
2861031,0.623664,1.585512,0.138592,-69.440002,-1.750000,39.549999,21.84
2861042,0.617808,1.472296,0.181048,-91.070000,-8.470000,55.650002,21.86
2861053,0.614880,1.379088,0.213256,-112.209999,-10.360000,70.279999,21.86
2861064,0.598288,1.299056,0.215208,-130.130005,-16.450001,81.620003,21.88
2861076,0.595360,1.196576,0.224968,-144.899994,-20.930000,92.540001,21.88
2861087,0.587064,1.095560,0.215696,-155.399994,-24.920000,100.800003,21.88
2861098,0.599752,1.043832,0.204960,-171.080002,-27.160000,106.330002,21.90
2861109,0.590480,1.000888,0.209352,-186.759995,-31.850000,107.800003,21.90
2861120,0.605120,0.914024,0.196176,-197.679993,-33.529999,108.779999,21.85
2861131,0.618296,0.833992,0.173728,-206.990005,-33.950001,108.779999,21.86
2861142,0.586576,0.769088,0.231312,-212.729996,-38.500000,107.379997,21.86
2861152,0.647576,0.652944,0.192272,-211.050003,-37.939999,107.660004,21.86
2861163,0.591944,0.596824,0.214720,-201.880005,-38.220001,107.519997,21.86
2861174,0.621224,0.558760,0.248880,-201.809998,-39.759998,110.599998,21.89
2861185,0.613416,0.495320,0.268888,-196.559998,-44.099998,109.690002,21.89
2861196,0.634400,0.400160,0.226920,-188.789993,-44.169998,108.570000,21.87
2861207,0.651968,0.370880,0.227408,-189.000000,-44.240002,106.330002,21.84
2861218,0.670024,0.371368,0.249368,-214.690002,-45.990002,106.750000,21.84
2861229,0.679784,0.342088,0.290360,-210.630005,-48.369999,102.830002,21.92
2861240,0.700280,0.289872,0.294264,-229.529999,-48.860001,99.820000,21.92
2861251,0.695400,0.189344,0.295240,-241.710007,-52.220001,93.660004,21.86
2861262,0.717360,0.017568,0.266936,-232.820007,-49.910000,82.529999,21.84
2861273,0.749568,-0.142008,0.353800,-207.270004,-47.950001,75.040001,21.84
2861284,0.780312,-0.199104,0.338184,-177.940002,-43.540001,71.400002,21.87
2861295,0.792024,-0.206424,0.291824,-150.850006,-41.160000,64.540001,21.87
2861306,0.816424,-0.299144,0.204960,-118.370003,-33.459999,54.599998,21.84
2861317,0.855464,-0.337696,0.173240,-84.209999,-27.440001,43.119999,21.85
2861328,0.854488,-0.496296,0.154696,-28.139999,-16.870001,31.639999,21.85
2861339,0.854000,-0.481168,0.180560,7.420000,-7.840000,20.299999,21.90
2861350,0.839848,-0.446032,0.177144,40.669998,-2.100000,7.560000,21.90
2861361,0.830576,-0.450424,0.183488,72.029999,6.370000,-2.380000,21.90
2861372,0.800808,-0.377224,0.183000,105.070000,11.690000,-13.930000,21.90
2861383,0.793000,-0.399184,0.198128,108.430000,15.050000,-31.080000,21.84
2861394,0.799344,-0.427000,0.221064,142.029999,21.559999,-43.750000,21.85
2861405,0.762256,-0.383568,0.215208,177.100006,27.020000,-59.639999,21.85
2861416,0.760792,-0.411872,0.200080,222.039993,34.509998,-76.230003,21.86
2861427,0.726632,-0.345016,0.162016,269.570007,40.040001,-87.919998,21.86
2861437,0.718824,-0.229360,0.108824,303.660004,42.980000,-98.209999,21.92
2861448,0.732488,-0.133224,0.077592,323.049988,47.950001,-110.669998,21.86
2861459,0.677344,-0.004392,0.314760,335.929993,46.830002,-110.739998,21.86
2861470,0.603656,0.179584,0.144448,356.579987,44.380001,-126.209999,21.88
2861481,0.610976,0.285480,0.174704,353.920013,39.130001,-132.440002,21.88
2861492,0.591944,0.432856,0.146400,350.070007,36.470001,-133.839996,21.87
2861503,0.567544,0.545096,0.115656,333.480011,27.299999,-137.619995,21.82
2861514,0.566568,0.631472,0.055632,321.299988,19.040001,-139.860001,21.82
2861525,0.570960,0.729072,0.022936,297.989990,15.680000,-139.229996,21.89
2861536,0.568520,0.774944,-0.004880,278.670013,9.100000,-142.729996,21.89
2861546,0.574376,0.818376,-0.034648,258.720001,4.690000,-142.380005,21.89
2861557,0.570472,0.971608,-0.077104,219.660004,2.310000,-136.919998,21.89
2861568,0.548512,1.103856,-0.089304,169.190002,1.750000,-132.720001,21.89
2861580,0.558760,1.210240,-0.104432,122.570000,-0.140000,-122.779999,21.86
2861591,0.541192,1.348832,-0.104432,89.879997,0.350000,-110.320000,21.86
2861602,0.549488,1.455704,-0.067344,59.009998,2.100000,-95.059998,21.89
2861613,0.555344,1.508896,-0.004880,38.990002,2.380000,-82.180000,21.89
2861624,0.569984,1.504992,0.017568,29.469999,3.640000,-65.940002,21.89
2861635,0.589016,1.487424,0.014152,27.020000,5.810000,-50.259998,21.87
2861646,0.612440,1.504504,0.002440,18.200001,8.400000,-18.410000,21.87
2861656,0.628544,1.555256,-0.006344,2.030000,7.770000,-14.700000,21.86
2861667,0.630008,1.627968,0.020496,-14.210000,5.530000,3.360000,21.86
2861678,0.635376,1.635288,0.060024,-37.869999,2.380000,18.410000,21.90
2861689,0.626592,1.542080,0.105408,-71.400002,-2.800000,34.509998,21.90
2861700,0.624152,1.444480,0.140056,-67.690002,-5.740000,47.180000,21.83
2861711,0.630496,1.373232,0.157136,-79.870003,-6.510000,55.790001,21.89
2861722,0.628544,1.317112,0.147376,-92.400002,-7.910000,66.360001,21.89
2861733,0.622688,1.235128,0.127368,-101.639999,-8.890000,76.440002,21.91
2861744,0.615856,1.208288,0.098576,-114.379997,-10.710000,84.070000,21.91
2861755,0.611464,1.174128,0.081984,-136.570007,-15.120000,93.239998,21.87
2861765,0.615368,1.133136,0.080032,-159.949997,-18.969999,100.519997,21.88
2861776,0.609512,1.095072,0.107360,-192.710007,-21.070000,105.279999,21.88
2861787,0.596824,1.035048,0.137616,-231.070007,-25.480000,111.370003,21.87
2861799,0.567544,0.969168,0.186416,-247.240005,-34.930000,114.169998,21.87
2861809,0.568520,0.813496,0.234728,-270.410004,-34.580002,110.599998,21.89
2861820,0.595848,0.649528,0.254736,-263.690002,-38.849998,108.639999,21.87
2861831,0.587552,0.534848,0.265960,-253.330002,-43.189999,103.599998,21.87
2861842,0.617320,0.477264,0.285968,-243.809998,-48.230000,99.190002,21.85
2861853,0.642208,0.439688,0.275232,-234.919998,-50.680000,97.370003,21.85
2861864,0.650992,0.427000,0.259616,-236.600006,-53.270000,101.220001,21.87
2861875,0.641720,0.422120,0.270840,-242.059998,-57.259998,101.849998,21.87
2861886,0.671976,0.421632,0.264008,-258.859985,-60.410000,101.220001,21.84
2861897,0.676856,0.359168,0.254248,-271.950012,-62.439999,98.489998,21.86
2861909,0.670024,0.144936,0.323544,-255.779999,-64.889999,87.010002,21.86
2861920,0.692472,-0.069784,0.290848,-218.190002,-61.669998,75.250000,21.82
2861931,0.725168,-0.080032,0.332328,-190.330002,-60.900002,74.339996,21.82
2861942,0.746152,-0.068320,0.305488,-154.559998,-60.480000,67.830002,21.89
2861953,0.781776,-0.138592,0.257664,-120.680000,-54.599998,58.029999,21.80
2861964,0.812520,-0.181048,0.264984,-94.919998,-48.299999,46.410000,21.80
2861975,0.810080,-0.200080,0.146888,-71.610001,-41.650002,38.080002,21.89
2861986,0.823744,-0.179584,0.131272,-63.490002,-34.580002,29.260000,21.89
2861997,0.840824,-0.221064,0.117608,-59.709999,-26.879999,18.830000,21.84
2862009,0.829112,-0.272792,0.106872,-37.169998,-19.530001,9.310000,21.85
2862020,0.819840,-0.317688,0.117120,-39.410000,-13.020000,-1.960000,21.85
2862031,0.810568,-0.307928,0.113216,-21.700001,-5.180000,-14.210000,21.83
2862042,0.796904,-0.338672,0.114680,4.690000,3.990000,-26.530001,21.83
2862053,0.783728,-0.311832,0.103456,29.540001,13.230000,-41.020000,21.86
2862064,0.778848,-0.306952,0.088328,50.750000,20.230000,-55.020000,21.85
2862075,0.782264,-0.275720,0.088328,82.110001,29.680000,-66.290001,21.85
2862086,0.763232,-0.237168,0.100528,115.430000,38.360001,-75.110001,21.87
2862097,0.761768,-0.205448,0.095648,140.000000,47.669998,-86.169998,21.87
2862108,0.752496,-0.173728,0.086864,174.580002,55.230000,-98.980003,21.87
2862119,0.719312,-0.094184,0.099064,208.389999,62.650002,-109.550003,21.82
2862130,0.692960,-0.017080,0.131760,229.949997,66.779999,-121.870003,21.82
2862141,0.675880,-0.027816,0.164456,276.220001,69.089996,-133.490005,21.83
2862152,0.622200,0.127856,0.159576,300.440002,70.699997,-138.110001,21.83
2862163,0.596824,0.231312,0.162504,314.720001,65.730003,-139.509995,21.86
2862174,0.581208,0.442616,0.166408,338.660004,64.470001,-145.179993,21.86
2862185,0.550952,0.598776,0.106384,335.579987,62.580002,-149.660004,21.86
2862196,0.550464,0.575352,0.093696,344.190002,55.230000,-154.699997,21.84
2862207,0.532896,0.667584,0.076128,337.119995,51.169998,-155.259995,21.84
2862217,0.502640,0.802760,0.061976,317.519989,46.270000,-152.600006,21.86
2862228,0.490440,1.023336,0.035136,271.809998,37.169998,-147.699997,21.86
2862239,0.488488,1.168760,-0.000976,236.179993,31.709999,-137.479996,21.90
2862250,0.506056,1.198040,-0.067832,200.759995,30.309999,-126.279999,21.85
2862261,0.472872,1.425448,-0.090280,158.550003,30.379999,-112.139999,21.85
2862272,0.533384,1.649928,-0.042944,118.440002,22.469999,-91.000000,21.84
2862283,0.503128,1.742648,0.027328,77.699997,18.690001,-80.430000,21.84
2862294,0.527040,1.778272,0.093696,41.230000,15.820000,-66.360001,21.85
2862305,0.592432,1.747528,0.153232,19.110001,14.490000,-34.369999,21.85
2862315,0.538752,1.753384,0.155184,-1.050000,10.500000,-25.760000,21.84
2862326,0.597800,1.750456,0.167872,-21.629999,9.380000,-12.040000,21.86
2862337,0.604144,1.708488,0.163968,-36.610001,8.190000,8.400000,21.86
2862348,0.608048,1.691896,0.171288,-56.279999,5.180000,24.709999,21.87
2862359,0.599264,1.671888,0.195200,-79.449997,-0.350000,44.660000,21.87
2862370,0.598776,1.543544,0.223992,-92.610001,-5.460000,61.880001,21.85
2862381,0.583648,1.440576,0.249856,-103.879997,-10.500000,75.879997,21.83
2862392,0.585600,1.353224,0.259616,-114.379997,-15.890000,85.820000,21.83
2862403,0.578280,1.278072,0.242048,-121.029999,-19.320000,96.110001,21.87
2862414,0.579256,1.197064,0.203984,-135.520004,-23.100000,108.010002,21.87
2862425,0.561200,1.167784,0.178608,-152.460007,-24.709999,112.419998,21.85
2862436,0.543632,1.106296,0.189832,-172.199997,-28.280001,118.370003,21.85
2862447,0.551440,1.000888,0.224968,-186.479996,-31.920000,122.220001,21.86
2862458,0.564128,0.910608,0.151768,-199.429993,-33.669998,110.040001,21.86
2862469,0.589992,0.821304,0.239608,-214.130005,-37.310001,122.430000,21.86
2862480,0.581208,0.739808,0.242048,-223.440002,-41.160000,117.879997,21.89
2862491,0.595848,0.671000,0.237168,-235.059998,-46.619999,119.209999,21.89
2862503,0.587064,0.581696,0.242048,-243.740005,-50.400002,116.830002,21.85
2862514,0.597312,0.497760,0.232776,-246.889999,-54.040001,115.080002,21.84
2862525,0.599752,0.395280,0.229848,-245.139999,-57.540001,112.699997,21.84
2862536,0.612440,0.321104,0.232776,-244.089996,-62.439999,107.940002,21.88
2862547,0.641720,0.250344,0.261568,-237.369995,-62.230000,105.769997,21.88
2862557,0.643184,0.182024,0.288896,-228.759995,-63.490002,101.709999,21.86
2862568,0.658312,0.117608,0.248392,-215.179993,-63.910000,95.550003,21.82
2862579,0.691984,0.008784,0.280600,-201.179993,-61.810001,88.480003,21.82
2862590,0.714920,-0.080520,0.292312,-185.080002,-61.250000,82.180000,21.86
2862601,0.747616,-0.146888,0.260104,-172.830002,-59.500000,75.389999,21.86
2862612,0.748592,-0.168360,0.224480,-161.070007,-57.540001,66.919998,21.89
2862623,0.793976,-0.353312,0.167384,-140.979996,-51.099998,57.259998,21.87
2862634,0.810568,-0.320616,0.140544,-102.129997,-41.580002,47.740002,21.87
2862645,0.803736,-0.357216,0.102968,-69.019997,-30.870001,34.299999,21.87
2862656,0.813496,-0.424072,0.075640,-21.910000,-22.330000,19.670000,21.87
2862667,0.828624,-0.413336,0.054656,16.379999,-10.990000,9.520000,21.81
2862678,0.811056,-0.359656,0.060512,43.400002,-1.610000,-3.500000,21.81
2862689,0.802272,-0.322080,0.084424,57.889999,7.560000,-17.080000,21.77
2862700,0.782752,-0.299632,0.110776,70.070000,14.000000,-27.719999,21.84
2862711,0.765672,-0.269864,0.122976,80.150002,21.209999,-41.650002,21.84
2862722,0.758352,-0.225456,0.134200,85.050003,28.280001,-54.880001,21.84
2862733,0.752496,-0.225944,0.136640,97.930000,33.250000,-67.199997,21.84
2862744,0.741760,-0.151280,0.139568,110.599998,40.599998,-75.949997,21.88
2862755,0.743712,-0.154696,0.133712,128.940002,48.720001,-88.129997,21.87
2862766,0.748104,-0.167872,0.111264,165.970001,57.889999,-100.589996,21.87
2862777,0.729072,-0.098576,0.126880,202.369995,66.290001,-108.919998,21.86
2862788,0.694912,0.007320,0.129808,232.190002,72.589996,-121.029999,21.86
2862799,0.669048,0.077592,0.182512,252.839996,75.809998,-130.339996,21.88
2862810,0.613904,0.158112,0.228872,277.130005,75.739998,-138.110001,21.84
2862821,0.628544,0.340136,0.381128,286.089996,72.449997,-134.679993,21.84
