timestamp_ms,ax,ay,az,gx,gy,gz,tempC
1957579,0.652456,0.684176,0.396744,84.279999,-107.309998,111.230003,21.82
1957590,0.650016,0.694912,0.377712,89.180000,-101.570000,113.610001,21.82
1957600,0.665144,0.682224,0.368440,90.230003,-96.110001,117.040001,21.82
1957612,0.690032,0.619760,0.349896,88.480003,-94.080002,119.559998,21.80
1957623,0.680272,0.653432,0.350384,86.099998,-90.160004,126.769997,21.80
1957634,0.633424,0.676856,0.309392,84.699997,-88.550003,131.320007,21.80
1957644,0.660264,0.653432,0.273768,78.050003,-85.400002,136.570007,21.79
1957656,0.648552,0.575840,0.214232,70.279999,-84.419998,135.589996,21.79
1957667,0.661240,0.527040,0.161528,65.730003,-83.580002,134.679993,21.81
1957678,0.672464,0.449936,0.133224,64.400002,-80.570000,132.300003,21.80
1957689,0.702232,0.339648,0.065392,63.349998,-76.089996,128.169998,21.80
1957700,0.720776,0.347456,0.061488,63.980000,-66.849998,121.519997,21.80
1957710,0.716384,0.355752,0.054168,60.340000,-58.520000,119.559998,21.80
1957721,0.695888,0.419192,0.027816,57.049999,-50.400002,116.199997,21.78
1957732,0.673928,0.420168,0.002928,50.959999,-44.029999,112.910004,21.77
1957743,0.701256,0.362584,-0.006832,40.040001,-42.209999,113.120003,21.77
1957754,0.716384,0.343064,-0.005856,33.599998,-38.290001,112.349998,21.78
1957765,0.729072,0.292312,0.003904,21.000000,-36.750000,110.040001,21.78
1957775,0.740784,0.257176,-0.003904,8.330000,-35.070000,107.099998,21.82
1957786,0.732976,0.218624,-0.025864,-3.570000,-35.700001,104.370003,21.82
1957797,0.752496,0.166896,-0.041968,-10.290000,-32.340000,99.470001,21.82
1957808,0.751032,0.138104,-0.032208,-12.180000,-32.970001,96.110001,21.77
1957819,0.714432,0.203008,-0.029768,-5.040000,-29.959999,94.360001,21.77
1957831,0.729072,0.171288,-0.054656,0.280000,-30.799999,92.120003,21.78
1957842,0.814472,0.131272,-0.073200,4.060000,-30.100000,90.089996,21.78
1957852,0.860832,0.101504,-0.065392,4.480000,-28.000000,87.849998,21.81
1957863,0.883768,0.078568,-0.043920,6.230000,-25.620001,84.349998,21.78
1957875,0.882304,0.078568,-0.032208,6.440000,-23.870001,81.900002,21.78
1957886,0.864736,0.047824,-0.012688,8.120000,-21.629999,78.680000,21.83
1957897,0.878888,-0.000488,-0.023912,15.610000,-18.830000,75.529999,21.83
1957908,0.875960,0.010736,-0.042944,23.520000,-14.630000,73.010002,21.80
1957919,0.883280,0.036112,-0.059536,31.150000,-12.530000,70.839996,21.77
1957929,0.900848,0.068808,-0.058560,35.000000,-10.570000,69.089996,21.77
1957940,0.924760,0.095160,-0.045872,32.689999,-7.700000,66.779999,21.82
1957951,0.942328,0.096136,-0.031232,24.709999,-4.130000,63.490002,21.82
1957962,0.901336,0.082472,-0.009272,16.590000,-1.540000,60.130001,21.81
1957973,0.916464,0.058072,0.023912,10.360000,-3.360000,58.169998,21.81
1957984,0.903288,0.065392,0.041480,9.450000,-3.290000,55.860001,21.80
1957995,0.913536,0.104432,0.039528,3.990000,-5.460000,56.349998,21.79
1958006,0.946720,0.101992,0.026840,-2.240000,-7.140000,56.630001,21.79
1958017,0.959896,0.016592,0.025376,-5.740000,-6.930000,55.860001,21.76
1958028,0.959896,0.013176,0.008784,-3.500000,-4.620000,57.119999,21.76
1958039,0.955992,0.033184,0.008784,-3.570000,-4.270000,57.540001,21.78
1958050,0.955016,0.022448,0.035136,-4.410000,-2.940000,56.000000,21.80
1958061,0.943792,0.003416,0.057584,-4.270000,-1.960000,55.090000,21.80
1958072,0.930128,-0.018544,0.061000,-4.270000,-3.220000,53.480000,21.76
1958083,0.928176,-0.056120,0.064416,-5.110000,-4.900000,52.430000,21.76
1958094,0.926712,-0.070760,0.060512,-3.780000,-6.440000,51.799999,21.81
1958105,0.935496,-0.114680,0.049288,0.000000,-8.330000,49.910000,21.82
1958116,0.945256,-0.147376,0.033672,6.720000,-9.240000,47.599998,21.82
1958127,0.931592,-0.122976,0.041968,3.430000,-11.760000,46.759998,21.81
1958138,0.917928,-0.115656,0.039528,-3.080000,-14.070000,44.799999,21.81
1958149,0.911096,-0.162504,0.013176,-7.560000,-16.730000,42.419998,21.83
1958160,0.908168,-0.219600,-0.018544,-7.070000,-18.340000,39.340000,21.83
1958171,0.914512,-0.258640,-0.060024,-3.290000,-19.879999,35.490002,21.79
1958183,0.923296,-0.284992,-0.091744,1.890000,-19.879999,30.520000,21.81
1958194,0.920368,-0.307440,-0.094672,6.720000,-19.879999,25.969999,21.81
1958205,0.915000,-0.333304,-0.108824,15.680000,-20.020000,22.469999,21.80
1958216,0.907680,-0.342576,-0.123464,23.450001,-19.809999,18.200001,21.80
1958227,0.910608,-0.365512,-0.128832,29.820000,-20.299999,12.670000,21.82
1958238,0.902800,-0.366976,-0.135664,35.139999,-20.020000,7.210000,21.75
1958249,0.899872,-0.360144,-0.154208,35.770000,-20.580000,2.730000,21.75
1958260,0.900360,-0.378200,-0.180072,36.889999,-19.459999,-4.410000,21.77
1958272,0.903288,-0.384544,-0.206912,37.169998,-17.920000,-11.130000,21.77
1958283,0.897432,-0.378688,-0.213744,36.400002,-15.470000,-19.040001,21.80
1958294,0.894504,-0.378688,-0.210328,35.349998,-13.790000,-26.740000,21.73
1958306,0.888648,-0.397232,-0.207888,36.889999,-12.530000,-33.740002,21.73
1958317,0.879864,-0.396744,-0.228384,37.799999,-11.410000,-41.650002,21.78
1958328,0.888648,-0.427976,-0.267424,38.919998,-8.750000,-50.400002,21.78
1958339,0.913048,-0.485560,-0.306952,47.110001,-4.760000,-60.619999,21.83
1958350,0.933056,-0.503616,-0.400160,65.519997,4.200000,-69.720001,21.75
1958361,0.912560,-0.532896,-0.443592,90.440002,16.030001,-80.639999,21.75
1958372,0.923296,-0.544608,-0.528504,111.650002,27.860001,-92.400002,21.81
1958383,0.941352,-0.586088,-0.589016,141.119995,38.849998,-105.980003,21.81
1958394,0.904752,-0.578280,-0.607560,163.449997,54.180000,-120.470001,21.74
1958405,1.014064,-0.457256,-0.669536,207.410004,64.889999,-129.149994,21.77
1958417,0.852048,-0.406504,-0.503616,220.360001,72.660004,-136.149994,21.77
1958427,0.772992,-0.276696,-0.432856,225.960007,77.209999,-147.559998,21.82
1958439,0.748104,-0.288896,-0.429928,233.869995,79.870003,-159.600006,21.82
1958450,0.750544,-0.300608,-0.463112,246.119995,85.610001,-171.500000,21.79
1958461,0.707600,-0.219112,-0.479704,250.320007,92.190002,-188.509995,21.75
1958472,0.658800,-0.102480,-0.462624,238.419998,96.599998,-204.050003,21.75
1958483,0.596824,-0.028304,-0.391376,222.039993,98.980003,-215.809998,21.79
1958494,0.534848,0.088328,-0.298168,206.360001,98.980003,-226.309998,21.79
1958505,0.478728,0.228872,-0.201056,185.710007,98.139999,-236.250000,21.81
1958516,0.435784,0.312808,-0.089304,172.410004,94.989998,-242.830002,21.82
1958527,0.374784,0.466040,0.005368,160.649994,91.910004,-245.770004,21.82
1958537,0.355264,0.582184,0.100528,156.800003,88.480003,-248.220001,21.77
1958548,0.345504,0.719800,0.086864,154.699997,88.129997,-242.270004,21.77
1958559,0.331840,1.017968,-0.040016,141.399994,91.070000,-229.389999,21.84
1958571,0.307440,1.307840,-0.068808,110.389999,81.760002,-212.380005,21.78
1958582,0.301584,1.498648,0.029280,82.040001,74.269997,-189.139999,21.78
1958593,0.281576,1.645536,0.244976,45.360001,67.760002,-169.679993,21.76
1958603,0.302072,1.794864,0.345016,13.720000,52.220001,-147.839996,21.76
1958614,0.357216,1.820728,0.497760,-1.400000,44.660000,-122.220001,21.82
1958625,0.372832,1.828536,0.599752,-13.300000,31.150000,-99.190002,21.82
1958636,0.436272,1.862208,0.628544,-22.120001,17.990000,-70.139999,21.78
1958647,0.527040,1.825608,0.583160,-27.440001,9.030000,-44.869999,21.76
1958658,0.567056,1.769000,0.473360,-28.770000,3.360000,-18.129999,21.76
1958669,0.601216,1.801208,0.431880,-35.070000,-4.340000,3.010000,21.79
1958680,0.617808,1.766072,0.461160,-48.790001,-11.410000,21.559999,21.79
1958691,0.625128,1.588928,0.554368,-57.680000,-19.670000,37.099998,21.82
1958702,0.645136,1.454240,0.605608,-58.939999,-27.299999,53.270000,21.76
1958713,0.652456,1.400560,0.584136,-58.450001,-37.939999,66.500000,21.76
1958724,0.649528,1.369816,0.471896,-59.150002,-45.779999,80.779999,21.77
1958735,0.637816,1.365424,0.334768,-66.919998,-50.259998,96.599998,21.77
1958746,0.637816,1.320528,0.251808,-81.410004,-57.189999,107.029999,21.80
1958757,0.650992,1.222440,0.206424,-106.470001,-60.970001,117.809998,21.80
1958768,0.655872,1.117032,0.164944,-92.190002,-62.580002,122.570000,21.79
1958779,0.686128,1.014552,0.139568,-91.489998,-61.250000,123.480003,21.76
1958790,0.701256,0.902800,0.134200,-86.449997,-60.340000,128.100006,21.76
1958802,0.718824,0.874008,0.122000,-79.309998,-59.639999,130.899994,21.76
1958815,0.762256,0.824720,0.100528,-78.820000,-55.369999,137.059998,21.75
1958826,0.753472,0.752008,0.045384,-80.989998,-54.110001,140.630005,21.75
1958837,0.772992,0.699792,-0.003416,-87.430000,-49.700001,146.020004,21.80
1958848,0.746152,0.725168,0.040992,-101.290001,-49.910000,150.779999,21.80
1958859,0.729072,0.670024,0.061488,-110.180000,-55.090000,153.720001,21.79
1958870,0.746152,0.577304,0.104920,-118.019997,-56.209999,154.210007,21.81
1958881,0.728096,0.434320,0.089792,-117.879997,-55.860001,153.440002,21.81
1958893,0.753472,0.299632,0.043920,-113.820000,-54.529999,149.449997,21.80
1958904,0.787632,0.196664,-0.005368,-108.500000,-49.000000,145.179993,21.80
1958915,0.782264,0.152256,-0.024400,-105.279999,-43.400002,140.559998,21.78
1958926,0.788120,0.085888,-0.052704,-105.559998,-38.009998,135.309998,21.78
1958937,0.778360,0.053192,-0.032208,-112.980003,-38.990002,130.970001,21.78
1958948,0.767624,-0.022936,0.003904,-123.760002,-40.529999,123.410004,21.83
1958960,0.763232,-0.132248,0.020984,-127.470001,-43.470001,115.220001,21.83
1958971,0.780800,-0.270352,0.004880,-124.110001,-47.110001,104.860001,21.80
1958982,0.803736,-0.410408,-0.014640,-110.180000,-47.250000,91.209999,21.79
1958994,0.837408,-0.538264,-0.039040,-81.410004,-43.540001,82.599998,21.79
1959005,0.840336,-0.560224,-0.061976,-53.549999,-40.740002,71.750000,21.79
1959016,0.864736,-0.565104,-0.104432,-38.779999,-38.290001,60.759998,21.79
1959027,0.883768,-0.558272,-0.149328,-24.430000,-34.369999,52.639999,21.84
1959038,0.873032,-0.522648,-0.130784,-21.000000,-34.160000,44.590000,21.77
1959049,0.856928,-0.471408,-0.116144,-23.730000,-33.810001,35.000000,21.77
1959061,0.854976,-0.492392,-0.124440,-22.400000,-31.570000,21.000000,21.84
1959072,0.855464,-0.544120,-0.125416,-18.690001,-29.540001,6.720000,21.84
1959083,0.873032,-0.657336,-0.132248,0.490000,-25.690001,-9.940000,21.79
1959094,0.892064,-0.674904,-0.165920,33.110001,-15.750000,-23.100000,21.75
1959105,0.893528,-0.614880,-0.211304,66.500000,-8.470000,-32.619999,21.75
1959116,0.921832,-0.526064,-0.238144,79.870003,-1.540000,-43.610001,21.83
1959128,0.919880,-0.467992,-0.252296,93.029999,6.790000,-56.070000,21.83
1959139,0.920856,-0.425536,-0.272792,104.650002,13.580000,-67.339996,21.81
1959150,0.938424,-0.445544,-0.293288,118.930000,21.490000,-77.349998,21.76
1959161,0.932080,-0.483120,-0.320128,137.619995,30.240000,-90.930000,21.76
1959172,0.906704,-0.456280,-0.330864,161.630005,35.840000,-104.370003,21.76
1959183,0.856440,-0.434808,-0.304024,193.270004,41.650002,-118.089996,21.76
1959194,0.836920,-0.301096,-0.299632,201.110001,44.730000,-126.279999,21.80
1959206,0.811544,-0.200568,-0.202520,203.210007,49.070000,-147.770004,21.77
1959218,0.786656,-0.159088,-0.135664,193.550003,47.110001,-155.259995,21.77
1959229,0.732488,-0.070760,-0.103944,184.520004,50.400002,-168.630005,21.79
1959240,0.718824,0.021960,-0.159088,176.190002,53.130001,-176.399994,21.79
1959251,0.728584,0.123952,-0.293288,164.080002,62.369999,-183.960007,21.82
1959262,0.692960,0.243512,-0.267912,150.360001,64.330002,-185.990005,21.79
1959273,0.619272,0.446520,-0.148840,135.240005,66.779999,-186.619995,21.79
1959284,0.553392,0.597800,0.015616,131.460007,64.750000,-187.600006,21.78
1959296,0.520208,0.770552,0.078080,125.720001,58.730000,-182.210007,21.78
1959307,0.515328,0.884256,0.107848,114.870003,50.400002,-176.750000,21.79
1959318,0.566568,0.925248,0.076128,103.739998,44.799999,-170.169998,21.73
1959328,0.571448,1.018456,0.075152,95.129997,42.980000,-156.940002,21.73
1959339,0.552416,1.247816,0.129320,78.610001,41.299999,-137.270004,21.72
1959350,0.526064,1.509872,0.186416,56.490002,33.950001,-122.080002,21.72
1959361,0.523136,1.576728,0.272304,33.880001,28.000000,-110.669998,21.80
1959372,0.600728,1.514752,0.340624,16.170000,24.080000,-93.940002,21.80
1959382,0.624152,1.483032,0.359656,15.680000,26.740000,-75.739998,21.79
1959393,0.640744,1.545496,0.323056,9.310000,23.730000,-55.790001,21.75
1959404,0.672952,1.594296,0.279624,-0.980000,21.350000,-42.700001,21.75
1959415,0.687592,1.525000,0.260592,-7.210000,18.549999,-25.480000,21.86
1959425,0.686616,1.480592,0.297192,-10.570000,16.170000,-8.120000,21.86
1959436,0.667096,1.488400,0.327936,-14.910000,10.920000,6.510000,21.84
1959447,0.675880,1.447408,0.340136,-20.230000,4.900000,22.469999,21.84
1959458,0.680760,1.407392,0.308416,-28.000000,0.980000,37.939999,21.75
1959469,0.682224,1.295152,0.302560,-33.320000,-5.250000,48.580002,21.79
1959480,0.687104,1.160952,0.299144,-32.900002,-9.100000,60.340000,21.79
1959491,0.695888,1.114592,0.264984,-31.500000,-9.940000,70.000000,21.79
1959502,0.690520,1.090192,0.214232,-38.080002,-11.480000,77.769997,21.79
1959514,0.693936,1.052128,0.209840,-48.790001,-13.370000,86.029999,21.80
1959525,0.693936,1.027728,0.214720,-63.770000,-14.630000,93.870003,21.78
1959536,0.682712,0.929640,0.226920,-67.900002,-15.890000,95.339996,21.78
1959547,0.673440,0.820816,0.220576,-66.709999,-18.760000,98.839996,21.80
1959558,0.688568,0.802272,0.152256,-60.270000,-18.270000,101.849998,21.80
1959569,0.690032,0.790560,0.149328,-63.070000,-18.129999,106.330002,21.80
1959581,0.702232,0.759816,0.203496,-67.900002,-19.670000,111.790001,21.79
1959592,0.707112,0.784704,0.196664,-76.720001,-19.740000,118.930000,21.79
1959603,0.709064,0.814472,0.175680,-98.559998,-22.889999,123.690002,21.80
1959614,0.720776,0.822768,0.165432,-128.240005,-28.139999,128.309998,21.80
1959625,0.743712,0.719800,0.160064,-152.039993,-31.430000,129.639999,21.79
1959636,0.752008,0.555832,0.176168,-166.039993,-32.970001,128.169998,21.81
1959647,0.744688,0.434808,0.141520,-163.380005,-31.639999,124.879997,21.81
1959658,0.743224,0.313784,0.116632,-152.740005,-29.680000,120.190002,21.79
1959669,0.755424,0.138104,0.155184,-133.839996,-27.299999,111.019997,21.79
1959680,0.801784,0.061488,0.150304,-109.199997,-24.150000,107.169998,21.78
1959691,0.793976,0.070760,0.140056,-92.610001,-24.219999,105.839996,21.73
1959702,0.813008,0.112728,0.149328,-88.339996,-25.200001,105.559998,21.73
1959713,0.827160,0.094184,0.160552,-97.160004,-27.299999,104.019997,21.77
1959724,0.830088,0.054656,0.150304,-111.790001,-31.080000,103.599998,21.77
1959735,0.815448,0.034160,0.150792,-132.440002,-37.730000,101.639999,21.82
1959746,0.807152,-0.084424,0.152256,-138.039993,-42.139999,94.779999,21.82
1959757,0.826184,-0.219600,0.147864,-131.880005,-44.730000,88.410004,21.81
1959768,0.854000,-0.381128,0.109312,-110.320000,-43.680000,77.209999,21.78
1959779,0.877424,-0.474824,0.079544,-80.989998,-39.130001,64.610001,21.78
1959790,0.909632,-0.469456,0.051728,-45.919998,-33.740002,53.619999,21.79
1959801,0.916952,-0.461648,0.024400,-19.250000,-26.530001,43.400002,21.79
1959812,0.923296,-0.458720,0.011712,-6.510000,-21.490000,32.270000,21.82
1959823,0.911584,-0.459208,-0.015616,5.460000,-16.170000,23.799999,21.77
1959833,0.897920,-0.411872,-0.030256,7.560000,-15.330000,17.430000,21.77
1959844,0.899384,-0.395768,-0.034648,0.210000,-17.219999,7.630000,21.76
1959855,0.913536,-0.484584,-0.030744,-0.350000,-17.990000,-4.060000,21.76
1959866,0.918904,-0.540216,-0.028792,9.170000,-15.820000,-17.150000,21.81
1959878,0.926224,-0.596824,-0.054656,26.459999,-11.480000,-28.840000,21.80
1959889,0.942328,-0.615856,-0.082472,54.320000,-5.600000,-42.560001,21.80
1959900,0.928176,-0.513376,-0.100040,69.370003,0.980000,-55.020000,21.79
1959911,0.932080,-0.470920,-0.147376,90.370003,7.420000,-66.150002,21.79
1959922,0.929152,-0.405528,-0.160064,108.500000,19.320000,-72.800003,21.79
1959933,0.899872,-0.325984,-0.200568,115.989998,28.770000,-82.949997,21.79
1959944,0.895968,-0.310368,-0.199104,122.849998,35.070000,-93.730003,21.76
1959955,0.875472,-0.271328,-0.197152,130.970001,41.230000,-100.660004,21.76
1959966,0.826672,-0.184952,-0.181536,142.660004,43.330002,-112.980003,21.76
1959977,0.780800,-0.127856,-0.136152,149.449997,37.099998,-122.220001,21.80
1959988,0.816424,-0.151768,-0.057096,163.869995,46.340000,-135.169998,21.80
1959999,0.782752,-0.134688,-0.059536,189.559998,49.070000,-143.570007,21.79
1960011,0.724192,0.105896,-0.094184,198.940002,48.860001,-150.779999,21.76
1960022,0.705160,0.247416,-0.090280,193.410004,46.270000,-150.919998,21.76
1960033,0.723216,0.355752,-0.109800,186.899994,53.410000,-156.100006,21.74
1960044,0.699792,0.429928,-0.117608,173.600006,54.810001,-153.300003,21.74
1960055,0.660264,0.586576,-0.061976,151.059998,59.080002,-153.860001,21.79
1960066,0.619272,0.759816,0.022936,135.309998,57.889999,-151.899994,21.75
1960077,0.581208,0.757376,0.099064,133.139999,55.299999,-154.630005,21.75
1960088,0.568032,0.751520,0.110288,133.630005,51.939999,-153.509995,21.76
1960099,0.564616,0.739808,0.168360,138.039993,45.009998,-150.919998,21.76
1960110,0.586576,0.819352,0.180072,134.190002,40.389999,-146.509995,21.77
1960121,0.593896,1.014064,0.191296,118.230003,36.959999,-133.630005,21.79
1960132,0.568520,1.248304,0.195688,91.699997,32.200001,-120.540001,21.79
1960143,0.583648,1.468880,0.180072,62.650002,27.930000,-100.589996,21.76
1960154,0.571936,1.506944,0.268888,27.790001,25.549999,-89.040001,21.76
1960164,0.604144,1.418128,0.269376,16.730000,22.540001,-76.790001,21.79
1960175,0.633424,1.421056,0.305488,17.290001,22.750000,-57.470001,21.79
1960186,0.630984,1.425448,0.342088,21.209999,21.629999,-42.770000,21.79
1960197,0.636352,1.469368,0.368440,18.969999,18.270000,-35.980000,21.78
1960208,0.641720,1.438136,0.390400,9.800000,15.400000,-19.389999,21.78
1960219,0.626104,1.483520,0.404552,-0.210000,5.180000,-0.070000,21.80
1960230,0.636352,1.538664,0.396744,-20.650000,-2.870000,18.830000,21.80
1960241,0.645136,1.565992,0.365024,-48.650002,-10.780000,33.740002,21.78
1960252,0.653920,1.438624,0.374784,-64.610001,-17.780001,48.299999,21.79
1960263,0.645624,1.243424,0.390400,-61.529999,-21.000000,59.150002,21.79
1960274,0.644648,1.146312,0.367952,-46.689999,-22.120001,68.389999,21.77
1960285,0.655872,1.104344,0.336720,-33.250000,-25.549999,75.599998,21.77
1960296,0.657336,1.066280,0.284992,-23.730000,-23.240000,83.930000,21.79
1960308,0.653432,1.058960,0.254736,-22.889999,-27.020000,95.129997,21.77
1960319,0.664656,1.111176,0.243512,-37.169998,-30.170000,105.139999,21.77
1960330,0.638792,1.104344,0.241560,-59.430000,-37.520000,114.449997,21.80
1960341,0.632448,1.046272,0.214720,-84.629997,-46.410000,121.800003,21.80
1960353,0.653432,0.947696,0.173240,-101.779999,-48.509998,125.930000,21.78
1960364,0.652456,0.843752,0.136640,-116.970001,-47.599998,127.400002,21.75
1960375,0.660752,0.749080,0.140544,-121.870003,-45.290001,128.100006,21.75
1960386,0.669048,0.703696,0.134688,-116.970001,-43.259998,129.149994,21.81
1960397,0.683688,0.679296,0.119560,-114.449997,-42.560001,129.080002,21.81
1960408,0.713456,0.557784,0.102968,-105.699997,-41.509998,127.400002,21.78
1960419,0.740296,0.456768,0.071248,-95.480003,-38.290001,127.470001,21.76
1960430,0.768112,0.407968,-0.005856,-88.269997,-32.200001,127.120003,21.76
1960441,0.760792,0.376248,-0.019032,-90.790001,-30.379999,126.489998,21.80
1960452,0.767136,0.331352,0.010248,-98.000000,-28.629999,127.120003,21.80
1960463,0.754936,0.275232,0.012200,-100.940002,-26.530001,128.100006,21.78
1960474,0.739808,0.235704,0.047336,-106.680000,-28.420000,127.820000,21.78
1960485,0.757864,0.196664,0.060024,-116.480003,-31.010000,125.650002,21.73
1960496,0.773968,0.122976,0.068320,-123.900002,-33.180000,121.800003,21.74
1960507,0.781288,0.048312,0.057584,-125.440002,-33.459999,116.690002,21.74
1960518,0.798856,0.014640,0.031232,-127.260002,-32.619999,111.650002,21.75
1960529,0.826184,-0.041480,0.002928,-128.100006,-30.730000,103.250000,21.75
1960540,0.847656,-0.170312,0.015128,-120.680000,-25.969999,94.779999,21.79
1960551,0.863760,-0.248880,0.002928,-107.029999,-20.580000,87.639999,21.78
1960562,0.885720,-0.260104,-0.007808,-100.800003,-16.379999,81.760002,21.78
1960573,0.894992,-0.253760,0.015616,-100.309998,-14.630000,75.529999,21.76
1960585,0.883280,-0.259616,0.080032,-103.180000,-15.330000,71.330002,21.76
1960596,0.873032,-0.295240,0.112240,-106.190002,-18.129999,64.330002,21.79
1960607,0.869128,-0.328912,0.116632,-108.500000,-21.209999,56.349998,21.75
1960618,0.879864,-0.412848,0.097112,-111.580002,-23.450001,44.730000,21.75
1960629,0.909144,-0.549976,0.047336,-97.230003,-22.889999,31.360001,21.75
1960640,0.948184,-0.652456,-0.001952,-81.059998,-19.459999,18.760000,21.75
1960651,0.972584,-0.699304,-0.029768,-66.360001,-15.470000,2.030000,21.78
1960662,0.983320,-0.726144,-0.051240,-44.590000,-7.350000,-14.770000,21.75
1960674,0.979416,-0.778848,-0.067832,-12.880000,-1.470000,-31.219999,21.75
1960685,0.984784,-0.757864,-0.092720,16.660000,7.280000,-40.110001,21.80
1960696,0.961848,-0.624640,-0.127368,36.959999,15.190000,-50.610001,21.80
1960707,0.953064,-0.542168,-0.119072,43.049999,17.010000,-62.090000,21.78
1960718,0.943304,-0.604632,-0.087352,53.480000,19.040001,-75.669998,21.79
1960729,0.919392,-0.653432,-0.087352,74.269997,24.500000,-87.150002,21.79
1960740,0.915488,-0.606584,-0.085888,97.160004,29.469999,-102.410004,21.79
1960752,0.884256,-0.519232,-0.107848,112.349998,31.639999,-116.550003,21.79
1960763,0.856440,-0.431392,-0.081984,129.220001,38.919998,-129.639999,21.79
1960774,0.806176,-0.357216,-0.064904,143.289993,42.139999,-141.190002,21.74
1960785,0.795440,-0.229360,-0.083448,159.880005,50.820000,-149.940002,21.74
1960796,0.752496,-0.018544,-0.079056,154.839996,57.259998,-157.080002,21.78
1960807,0.717360,0.016104,-0.033672,150.080002,58.099998,-170.169998,21.78
1960818,0.731024,-0.045384,-0.030256,166.740005,61.389999,-177.520004,21.78
1960829,0.686128,-0.011712,-0.033672,188.649994,67.690002,-185.990005,21.78
1960840,0.651968,0.022936,-0.055632,218.399994,72.940002,-195.789993,21.79
1960851,0.611464,0.243512,-0.063440,227.639999,75.599998,-196.979996,21.74
1960862,0.536312,0.355752,-0.083936,231.210007,77.910004,-196.419998,21.74
1960873,0.461648,0.657824,-0.052216,221.270004,73.290001,-189.630005,21.81
1960884,0.425048,0.992592,-0.018056,193.479996,67.199997,-178.429993,21.81
1960895,0.406016,1.103856,0.052216,167.509995,53.060001,-170.520004,21.76
1960906,0.435784,1.151680,0.053680,142.380005,44.590000,-161.490005,21.75
1960917,0.448472,1.132648,0.041968,127.470001,37.169998,-156.729996,21.75
1960928,0.473848,1.079944,0.032208,118.230003,34.650002,-154.910004,21.79
1960939,0.479216,1.187792,0.069296,101.570000,32.689999,-140.979996,21.79
1960949,0.437736,1.369328,0.190808,90.720001,27.580000,-127.400002,21.80
1960960,0.460184,1.451800,0.311344,72.239998,27.440001,-111.650002,21.75
1960971,0.479216,1.532320,0.361608,51.730000,19.670000,-94.779999,21.75
1960982,0.526064,1.526464,0.372832,36.889999,17.290001,-76.580002,21.76
1960993,0.543632,1.527440,0.308904,25.200001,14.700000,-59.080002,21.76
1961004,0.564616,1.509872,0.261568,11.060000,12.460000,-45.500000,21.80
1961014,0.565592,1.525000,0.245952,1.190000,8.610000,-25.830000,21.80
1961025,0.578280,1.538176,0.291336,-12.460000,5.320000,-12.180000,21.74
1961036,0.581696,1.505968,0.344528,-20.719999,1.190000,2.660000,21.77
1961047,0.585112,1.393728,0.398696,-15.610000,-3.360000,16.450001,21.77
1961058,0.582672,1.369328,0.379176,-10.570000,-8.680000,29.190001,21.77
1961069,0.589016,1.316624,0.356728,-10.780000,-15.050000,39.340000,21.77
1961080,0.603168,1.338584,0.311832,-14.560000,-20.370001,53.200001,21.77
1961091,0.626104,1.363472,0.251808,-28.980000,-23.730000,65.309998,21.74
1961102,0.622688,1.360544,0.204960,-58.590000,-27.370001,76.580002,21.74
1961113,0.610976,1.342976,0.216672,-94.989998,-33.810001,88.269997,21.79
1961124,0.616344,1.315160,0.248392,-120.120003,-36.330002,98.000000,21.79
1961135,0.586576,1.232200,0.273768,-145.460007,-38.709999,102.830002,21.79
1961146,0.602192,1.031632,0.271816,-142.169998,-38.919998,104.370003,21.73
1961157,0.618296,0.916464,0.242048,-131.110001,-37.520000,108.500000,21.73
1961168,0.641232,0.889136,0.191784,-116.410004,-36.049999,112.209999,21.77
1961179,0.665632,0.903288,0.151768,-111.160004,-36.889999,119.349998,21.77
1961190,0.681736,0.947696,0.103944,-117.879997,-36.540001,130.970001,21.79
1961201,0.652944,1.021384,0.078080,-136.639999,-40.950001,141.119995,21.79
1961212,0.662704,1.019920,0.135664,-166.460007,-49.139999,149.100006,21.75
1961224,0.661240,0.866200,0.181536,-189.979996,-54.459999,152.389999,21.74
1961234,0.665144,0.689056,0.142984,-197.610001,-53.619999,153.509995,21.74
1961245,0.639280,0.577304,0.139568,-199.080002,-53.549999,152.529999,21.78
1961256,0.678320,0.463600,0.128832,-189.490005,-51.450001,152.110001,21.78
1961267,0.715408,0.333304,0.082960,-169.820007,-45.779999,151.059998,21.77
1961278,0.730536,0.316224,0.068320,-156.449997,-42.770000,148.960007,21.77
1961289,0.764696,0.309880,0.030744,-149.869995,-36.470001,143.779999,21.77
1961300,0.750056,0.260592,0.015128,-148.960007,-32.830002,142.029999,21.71
1961311,0.727120,0.214720,0.039040,-151.690002,-32.759998,139.580002,21.71
1961322,0.738832,0.098088,0.053192,-157.220001,-35.279999,135.800003,21.73
1961333,0.746152,-0.071736,0.106384,-152.809998,-39.689999,131.320007,21.75
1961344,0.774944,-0.287920,0.156648,-141.610001,-43.049999,122.290001,21.75
1961355,0.791536,-0.425048,0.152256,-125.790001,-44.660000,115.779999,21.76
1961366,0.789096,-0.457256,0.123952,-108.570000,-45.849998,106.330002,21.76
1961377,0.806176,-0.481168,0.081008,-98.489998,-46.619999,97.510002,21.77
1961389,0.825696,-0.535824,0.061488,-93.589996,-45.709999,82.879997,21.77
1961399,0.844240,-0.643184,0.041968,-82.040001,-42.139999,64.750000,21.73
1961410,0.871080,-0.759328,0.038552,-66.080002,-38.430000,48.020000,21.80
1961421,0.892552,-0.861808,0.038064,-44.799999,-32.549999,27.230000,21.80
1961432,0.894504,-0.907680,-0.005856,-25.620001,-25.410000,6.370000,21.77
1961444,0.923296,-0.916952,-0.036112,6.370000,-19.250000,-10.850000,21.77
1961455,0.922320,-0.927200,-0.064416,43.189999,-11.410000,-28.139999,21.77
1961466,0.919880,-0.879864,-0.089792,74.269997,-4.620000,-39.689999,21.77
1961478,0.907680,-0.835456,-0.076616,103.040001,0.560000,-53.130001,21.77
1961489,0.881328,-0.689056,-0.064904,121.730003,6.230000,-63.349998,21.77
1961500,0.838872,-0.507520,-0.081984,132.160004,9.450000,-72.449997,21.77
1961511,0.829112,-0.375760,-0.089792,133.490005,11.690000,-78.540001,21.76
1961522,0.834968,-0.307440,-0.087840,127.050003,13.230000,-90.440002,21.75
1961533,0.853024,-0.366976,-0.098088,125.930000,16.450001,-108.010002,21.75
1961544,0.852048,-0.374784,-0.169824,141.190002,16.940001,-121.589996,21.78
1961555,0.870592,-0.231312,-0.210816,152.809998,31.290001,-131.949997,21.78
1961566,0.837408,-0.292800,-0.190320,166.809998,36.049999,-148.259995,21.83
1961577,0.858392,-0.344528,-0.150792,185.080002,47.040001,-157.220001,21.75
1961588,0.726632,-0.241072,-0.156160,212.729996,49.700001,-162.960007,21.75
1961599,0.689056,0.051728,-0.133224,222.809998,51.799999,-164.779999,21.77
1961610,0.669536,0.327448,-0.092232,210.070007,48.860001,-163.169998,21.77
1961621,0.671976,0.360144,-0.044896,194.179993,49.700001,-164.429993,21.78
1961632,0.662704,0.367952,-0.084912,186.339996,53.130001,-162.679993,21.79
1961643,0.618296,0.421632,-0.132248,196.000000,58.380001,-167.580002,21.79
1961654,0.594872,0.413824,-0.201544,213.919998,61.320000,-177.380005,21.77
1961665,0.616832,0.413336,-0.235216,225.330002,66.849998,-180.949997,21.77
1961676,0.551440,0.574376,-0.162016,224.839996,66.220001,-180.669998,21.73
1961687,0.461160,0.789096,-0.057584,216.089996,57.959999,-176.889999,21.73
1961698,0.447984,0.894504,0.030256,198.169998,47.599998,-170.589996,21.78
1961709,0.444080,0.979416,0.058072,174.440002,38.500000,-162.610001,21.75
1961720,0.446032,1.025776,0.056608,153.369995,30.170000,-154.419998,21.75
1961731,0.473360,1.127768,0.066368,133.630005,26.530001,-144.690002,21.76
1961742,0.452864,1.228296,0.043432,117.180000,28.280001,-137.410004,21.76
1961752,0.460184,1.215120,0.024400,107.309998,32.130001,-130.759995,21.76
1961763,0.431392,1.254160,-0.006832,99.889999,34.650002,-129.919998,21.80
1961774,0.448472,1.240496,-0.022936,95.129997,38.220001,-123.410004,21.80
1961785,0.446520,1.308816,-0.021960,89.180000,42.700001,-115.849998,21.75
1961796,0.452864,1.308816,0.028304,78.190002,40.810001,-105.910004,21.75
1961808,0.413336,1.340536,0.118584,66.360001,35.139999,-91.910004,21.79
1961819,0.385520,1.611376,0.197152,55.720001,29.120001,-74.129997,21.75
1961830,0.392840,1.605520,0.223016,40.599998,19.879999,-54.599998,21.75
1961841,0.406504,1.730448,0.224480,28.700001,13.860000,-37.380001,21.74
1961852,0.420168,1.704096,0.232776,12.180000,9.170000,-17.430000,21.74
1961863,0.454328,1.650416,0.223016,0.560000,4.340000,-2.380000,21.79
1961873,0.485560,1.648464,0.206424,-10.780000,0.980000,16.100000,21.79
1961884,0.510936,1.676280,0.221552,-31.990000,-2.170000,31.990000,21.72
1961895,0.516792,1.605032,0.233752,-49.700001,-4.200000,41.369999,21.74
1961906,0.487512,1.548912,0.219600,-59.150002,-7.560000,53.689999,21.74
1961917,0.491904,1.500112,0.206424,-71.190002,-12.040000,64.260002,21.75
1961928,0.499224,1.384456,0.181048,-74.900002,-16.240000,88.760002,21.75
1961939,0.493856,1.318088,0.141032,-78.190002,-20.160000,80.709999,21.76
1961950,0.518256,1.328336,0.103944,-88.059998,-25.620001,92.120003,21.75
1961961,0.516792,1.320528,0.086864,-110.180000,-29.120001,103.040001,21.75
1961972,0.517280,1.292712,0.054656,-138.740005,-34.160000,118.019997,21.77
1961983,0.495320,1.284416,0.070272,-165.270004,-40.040001,125.650002,21.77
1961994,0.501176,1.134600,0.141520,-181.229996,-42.980000,130.619995,21.75
1962005,0.518256,1.017480,0.184464,-179.759995,-42.279999,135.660004,21.74
1962016,0.524600,1.015040,0.154208,-197.119995,-43.400002,142.100006,21.74
1962027,0.536800,0.983808,0.135664,-182.910004,-45.220001,144.199997,21.77
1962038,0.556808,0.956480,0.144936,-193.899994,-45.709999,146.929993,21.77
1962049,0.560712,0.921832,0.145912,-210.839996,-49.419998,152.320007,21.75
1962060,0.560712,0.895968,0.123952,-229.600006,-55.299999,158.130005,21.75
1962071,0.558272,0.795928,0.112240,-257.880005,-61.529999,160.229996,21.75
1962082,0.563152,0.666608,0.122000,-274.959991,-67.900002,163.240005,21.73
1962093,0.552904,0.595360,0.164456,-272.929993,-71.820000,167.369995,21.73
1962104,0.556808,0.515816,0.216672,-263.760010,-76.580002,168.210007,21.78
1962115,0.576816,0.432368,0.181536,-245.210007,-77.559998,165.550003,21.78
1962126,0.595360,0.338672,0.148352,-227.289993,-77.629997,162.889999,21.74
1962137,0.605120,0.244488,0.113704,-213.149994,-76.440002,157.149994,21.75
1962148,0.629032,0.132736,0.053192,-208.320007,-73.989998,148.679993,21.75
1962159,0.665144,0.036112,0.030256,-208.880005,-72.029999,139.089996,21.76
1962170,0.697352,-0.194712,0.032696,-192.990005,-69.580002,127.050003,21.76
1962181,0.739320,-0.395768,0.023912,-173.600006,-66.220001,113.400002,21.74
1962193,0.762256,-0.466040,0.041480,-147.490005,-62.230000,98.139999,21.76
1962204,0.781288,-0.527528,0.043920,-122.500000,-59.990002,84.070000,21.76
1962215,0.813984,-0.558272,0.050264,-101.919998,-57.889999,74.760002,21.72
1962226,0.845216,-0.594384,0.037576,-91.489998,-57.330002,62.020000,21.72
1962237,0.873520,-0.630008,0.010248,-84.000000,-56.490002,48.160000,21.77
1962248,0.900848,-0.667584,-0.020496,-76.370003,-54.040001,36.119999,21.76
1962259,0.917440,-0.693448,-0.057584,-65.449997,-48.860001,19.459999,21.76
1962270,0.941840,-0.762256,-0.085400,-51.240002,-41.650002,1.120000,21.79
1962281,0.951112,-0.818376,-0.077592,-24.360001,-34.299999,-16.309999,21.79
1962293,0.947208,-0.778360,-0.082472,9.450000,-22.750000,-31.010000,21.79
1962304,0.928176,-0.711992,-0.088328,42.630001,-12.390000,-42.980000,21.75
1962315,0.919392,-0.636840,-0.113704,74.059998,-1.470000,-56.349998,21.75
1962326,0.910608,-0.541680,-0.135664,94.080002,7.210000,-67.760002,21.76
1962337,0.909632,-0.499712,-0.158600,117.180000,12.950000,-78.959999,21.76
1962348,0.909632,-0.443104,-0.173240,139.089996,21.840000,-87.080002,21.78
1962359,0.885720,-0.360144,-0.183000,154.770004,27.370001,-95.900002,21.78
1962370,0.877424,-0.235704,-0.170312,165.899994,31.080000,-104.019997,21.75
1962381,0.852536,-0.132248,-0.151280,170.449997,35.070000,-111.019997,21.73
1962392,0.834968,-0.057584,-0.134688,177.240005,37.099998,-119.769997,21.73
1962403,0.830576,-0.069784,-0.105896,186.199997,40.459999,-129.220001,21.73
1962414,0.832528,-0.041480,-0.120536,202.440002,43.540001,-137.339996,21.73
1962425,0.820328,-0.001464,-0.127856,225.190002,49.419998,-142.869995,21.75
1962436,0.812032,0.042944,-0.151280,245.770004,56.349998,-147.839996,21.69
1962447,0.793976,0.161528,-0.176656,264.529999,62.580002,-150.639999,21.69
1962458,0.755424,0.261568,-0.201056,269.779999,66.709999,-152.669998,21.78
1962469,0.721752,0.356240,-0.193736,272.649994,69.089996,-153.860001,21.78
1962480,0.688080,0.427000,-0.154208,272.089996,69.930000,-154.699997,21.75
1962491,0.656360,0.443592,-0.184464,273.980011,71.680000,-156.800003,21.71
1962502,0.602680,0.551440,-0.194224,272.369995,73.010002,-153.369995,21.71
1962513,0.549488,0.673440,-0.188856,268.519989,69.510002,-152.320007,21.74
1962524,0.527528,0.800808,-0.124440,245.630005,61.040001,-149.029999,21.74
1962535,0.536800,0.842776,-0.058072,225.190002,55.090000,-146.929993,21.76
1962546,0.530944,0.887672,-0.034160,200.550003,49.070000,-145.389999,21.72
1962557,0.519720,1.006256,-0.009760,176.399994,42.630001,-142.100006,21.72
1962568,0.521184,1.008696,-0.020984,149.309998,37.240002,-143.080002,21.75
1962579,0.554856,0.997960,-0.070272,132.440002,39.480000,-137.619995,21.75
1962590,0.531432,1.092144,-0.085400,107.730003,40.389999,-132.509995,21.75
1962601,0.526064,1.177544,-0.040016,89.669998,38.570000,-122.919998,21.75
1962612,0.517280,1.231224,0.044896,69.230003,39.900002,-112.000000,21.70
1962623,0.472384,1.308328,0.139568,57.259998,37.520000,-100.660004,21.79
1962634,0.436760,1.481080,0.188856,36.330002,33.180000,-84.839996,21.79
1962645,0.451400,1.530368,0.223992,48.299999,27.440001,-67.199997,21.75
1962656,0.471408,1.520608,0.233752,44.590000,21.559999,-53.900002,21.75
1962667,0.495320,1.477664,0.216184,40.250000,19.320000,-36.959999,21.76
1962677,0.507032,1.479128,0.165920,29.959999,18.760000,-19.389999,21.75
1962688,0.519720,1.559160,0.135176,12.670000,15.890000,-4.340000,21.75
1962699,0.525088,1.592344,0.134688,-1.120000,9.800000,12.390000,21.75
1962710,0.526552,1.563552,0.167384,-15.330000,6.930000,22.400000,21.75
1962721,0.531920,1.525976,0.191784,-30.030001,1.540000,32.970001,21.78
1962732,0.531432,1.410320,0.176656,-37.169998,-2.940000,42.419998,21.78
1962743,0.538264,1.356640,0.165920,-51.520000,-6.020000,51.660000,21.73
1962754,0.538264,1.325408,0.131760,-71.680000,-9.450000,61.180000,21.72
1962765,0.541680,1.366400,0.093696,-97.019997,-15.330000,73.919998,21.72
1962776,0.546560,1.357616,0.054656,-135.380005,-20.790001,87.220001,21.74
1962787,0.540704,1.270752,0.073688,-161.000000,-28.350000,93.870003,21.74
1962798,0.556808,1.139968,0.099064,-174.020004,-31.709999,96.180000,21.74
1962809,0.552904,1.095072,0.121512,-179.479996,-30.379999,99.889999,21.72
1962820,0.563152,0.974048,0.099064,-187.320007,-31.080000,100.870003,21.72
1962831,0.589504,0.825208,0.130296,-185.220001,-33.529999,103.040001,21.70
1962842,0.581208,0.775920,0.130296,-173.389999,-31.780001,106.190002,21.70
1962853,0.597800,0.860344,0.132736,-169.889999,-31.010000,112.209999,21.73
1962864,0.612928,0.928664,0.152256,-185.360001,-34.650002,119.209999,21.75
1962875,0.631960,0.930616,0.107848,-207.759995,-36.750000,126.489998,21.75
1962886,0.630008,0.864248,0.100528,-233.660004,-40.880001,132.789993,21.74
1962897,0.634400,0.744200,0.120536,-248.149994,-43.400002,133.490005,21.74
1962908,0.630496,0.670024,0.140056,-257.600006,-45.919998,134.820007,21.75
1962919,0.632448,0.556808,0.142984,-257.529999,-47.040001,132.720001,21.75
1962930,0.656360,0.397232,0.143960,-245.839996,-47.250000,127.750000,21.70
1962941,0.695888,0.305976,0.147864,-228.970001,-45.430000,124.040001,21.74
1962952,0.725168,0.236680,0.154208,-214.619995,-43.540001,120.680000,21.74
1962963,0.755912,0.189832,0.131272,-208.600006,-41.299999,117.669998,21.76
1962974,0.763232,0.171776,0.175192,-206.850006,-38.709999,114.169998,21.76
1962985,0.767136,0.122976,0.183976,-204.820007,-38.779999,113.260002,21.74
1962996,0.762256,0.088328,0.196176,-203.210007,-40.950001,111.089996,21.71
1963007,0.775432,0.034160,0.182024,-205.660004,-43.959999,108.639999,21.71
1963018,0.787632,-0.024400,0.206424,-212.800003,-48.230000,105.000000,21.73
1963029,0.781776,-0.121512,0.234240,-207.830002,-50.189999,97.370003,21.73
1963040,0.773480,-0.197152,0.219112,-199.850006,-51.590000,89.110001,21.71
1963051,0.797880,-0.273768,0.215696,-191.309998,-54.250000,80.360001,21.71
1963062,0.853512,-0.437248,0.184464,-167.509995,-53.340000,68.669998,21.71
1963073,0.883280,-0.576328,0.160552,-126.839996,-48.720001,56.279999,21.70
1963084,0.888160,-0.573400,0.129320,-93.800003,-43.259998,43.259998,21.70
1963095,0.891088,-0.577304,0.125416,-57.750000,-38.220001,28.559999,21.73
1963106,0.927200,-0.587552,0.132248,-28.700001,-29.750000,1.750000,21.73
1963117,0.911584,-0.601216,0.148352,-8.610000,-26.530001,9.240000,21.73
1963128,0.914024,-0.593896,0.145912,2.310000,-24.150000,0.000000,21.70
1963139,0.909144,-0.549976,0.127856,11.130000,-23.170000,-8.750000,21.70
1963150,0.906216,-0.556320,0.102968,23.309999,-20.299999,-17.430000,21.72
1963161,0.905728,-0.583648,0.097600,39.480000,-15.400000,-29.260000,21.72
1963172,0.894992,-0.543632,0.090280,58.590000,-11.760000,-41.650002,21.79
1963183,0.904752,-0.531432,0.067344,79.309998,-8.680000,-51.660000,21.67
1963195,0.898896,-0.453840,0.058072,95.410004,-4.270000,-61.880001,21.67
1963205,0.898896,-0.367464,0.046360,101.639999,-0.700000,-70.699997,21.71
1963217,0.905728,-0.338184,0.031720,106.050003,3.080000,-78.820000,21.71
1963228,0.891088,-0.331352,0.038064,114.309998,7.350000,-85.610001,21.74
1963239,0.871568,-0.278160,0.039040,123.550003,11.900000,-93.029999,21.73
1963250,0.853024,-0.257176,0.027816,138.389999,17.500000,-100.379997,21.73
1963261,0.854488,-0.185928,0.022448,158.199997,21.209999,-105.000000,21.72
1963272,0.846680,-0.141520,0.020984,184.240005,25.340000,-109.970001,21.72
1963283,0.818376,-0.072224,-0.004392,204.259995,32.130001,-116.129997,21.73
1963294,0.793488,0.033184,-0.041968,226.449997,34.439999,-120.190002,21.70
1963304,0.777872,0.172752,-0.067832,237.089996,37.939999,-122.919998,21.70
1963315,0.752984,0.264496,-0.053192,268.589996,41.790001,-127.260002,21.71
1963326,0.749080,0.329888,-0.091256,263.059998,44.450001,-130.970001,21.71
1963337,0.737368,0.285968,-0.108824,294.630005,44.799999,-136.500000,21.72
1963348,0.742736,0.306952,-0.152744,316.329987,49.349998,-142.449997,21.74
1963359,0.719800,0.345992,-0.112728,327.459991,49.700001,-148.470001,21.74
1963370,0.682224,0.370392,-0.064904,329.630005,48.299999,-154.000000,21.73
1963381,0.646112,0.348920,-0.047336,325.570007,46.060001,-157.429993,21.73
1963392,0.569496,0.429928,-0.089304,324.519989,46.060001,-157.710007,21.75
1963403,0.524600,0.636840,-0.135176,304.429993,42.980000,-154.279999,21.75
1963414,0.506056,0.786656,-0.154696,275.519989,34.509998,-149.589996,21.74
1963425,0.496296,0.969168,-0.146400,237.789993,27.370001,-143.850006,21.73
1963436,0.518256,0.994056,-0.177632,199.080002,26.459999,-139.649994,21.73
1963447,0.529968,1.000888,-0.173240,161.699997,22.959999,-134.610001,21.73
1963458,0.512400,1.066280,-0.172752,132.720001,22.049999,-133.770004,21.73
1963469,0.517768,1.012600,-0.136640,110.879997,21.490000,-137.059998,21.74
1963480,0.508008,0.900360,-0.114192,103.180000,25.549999,-140.699997,21.70
1963491,0.457744,0.976488,-0.087840,96.809998,27.790001,-137.550003,21.70
1963502,0.434320,1.119472,-0.080520,85.889999,25.620001,-130.199997,21.71
1963513,0.440176,1.299544,-0.056120,70.489998,23.240000,-116.550003,21.71
1963524,0.428952,1.448384,-0.017080,46.970001,16.240000,-102.480003,21.74
1963535,0.425048,1.519144,0.007808,27.370001,10.500000,-88.339996,21.74
1963545,0.446032,1.485472,0.036600,17.430000,7.350000,-72.379997,21.76
1963556,0.461160,1.468392,0.040992,13.090000,7.420000,-60.970001,21.71
1963567,0.469456,1.470832,0.016592,12.880000,10.780000,-47.320000,21.71
1963578,0.486536,1.468880,0.010736,12.390000,13.790000,-33.950001,21.72
1963589,0.479704,1.435208,0.045872,9.590000,13.790000,-24.290001,21.72
1963600,0.460672,1.384944,0.081984,8.330000,11.550000,-13.300000,21.75
1963610,0.443592,1.444480,0.104432,1.960000,5.250000,0.140000,21.65
1963621,0.454328,1.493280,0.103456,-11.760000,-4.410000,10.990000,21.65
1963632,0.480680,1.482056,0.081496,-24.639999,-10.430000,24.639999,21.70
1963643,0.485560,1.443992,0.063440,-39.689999,-13.160000,34.790001,21.70
1963654,0.498736,1.344928,0.045384,-49.419998,-12.880000,40.950001,21.71
1963665,0.374784,1.332728,0.001952,-55.720001,-11.550000,48.720001,21.71
1963676,0.502640,1.141432,-0.025864,-66.080002,-11.690000,54.669998,21.72
1963687,0.509472,1.190720,-0.022936,-73.709999,-11.970000,59.570000,21.68
1963698,0.510448,1.095072,0.010736,-72.589996,-11.410000,67.059998,21.68
1963709,0.499712,1.156560,0.025864,-74.760002,-12.250000,74.129997,21.73
1963720,0.504104,1.192672,0.005856,-88.199997,-16.100000,80.709999,21.73
1963731,0.508496,1.179008,-0.021472,-108.989998,-21.070000,88.830002,21.72
1963742,0.523136,1.152168,-0.037088,-133.000000,-25.129999,97.510002,21.71
1963753,0.521672,1.127768,-0.065880,-162.960007,-25.340000,102.830002,21.71
1963764,0.528992,1.076528,-0.027816,-205.029999,-29.260000,107.519997,21.69
1963775,0.536312,0.939400,-0.001464,-226.309998,-30.379999,109.620003,21.69
1963786,0.542656,0.808616,0.046360,-227.919998,-26.740000,109.620003,21.68
1963797,0.549488,0.808128,0.063440,-223.509995,-27.090000,110.110001,21.69
1963808,0.562664,0.878888,0.073200,-229.529999,-28.840000,114.099998,21.69
1963819,0.562664,0.861320,0.076128,-239.119995,-35.209999,118.019997,21.68
1963830,0.579744,0.831552,0.075152,-251.369995,-38.360001,124.250000,21.68
1963841,0.579744,0.826672,0.081496,-273.630005,-42.630001,128.800003,21.73
1963852,0.580720,0.772016,0.145424,-297.079987,-51.869999,133.279999,21.73
1963863,0.601216,0.647088,0.204960,-322.559998,-58.450001,133.770004,21.73
1963874,0.630008,0.529480,0.256200,-335.089996,-63.630001,134.960007,21.73
1963884,0.628544,0.406016,0.261080,-309.890015,-66.150002,132.020004,21.73
1963895,0.652456,0.229360,0.252296,-288.959991,-67.970001,128.800003,21.71
1963906,0.699304,0.186904,0.192760,-245.910004,-66.290001,126.139999,21.71
1963917,0.718824,0.173240,0.139080,-214.059998,-66.500000,117.459999,21.72
1963928,0.762744,0.111264,0.111264,-196.490005,-62.299999,109.550003,21.68
1963939,0.780800,0.046848,0.125904,-182.699997,-59.430000,103.599998,21.68
1963950,0.784216,-0.028792,0.159088,-178.080002,-58.240002,95.760002,21.65
1963963,0.804224,-0.103456,0.183000,-179.270004,-57.259998,86.940002,21.65
1963975,0.829112,-0.271328,0.185440,-175.419998,-55.650002,77.629997,21.72
1963986,0.845704,-0.450912,0.191784,-138.389999,-52.009998,68.320000,21.72
1963997,0.843264,-0.517768,0.180072,-86.449997,-47.320000,58.660000,21.72
1964008,0.854488,-0.473360,0.162504,-48.020000,-42.910000,48.509998,21.71
1964020,0.875960,-0.444568,0.140056,-10.500000,-37.450001,35.980000,21.71
1964031,0.914512,-0.427000,0.105408,14.350000,-28.840000,25.620001,21.73
1964042,0.906216,-0.414312,0.114192,23.309999,-24.500000,16.940001,21.71
1964053,0.910608,-0.394792,0.144936,20.580000,-20.510000,7.280000,21.71
1964064,0.897432,-0.402600,0.170800,17.709999,-18.620001,-2.660000,21.68
1964076,0.882792,-0.410896,0.169336,21.139999,-15.470000,-13.440000,21.68
1964087,0.893040,-0.482144,0.148840,39.410000,-11.830000,-25.830000,21.70
1964098,0.885232,-0.487512,0.114192,69.089996,-3.990000,-53.549999,21.68
1964109,0.877912,-0.451888,0.077592,100.800003,2.730000,-47.250000,21.68
1964120,0.883280,-0.366976,0.074176,121.800003,9.800000,-56.209999,21.72
1964131,0.872544,-0.268400,0.092720,133.770004,14.980000,-63.279999,21.72
1964141,0.864736,-0.154208,0.106872,132.369995,18.620001,-67.760002,21.73
1964152,0.858880,-0.134688,0.112240,130.339996,20.719999,-73.779999,21.67
1964163,0.856440,-0.136152,0.101504,135.169998,23.379999,-80.989998,21.67
1964174,0.839360,-0.133224,0.082960,153.369995,27.860001,-87.709999,21.70
1964185,0.830088,-0.112728,0.045872,173.389999,31.850000,-96.389999,21.70
1964196,0.819352,-0.048312,0.038552,196.279999,33.389999,-102.690002,21.74
1964207,0.810568,-0.002440,0.047336,223.789993,34.860001,-108.010002,21.71
1964218,0.800320,0.093696,0.041480,238.559998,36.540001,-111.580002,21.71
1964229,0.765184,0.191296,0.035136,253.399994,36.750000,-114.800003,21.71
1964240,0.759328,0.276696,0.035624,256.130005,36.889999,-116.760002,21.71
1964250,0.740784,0.383568,0.025864,253.610001,36.889999,-118.370003,21.71
1964261,0.724192,0.391864,0.046848,255.850006,36.330002,-120.820000,21.71
1964272,0.700768,0.502640,0.027328,257.040009,36.959999,-121.800003,21.70
1964283,0.678808,0.506056,0.021472,271.109985,37.380001,-124.389999,21.66
1964294,0.669048,0.534848,-0.010248,288.260010,39.340000,-129.360001,21.66
1964305,0.657336,0.547048,-0.071736,304.079987,41.509998,-132.369995,21.69
1964316,0.650016,0.570472,-0.080032,311.149994,41.860001,-138.880005,21.69
1964327,0.631472,0.708088,-0.151768,299.390015,40.810001,-138.669998,21.68
1964338,0.629520,0.767136,-0.106872,272.160004,31.850000,-137.690002,21.66
1964349,0.604144,0.842776,-0.093696,240.520004,30.309999,-136.500000,21.66
1964360,0.502152,0.946720,-0.083448,211.399994,20.790001,-129.850006,21.74
1964371,0.498736,0.993080,-0.053192,173.460007,14.000000,-122.989998,21.74
1964382,0.500200,1.075552,-0.064416,136.360001,10.640000,-116.690002,21.72
1964394,0.478240,1.151192,-0.088816,106.959999,9.940000,-108.360001,21.71
1964404,0.476776,1.221952,-0.106872,86.309998,11.690000,-102.129997,21.71
1964415,0.495320,1.293200,-0.162016,66.360001,13.580000,-94.709999,21.75
1964426,0.515816,1.335656,-0.178608,49.980000,18.270000,-90.370003,21.75
1964437,0.523136,1.322480,-0.153232,41.369999,18.480000,-79.940002,21.72
1964448,0.504104,1.385920,-0.081984,31.360001,16.170000,-72.309998,21.72
1964459,0.489952,1.416176,-0.006832,24.639999,15.750000,-64.470001,21.70
1964470,0.476288,1.419592,0.035624,19.809999,11.900000,-52.570000,21.71
1964481,0.467992,1.404952,0.069296,16.100000,10.150000,-38.639999,21.71
1964492,0.455304,1.459608,0.070272,6.510000,5.180000,-24.780001,21.71
1964503,0.483120,1.473272,0.066368,-6.160000,0.630000,-7.560000,21.71
1964514,0.485072,1.446432,0.039528,-16.100000,-1.820000,8.470000,21.68
1964525,0.501176,1.462536,0.021472,-28.139999,-6.650000,21.629999,21.68
1964536,0.524600,1.450336,0.027328,-41.090000,-7.840000,32.619999,21.68
1964547,0.516304,1.385920,0.040504,-48.299999,-7.210000,42.630001,21.74
1964558,0.513376,1.321016,0.056120,-57.540001,-8.820000,49.840000,21.74
1964569,0.512400,1.280024,0.053680,-71.680000,-11.130000,54.810001,21.69
1964580,0.504104,1.245864,0.035136,-92.610001,-15.190000,62.439999,21.69
1964591,0.497272,1.221952,-0.000976,-113.190002,-22.400000,68.739998,21.68
1964602,0.507520,1.230248,0.010248,-142.940002,-26.809999,77.419998,21.65
1964613,0.511424,1.158024,0.013176,-168.630005,-30.730000,84.349998,21.65
1964624,0.508008,1.064328,0.032208,-179.479996,-32.480000,87.919998,21.71
1964635,0.517768,0.995520,0.024888,-186.199997,-34.860001,93.870003,21.71
1964646,0.542168,0.995520,0.032208,-196.279999,-37.939999,98.910004,21.71
1964657,0.546072,0.990640,0.072712,-214.339996,-40.810001,102.269997,21.69
1964668,0.543632,0.934032,0.081984,-231.279999,-43.400002,106.260002,21.69
1964679,0.547536,0.902312,0.107360,-252.490005,-47.599998,107.940002,21.71
1964690,0.574864,0.828624,0.126880,-259.980011,-48.720001,108.290001,21.71
1964701,0.610976,0.684176,0.140544,-257.179993,-47.669998,109.059998,21.71
1964712,0.616832,0.672952,0.154208,-252.070007,-47.740002,111.089996,21.69
1964723,0.620248,0.671976,0.163480,-249.619995,-49.560001,112.489998,21.69
1964734,0.634400,0.647576,0.191296,-239.330002,-54.740002,113.820000,21.69
1964745,0.639280,0.650016,0.238144,-236.039993,-59.080002,116.410004,21.69
1964756,0.645624,0.626104,0.245952,-241.429993,-63.560001,116.760002,21.73
1964767,0.682712,0.550952,0.231800,-256.549988,-68.739998,116.059998,21.65
1964778,0.720776,0.518256,0.232776,-270.200012,-68.669998,116.059998,21.65
1964789,0.711504,0.388448,0.276208,-272.790009,-69.089996,112.699997,21.69
1964800,0.726632,0.299632,0.293776,-256.059998,-68.529999,109.129997,21.69
1964811,0.727608,0.267424,0.253760,-231.630005,-68.110001,107.870003,21.70
1964822,0.769576,0.178120,0.189832,-203.279999,-68.809998,101.360001,21.70
1964833,0.813008,0.121512,0.139080,-172.830002,-66.080002,94.779999,21.72
1964844,0.833992,0.047336,0.138104,-146.369995,-62.720001,88.900002,21.69
1964855,0.849120,-0.045384,0.165432,-123.620003,-59.709999,82.180000,21.69
1964866,0.847168,-0.076616,0.176656,-98.000000,-56.840000,77.839996,21.69
1964877,0.845704,-0.105408,0.184952,-79.940002,-56.770000,72.870003,21.69
1964888,0.868640,-0.158112,0.195688,-66.989998,-55.230000,68.739998,21.71
1964899,0.863272,-0.213256,0.196664,-55.230000,-53.549999,62.720001,21.72
1964911,0.869616,-0.255224,0.175192,-45.150002,-50.259998,55.369999,21.72
1964922,0.877912,-0.280600,0.115168,-34.230000,-45.080002,45.849998,21.70
1964933,0.895480,-0.325496,0.057096,-25.200001,-39.830002,34.580002,21.70
1964944,0.898408,-0.377712,0.006344,-14.140000,-32.130001,23.660000,21.72
1964955,0.914024,-0.433344,-0.015128,-5.250000,-24.219999,11.410000,21.71
1964966,0.917928,-0.478240,-0.019032,4.340000,-16.730000,-1.400000,21.71
1964978,0.915976,-0.515328,-0.020008,22.680000,-10.780000,-12.950000,21.69
1964989,0.908656,-0.493856,-0.024888,44.169998,-3.850000,-20.719999,21.69
1965000,0.903776,-0.461648,-0.020984,61.529999,3.010000,-30.660000,21.70
1965011,0.895480,-0.422608,-0.021960,71.889999,8.680000,-39.689999,21.67
1965022,0.887184,-0.373808,-0.019032,76.860001,12.250000,-48.090000,21.67
1965033,0.889136,-0.408944,-0.018056,92.120003,18.200001,-56.139999,21.68
1965044,0.871568,-0.354776,-0.027816,111.300003,25.059999,-65.169998,21.68
1965055,0.847656,-0.271328,-0.030256,124.459999,29.820000,-76.580002,21.68
1965066,0.847656,-0.284992,-0.040016,150.080002,35.209999,-88.339996,21.64
1965077,0.829600,-0.225944,-0.050752,174.789993,42.419998,-97.019997,21.64
1965088,0.806664,-0.126880,-0.014640,188.789993,45.009998,-107.379997,21.71
1965099,0.785680,-0.023424,0.040992,197.050003,47.459999,-115.989998,21.71
1965110,0.773480,-0.044896,0.082472,211.539993,47.459999,-122.220001,21.70
1965121,0.755424,0.000000,0.073200,246.050003,49.840000,-128.800003,21.70
1965132,0.716384,0.063928,0.046360,260.540009,51.029999,-135.100006,21.65
1965143,0.708576,0.167384,-0.010736,289.589996,52.709999,-138.529999,21.66
1965154,0.699304,0.301584,-0.062952,315.839996,55.160000,-143.220001,21.66
1965165,0.690520,0.439688,-0.059536,323.049988,55.439999,-146.020004,21.65
1965176,0.660752,0.582184,-0.028792,327.670013,53.619999,-150.080002,21.65
1965187,0.666120,0.606096,-0.051240,322.769989,52.709999,-152.389999,21.72
1965198,0.656360,0.588040,-0.151768,316.190002,53.759998,-155.889999,21.70
1965209,0.637816,0.564128,-0.193736,305.269989,53.900002,-157.570007,21.70
1965220,0.569008,0.637328,-0.159088,290.640015,48.230000,-157.429993,21.67
1965231,0.492392,0.885720,-0.128832,272.510010,43.470001,-150.080002,21.67
1965241,0.465064,1.071648,-0.095648,246.889999,38.570000,-142.449997,21.70
1965252,0.436760,1.170224,-0.052216,208.320007,24.500000,-134.399994,21.64
1965263,0.456280,1.181448,-0.011712,171.919998,14.350000,-127.540001,21.64
1965274,0.437248,1.265384,0.026352,143.710007,9.520000,-120.330002,21.65
1965285,0.462136,1.330776,-0.028792,106.190002,7.280000,-111.790001,21.65
1965296,0.499712,1.274656,-0.119072,84.489998,10.920000,-107.239998,21.70
1965307,0.520696,1.273680,-0.175192,69.510002,17.360001,-100.449997,21.70
1965318,0.523136,1.324432,-0.172264,50.610001,23.590000,-72.239998,21.69
1965329,0.503128,1.405928,-0.129808,33.389999,24.850000,-81.900002,21.69
1965340,0.462136,1.433256,-0.033672,24.290001,21.700001,-72.940002,21.69
1965351,0.457256,1.388848,0.052704,22.959999,17.430000,-60.689999,21.69
1965362,0.453352,1.380552,0.089792,25.129999,12.950000,-50.119999,21.69
1965372,0.453840,1.441064,0.084424,22.469999,7.770000,-34.720001,21.67
1965383,0.467016,1.439112,0.052216,13.300000,2.520000,-20.370001,21.64
1965394,0.492392,1.343952,0.003904,8.190000,1.540000,-10.990000,21.64
1965405,0.499224,1.376160,-0.045872,3.780000,1.260000,2.170000,21.69
1965416,0.494344,1.417152,-0.025864,-6.230000,-1.540000,11.410000,21.69
1965427,0.508496,1.400560,0.016104,-14.490000,-2.730000,20.860001,21.66
1965438,0.485072,1.359080,0.063928,-18.690001,-3.500000,29.190001,21.66
1965449,0.488976,1.326872,0.075152,-29.190001,-5.880000,36.680000,21.66
1965460,0.492880,1.282464,0.055144,-44.799999,-7.840000,42.630001,21.69
1965471,0.485072,1.252696,0.022448,-63.980000,-12.250000,50.400002,21.69
1965482,0.492392,1.271240,-0.010736,-83.370003,-15.680000,59.500000,21.70
1965493,0.495808,1.284416,-0.026840,-110.879997,-21.420000,68.669998,21.70
1965504,0.497272,1.166320,-0.036112,-120.680000,-24.500000,72.099998,21.70
1965515,0.494832,1.068232,-0.039528,-121.379997,-22.959999,77.769997,21.66
1965526,0.498736,1.085800,-0.020496,-121.660004,-22.750000,86.660004,21.66
1965538,0.515328,1.063840,0.012688,-124.879997,-23.730000,91.139999,21.71
1965548,0.516304,1.031632,0.027816,-134.190002,-26.670000,98.839996,21.71
1965559,0.520696,1.044808,-0.000488,-158.339996,-32.340000,108.779999,21.69
1965570,0.535336,1.110688,0.009760,-184.100006,-33.669998,116.129997,21.70
1965581,0.524112,1.118008,0.022936,-230.580002,-39.900002,122.570000,21.70
1965592,0.527528,1.060912,0.033184,-266.910004,-45.080002,127.330002,21.68
1965603,0.545584,0.947696,0.088816,-283.850006,-48.230000,128.800003,21.68
1965614,0.572912,0.864248,0.113216,-294.839996,-49.840000,130.619995,21.68
1965625,0.568520,0.745176,0.137616,-286.369995,-51.520000,127.260002,21.68
1965636,0.603168,0.623176,0.133712,-267.959991,-50.400002,128.660004,21.68
1965647,0.606096,0.574376,0.138104,-244.580002,-52.849998,128.169998,21.64
1965658,0.653920,0.552904,0.109800,-223.509995,-52.500000,127.750000,21.64
1965669,0.663680,0.524112,0.087352,-215.529999,-54.950001,127.680000,21.67
1965680,0.687592,0.519232,0.066856,-215.669998,-55.720001,130.970001,21.67
1965691,0.673440,0.474824,0.089792,-223.509995,-58.380001,132.160004,21.70
1965702,0.708576,0.324520,0.122488,-225.330002,-60.970001,131.529999,21.69
1965713,0.726632,0.250832,0.163480,-219.589996,-60.200001,131.320007,21.69
1965724,0.713944,0.262544,0.166408,-213.289993,-60.410000,130.130005,21.68
1965734,0.725168,0.248392,0.162992,-211.960007,-62.299999,127.959999,21.68
1965745,0.747616,0.199104,0.126880,-211.750000,-62.020000,123.970001,21.71
1965756,0.759328,0.135664,0.116144,-212.169998,-62.090000,120.330002,21.68
1965767,0.783728,0.040992,0.116144,-209.860001,-61.740002,113.190002,21.68
1965778,0.810568,-0.113704,0.110288,-200.199997,-58.869999,104.089996,21.66
1965789,0.829600,-0.201056,0.089304,-186.270004,-55.790001,95.620003,21.66
1965800,0.834968,-0.306952,0.083448,-168.210007,-52.709999,88.059998,21.69
1965811,0.861808,-0.413336,0.061488,-144.059998,-46.270000,77.699997,21.69
1965822,0.872544,-0.492880,0.029280,-121.029999,-40.110001,66.639999,21.70
1965833,0.878888,-0.536312,0.001952,-94.290001,-35.000000,53.830002,21.68
1965844,0.907680,-0.587552,-0.010736,-71.889999,-28.490000,44.240002,21.68
1965856,0.912560,-0.604144,-0.012688,-57.049999,-21.910000,31.990000,21.72
1965867,0.913536,-0.654408,-0.020008,-41.020000,-15.960000,17.430000,21.72
1965878,0.923784,-0.719800,-0.029768,-17.219999,-10.500000,2.310000,21.71
1965889,0.913048,-0.729072,-0.034160,7.490000,-4.410000,-9.240000,21.75
1965900,0.904264,-0.711504,-0.038064,33.250000,1.120000,-24.010000,21.75
1965911,0.907680,-0.703696,-0.027328,51.660000,6.720000,-37.799999,21.68
1965922,0.906704,-0.691008,-0.009272,78.540001,12.250000,-50.610001,21.68
1965933,0.888648,-0.600728,-0.010248,101.150002,20.020000,-59.430000,21.69
1965944,0.858880,-0.488488,-0.000488,115.639999,26.040001,-70.000000,21.66
1965955,0.855464,-0.408456,-0.013176,128.660004,30.799999,-80.709999,21.66
1965966,0.845216,-0.367952,-0.022448,142.029999,37.660000,-89.879997,21.68
1965977,0.840824,-0.398208,-0.051728,171.220001,45.150002,-102.199997,21.68
1965988,0.840824,-0.375760,-0.084912,202.720001,53.619999,-112.559998,21.67
1965999,0.811056,-0.194224,-0.119560,230.860001,58.240002,-121.519997,21.66
1966010,0.799344,-0.135176,-0.069296,255.149994,60.549999,-127.820000,21.66
1966021,0.761280,-0.020984,-0.020984,270.899994,60.970001,-132.789993,21.70
1966032,0.736392,0.038552,0.013176,287.910004,59.290001,-138.389999,21.70
1966043,0.724680,0.088816,0.006832,311.290009,58.730000,-160.720001,21.68
1966054,0.687592,0.261568,-0.002928,325.570007,58.520000,-145.110001,21.68
1966065,0.658312,0.348432,-0.027816,341.670013,55.230000,-149.940002,21.66
1966076,0.666608,0.412848,-0.041480,353.989990,54.459999,-153.440002,21.65
1966087,0.621712,0.508984,-0.047824,369.670013,54.389999,-156.729996,21.65
1966098,0.608536,0.608048,-0.061976,370.649994,53.130001,-161.139999,21.69
1966109,0.616832,0.614880,-0.073200,356.720001,48.720001,-165.339996,21.69
1966120,0.592432,0.641720,-0.069784,333.899994,44.169998,-167.509995,21.70
1966131,0.551928,0.714920,-0.004880,307.579987,40.320000,-167.789993,21.64
1966141,0.490440,0.812520,-0.033672,270.130005,33.180000,-165.619995,21.64
1966152,0.484096,0.870592,-0.038552,235.339996,27.719999,-163.660004,21.69
1966163,0.451400,0.932568,-0.067832,212.520004,23.799999,-159.600006,21.69
1966174,0.412848,1.098976,-0.121512,176.050003,18.620001,-150.990005,21.65
1966185,0.416752,1.135576,-0.179096,140.839996,14.350000,-144.830002,21.65
1966196,0.407968,1.216584,-0.190808,114.309998,12.950000,-137.270004,21.65
1966207,0.404552,1.257088,-0.188368,92.959999,12.950000,-128.449997,21.64
1966219,0.398208,1.260992,-0.155184,74.830002,12.040000,-123.830002,21.64
1966230,0.402600,1.262944,-0.105408,63.700001,12.110000,-116.970001,21.63
1966241,0.382104,1.301984,-0.106384,58.590000,15.260000,-107.379997,21.63
1966252,0.369904,1.433256,-0.081496,50.889999,13.860000,-93.870003,21.65
1966263,0.366488,1.485472,-0.055144,37.869999,12.040000,-81.480003,21.67
1966274,0.366976,1.541592,-0.043432,22.120001,9.170000,-67.550003,21.67
1966285,0.373320,1.536224,-0.027328,11.480000,7.280000,-50.889999,21.69
1966296,0.383080,1.522072,-0.001952,3.920000,6.370000,-35.840000,21.69
1966307,0.378688,1.509872,0.016592,-0.070000,4.270000,-23.940001,21.71
1966318,0.397232,1.542080,0.032208,-4.270000,2.030000,-9.590000,21.65
1966329,0.406016,1.547936,0.039040,-10.360000,-0.630000,3.780000,21.65
1966340,0.415776,1.485960,0.026352,-15.330000,-3.290000,15.890000,21.68
1966350,0.430904,1.445456,0.020984,-19.530001,-4.130000,24.219999,21.68
1966361,0.433832,1.410808,0.014152,-26.530001,-7.350000,33.599998,21.73
1966372,0.444568,1.253184,0.020008,-39.410000,-10.290000,42.560001,21.63
1966383,0.452376,1.291736,-0.000976,-46.830002,-10.850000,48.790001,21.63
1966394,0.443104,1.271728,-0.008784,-54.669998,-13.580000,55.720001,21.70
1966405,0.448960,1.181936,0.007808,-65.940002,-15.470000,61.740002,21.70
1966416,0.454816,1.118008,0.030744,-66.360001,-16.170000,66.010002,21.66
1966427,0.461648,1.160952,0.023424,-71.050003,-17.920000,75.320000,21.66
1966438,0.479216,1.178032,-0.018056,-81.760002,-20.370001,82.879997,21.69
1966449,0.489464,1.159976,-0.041480,-101.430000,-21.980000,90.510002,21.61
1966460,0.487024,1.164368,-0.049776,-127.540001,-23.590000,96.110001,21.61
1966472,0.500688,1.108248,-0.038552,-159.669998,-25.200001,100.870003,21.68
1966483,0.521184,0.990640,-0.014152,-185.639999,-25.900000,103.809998,21.68
1966494,0.511912,0.911584,0.040504,-202.160004,-28.000000,105.699997,21.63
1966505,0.532896,0.700280,0.124928,-180.529999,-27.510000,105.000000,21.65
1966516,0.549000,0.680272,0.161528,-145.529999,-25.059999,102.129997,21.65
1966527,0.547048,0.740784,0.131760,-150.009995,-26.530001,107.589996,21.68
1966537,0.587064,0.814960,0.101504,-159.039993,-32.130001,113.330002,21.68
1966548,0.599264,0.882304,0.050264,-169.399994,-35.070000,122.010002,21.70
1966559,0.593408,0.834480,0.071248,-194.529999,-39.200001,127.260002,21.67
1966570,0.614392,0.807152,0.156160,-227.990005,-45.570000,129.639999,21.67
1966582,0.619760,0.661728,0.175192,-229.389999,-49.000000,131.880005,21.68
1966593,0.635864,0.550952,0.259616,-218.539993,-49.910000,133.070007,21.68
1966604,0.643672,0.551440,0.245464,-198.100006,-49.840000,132.440002,21.66
1966614,0.672464,0.534848,0.208864,-169.050003,-49.279999,130.339996,21.63
1966625,0.707112,0.517768,0.176656,-153.300003,-45.080002,126.279999,21.63
1966636,0.727120,0.448472,0.137128,-143.990005,-43.610001,120.680000,21.63
1966647,0.755424,0.380640,0.141520,-144.690002,-42.560001,114.589996,21.63
1966658,0.796416,0.310368,0.139568,-153.160004,-40.810001,108.779999,21.61
1966669,0.806176,0.189832,0.186904,-152.460007,-39.830002,104.440002,21.61
1966680,0.787632,0.159088,0.246440,-147.070007,-39.200001,100.309998,21.68
1966691,0.753960,0.085888,0.282064,-126.629997,-41.720001,97.300003,21.66
1966702,0.800808,-0.043432,0.281576,-101.989998,-43.259998,92.540001,21.66
1966713,0.817400,-0.039528,0.261080,-73.779999,-42.490002,88.410004,21.69
1966724,0.824232,-0.011224,0.239120,-60.549999,-43.049999,84.209999,21.69
1966735,0.852536,-0.006344,0.229848,-61.810001,-42.840000,79.379997,21.65
1966746,0.860344,-0.016104,0.205448,-70.910004,-42.139999,75.529999,21.63
1966757,0.865224,-0.015616,0.230336,-91.980003,-42.700001,71.400002,21.63
1966768,0.861320,-0.090768,0.232776,-109.339996,-42.630001,63.560001,21.64
1966779,0.856928,-0.251320,0.205936,-102.410004,-39.480000,52.080002,21.64
1966791,0.855952,-0.356728,0.140056,-81.620003,-33.880001,39.270000,21.66
1966802,0.879376,-0.446032,0.064416,-40.810001,-24.780001,23.660000,21.65
1966813,0.906216,-0.494832,0.023424,-1.820000,-16.309999,6.720000,21.65
1966824,0.899872,-0.474824,0.043432,26.459999,-9.100000,-3.500000,21.68
1966836,0.908656,-0.430904,0.065392,41.930000,-2.520000,-13.650000,21.68
1966847,0.899384,-0.366976,0.098576,41.439999,0.280000,-22.120001,21.68
1966858,0.890600,-0.349408,0.114680,35.209999,0.350000,-30.870001,21.63
1966869,0.877912,-0.360632,0.108824,32.340000,0.350000,-38.430000,21.63
1966880,0.874496,-0.404552,0.096136,39.340000,2.450000,-51.310001,21.67
1966891,0.887672,-0.463600,0.073200,61.040001,8.470000,-65.870003,21.67
1966902,0.873520,-0.464576,0.032208,93.870003,16.520000,-80.500000,21.66
1966913,0.859368,-0.412848,0.014640,126.980003,23.450001,-90.089996,21.65
1966924,0.833504,-0.255224,0.019032,144.410004,29.540001,-99.959999,21.65
1966935,0.809592,-0.166896,0.028792,152.039993,32.689999,-109.480003,21.66
1966946,0.787632,-0.111752,0.033672,157.360001,34.299999,-114.379997,21.66
1966957,0.761280,-0.017080,0.033672,161.350006,35.349998,-121.029999,21.69
1966968,0.744200,0.010248,0.028792,168.630005,37.869999,-130.130005,21.69
1966979,0.722728,0.064416,0.016104,181.229996,40.529999,-135.380005,21.64
1966990,0.688568,0.044408,0.042456,203.000000,41.509998,-143.919998,21.65
1967001,0.674904,0.143472,0.037576,217.210007,45.080002,-149.729996,21.65
1967012,0.610488,0.348432,0.001464,233.100006,45.570000,-153.369995,21.65
1967023,0.603656,0.472384,-0.030744,237.580002,42.840000,-153.789993,21.65
1967033,0.595360,0.510936,-0.073200,245.699997,41.930000,-156.169998,21.65
1967044,0.594872,0.512400,-0.135664,254.869995,43.750000,-158.270004,21.64
1967056,0.579744,0.615368,-0.194712,262.359985,49.980000,-160.020004,21.64
1967067,0.529968,0.771528,-0.236192,267.399994,48.650002,-158.199997,21.65
1967078,0.514352,0.845216,-0.238632,273.279999,49.910000,-158.759995,21.65
1967089,0.510448,0.891576,-0.207400,260.890015,52.500000,-159.389999,21.63
1967100,0.453352,0.897432,-0.140056,248.360001,48.509998,-159.809998,21.64
1967112,0.407480,1.045784,-0.110288,224.000000,42.630001,-156.029999,21.64
1967123,0.412360,1.172176,-0.056608,186.059998,32.549999,-149.100006,21.68
1967134,0.406992,1.219512,-0.017568,154.490005,26.740000,-139.649994,21.68
1967145,0.367952,1.322480,-0.030744,113.470001,21.980000,-131.320007,21.68
1967155,0.389912,1.349320,-0.041968,72.099998,16.100000,-121.940002,21.61
1967166,0.426024,1.373232,-0.061488,43.959999,15.330000,-111.300003,21.61
1967177,0.409920,1.475224,-0.054656,18.690001,18.620001,-102.410004,21.62
1967188,0.380152,1.544520,-0.044408,-0.770000,17.920000,-90.019997,21.62
1967199,0.382592,1.476200,0.000976,-1.260000,18.480000,-82.459999,21.62
1967210,0.378688,1.439600,0.032208,10.850000,20.370001,-69.790001,21.62
1967221,0.390400,1.413736,0.053680,20.580000,18.549999,-60.549999,21.61
1967232,0.407968,1.404464,0.060024,23.660000,15.680000,-48.020000,21.66
1967243,0.406016,1.439600,0.065880,19.110001,10.430000,-31.080000,21.66
1967253,0.397232,1.499136,0.072712,11.970000,3.640000,-16.660000,21.69
1967264,0.394304,1.615280,0.081008,0.840000,-2.870000,2.240000,21.69
1967275,0.395768,1.613816,0.084912,-18.900000,-7.980000,18.830000,21.67
1967286,0.414312,1.531832,0.098088,-30.379999,-11.760000,28.209999,21.61
1967297,0.427000,1.431792,0.109800,-33.180000,-11.550000,36.049999,21.61
1967308,0.437248,1.421056,0.104920,-39.130001,-12.810000,42.770000,21.64
1967319,0.453840,1.375672,0.077104,-47.180000,-12.320000,46.619999,21.64
1967330,0.451400,1.339560,0.045384,-60.200001,-12.110000,53.619999,21.70
1967341,0.445056,1.320040,0.026840,-76.089996,-17.080000,61.740002,21.70
1967352,0.457256,1.237080,0.037576,-85.750000,-19.950001,67.480003,21.64
1967363,0.446032,1.156560,0.052216,-85.540001,-21.700001,72.379997,21.62
1967374,0.448472,1.190232,0.044896,-87.779999,-25.620001,81.269997,21.62
1967385,0.464088,1.188768,0.045384,-98.279999,-29.190001,89.250000,21.63
1967396,0.470432,1.150216,0.039528,-109.199997,-31.639999,95.410004,21.63
1967407,0.482632,1.088240,0.047336,-118.860001,-34.020000,101.500000,21.69
1967418,0.494832,1.085800,0.057096,-136.779999,-36.330002,106.260002,21.63
1967429,0.512400,1.069696,0.055144,-161.419998,-37.099998,109.480003,21.63
1967440,0.512400,1.032120,0.062952,-189.699997,-37.730000,113.330002,21.67
1967451,0.508008,1.002840,0.114192,-211.119995,-40.040001,116.690002,21.67
1967461,0.516792,0.894504,0.151280,-213.639999,-41.439999,116.059998,21.64
1967472,0.545096,0.744688,0.136640,-203.630005,-40.529999,115.150002,21.64
1967483,0.566568,0.691008,0.121024,-192.919998,-41.020000,114.800003,21.65
1967494,0.575352,0.690520,0.133712,-185.289993,-45.009998,113.889999,21.64
1967505,0.590968,0.701256,0.117608,-183.119995,-45.779999,114.589996,21.64
1967516,0.598776,0.679784,0.112728,-192.779999,-48.369999,115.150002,21.65
1967527,0.599752,0.646112,0.095648,-204.960007,-52.430000,115.500000,21.65
1967538,0.631960,0.599264,0.122976,-220.009995,-55.439999,115.500000,21.62
1967549,0.641232,0.444080,0.133712,-219.940002,-56.840000,112.699997,21.63
1967560,0.668072,0.328912,0.160064,-208.949997,-55.930000,110.809998,21.63
1967571,0.652944,0.307440,0.187880,-189.490005,-54.459999,109.480003,21.65
1967582,0.675392,0.305000,0.183976,-170.240005,-54.250000,106.820000,21.65
1967593,0.705160,0.308904,0.196176,-161.490005,-53.270000,104.019997,21.64
1967604,0.720776,0.295728,0.208864,-157.360001,-52.919998,101.220001,21.63
1967615,0.739808,0.255712,0.192760,-158.970001,-53.830002,96.949997,21.63
1967626,0.756400,0.213744,0.196664,-166.250000,-54.950001,92.120003,21.62
1967636,0.785192,0.086864,0.206912,-164.360001,-53.549999,86.379997,21.62
1967647,0.806176,-0.053680,0.208864,-153.929993,-51.450001,78.190002,21.62
1967658,0.813984,-0.150304,0.210816,-137.690002,-49.980000,69.720001,21.62
1967669,0.816424,-0.225456,0.199104,-107.379997,-48.509998,60.060001,21.61
1967680,0.821304,-0.222528,0.221064,-85.260002,-46.970001,53.619999,21.62
1967691,0.832040,-0.205448,0.233264,-76.720001,-47.180000,44.660000,21.62
1967703,0.855464,-0.232288,0.227408,-74.970001,-45.779999,35.490002,21.66
1967713,0.869128,-0.271816,0.184952,-70.070000,-43.259998,28.070000,21.66
1967724,0.886208,-0.315248,0.143960,-61.599998,-38.290001,16.590000,21.66
1967735,0.895480,-0.418704,0.078568,-42.279999,-30.520000,2.100000,21.63
1967746,0.905728,-0.475800,0.024888,-2.940000,-22.330000,-10.220000,21.63
1967757,0.896456,-0.450424,-0.000488,36.330002,-12.180000,-19.670000,21.64
1967769,0.901336,-0.437736,0.006832,73.430000,-2.730000,-32.689999,21.64
1967780,0.888648,-0.351848,0.024888,95.410004,4.200000,-41.930000,21.60
1967791,0.856928,-0.264496,0.036600,110.809998,6.860000,-48.860001,21.62
1967802,0.855952,-0.170800,0.038552,114.449997,11.340000,-55.580002,21.62
1967813,0.842776,-0.116632,0.033184,114.449997,15.750000,-62.160000,21.63
1967824,0.835456,-0.108824,0.017080,121.870003,20.440001,-70.349998,21.63
1967835,0.813496,-0.059536,-0.026352,137.619995,28.420000,-76.580002,21.66
1967846,0.802760,-0.023912,-0.058560,162.889999,35.980000,-86.379997,21.66
1967857,0.805688,0.035624,-0.081984,183.119995,44.450001,-95.760002,21.63
1967868,0.788608,0.061488,-0.064904,210.210007,49.419998,-104.720001,21.65
1967879,0.780800,0.093208,-0.048312,231.699997,55.580002,-111.370003,21.65
1967889,0.752984,0.116144,-0.024888,251.229996,59.220001,-119.349998,21.62
1967900,0.721264,0.155184,0.000000,273.769989,61.599998,-125.650002,21.62
1967911,0.681736,0.292312,-0.002440,290.570007,63.139999,-130.059998,21.62
1967922,0.663680,0.367952,-0.015616,303.239990,62.509998,-134.960007,21.59
1967933,0.666608,0.416752,-0.050752,305.619995,63.070000,-140.490005,21.59
1967944,0.675880,0.392840,-0.089304,314.510010,65.800003,-144.479996,21.63
1967955,0.645136,0.437248,-0.112728,312.269989,66.779999,-147.139999,21.63
1967966,0.585600,0.590968,-0.114680,301.140015,63.419998,-152.320007,21.60
1967977,0.547536,0.666120,-0.099552,276.149994,57.119999,-151.410004,21.62
1967989,0.525576,0.805688,-0.087840,241.220001,49.770000,-149.800003,21.62
1968000,0.491416,0.860344,-0.046360,213.080002,43.470001,-153.649994,21.63
1968011,0.454816,0.933056,-0.037088,189.910004,36.119999,-154.070007,21.63
1968022,0.448472,0.993080,-0.067344,164.990005,33.250000,-152.600006,21.64
1968033,0.432368,1.030656,-0.090768,141.470001,29.469999,-152.039993,21.65
1968043,0.426024,1.079944,-0.103944,117.459999,27.230000,-149.029999,21.65
1968054,0.399672,1.094096,-0.074176,94.010002,28.420000,-149.240005,21.62
1968065,0.378688,1.204872,-0.043432,67.410004,27.510000,-139.789993,21.62
1968076,0.348432,1.314184,-0.000488,52.709999,24.500000,-132.300003,21.66
1968087,0.325984,1.377624,0.017568,43.820000,24.780001,-120.680000,21.66
1968098,0.314760,1.457656,0.029768,36.470001,19.879999,-109.199997,21.61
1968109,0.332328,1.442528,0.022448,31.639999,17.920000,-94.919998,21.63
1968120,0.359168,1.498648,-0.011712,25.200001,19.600000,-78.959999,21.63
1968131,0.333792,1.559648,-0.016592,15.400000,16.660000,-60.410000,21.64
1968142,0.333304,1.588928,0.017080,4.830000,11.410000,-46.759998,21.64
1968153,0.341600,1.556720,0.087352,2.590000,8.260000,-31.500000,21.62
1968164,0.324520,1.575264,0.129808,0.980000,4.270000,-18.900000,21.62
1968175,0.342576,1.577704,0.129808,-2.170000,-1.610000,-4.830000,21.62
1968186,0.366000,1.586000,0.115656,-7.770000,-5.040000,9.100000,21.63
1968197,0.371368,1.568920,0.078080,-16.379999,-8.190000,20.510000,21.63
1968208,0.382104,1.524024,0.039040,-29.049999,-9.520000,29.260000,21.66
1968219,0.383568,1.503040,0.040504,-42.070000,-12.110000,40.810001,21.66
1968230,0.386008,1.464000,0.057584,-56.630001,-14.280000,52.639999,21.65
1968241,0.384544,1.440088,0.068808,-71.820000,-19.530001,61.810001,21.58
1968251,0.393328,1.386408,0.054656,-85.820000,-25.410000,72.169998,21.58
1968262,0.404064,1.279048,0.033184,-99.889999,-28.910000,79.730003,21.62
1968273,0.416752,1.217560,0.032696,-102.620003,-29.889999,84.629997,21.62
1968284,0.409432,1.270752,0.025376,-107.239998,-30.730000,91.910004,21.62
1968295,0.430904,1.227320,-0.008296,-114.099998,-30.940001,99.050003,21.58
1968306,0.447008,1.191208,0.000488,-129.009995,-31.780001,104.300003,21.58
1968317,0.449448,1.142896,0.030256,-144.550003,-34.509998,112.139999,21.62
1968328,0.466528,1.036024,0.090280,-150.220001,-36.959999,115.430000,21.62
1968339,0.470432,1.008696,0.128832,-154.979996,-36.750000,121.169998,21.62
1968350,0.470432,1.042856,0.118584,-160.369995,-38.430000,124.180000,21.67
1968361,0.491416,1.015528,0.089304,-169.750000,-41.299999,129.009995,21.67
1968372,0.514352,0.928664,0.047336,-182.419998,-41.439999,130.479996,21.59
1968383,0.521184,0.854488,0.058072,-193.970001,-43.330002,131.179993,21.59
1968394,0.544608,0.798368,0.063440,-200.059998,-44.450001,131.250000,21.66
1968405,0.558760,0.748104,0.083448,-207.199997,-45.360001,130.690002,21.66
1968416,0.587552,0.678808,0.120536,-208.179993,-44.380001,128.240005,21.58
1968427,0.594872,0.514840,0.148352,-191.029999,-42.560001,125.370003,21.57
1968437,0.581696,0.441640,0.176656,-174.789993,-43.610001,122.849998,21.57
1968448,0.609024,0.424072,0.184464,-157.500000,-45.150002,122.639999,21.62
1968459,0.642696,0.398696,0.178608,-149.029999,-47.180000,120.260002,21.62
1968470,0.671976,0.386984,0.184952,-150.990005,-48.790001,119.349998,21.63
1968481,0.676856,0.398696,0.162992,-163.100006,-49.910000,118.230003,21.60
1968492,0.679296,0.381128,0.179584,-180.880005,-52.709999,116.410004,21.60
1968503,0.709064,0.310856,0.188368,-193.479996,-52.430000,111.650002,21.59
1968514,0.731512,0.145912,0.204472,-185.080002,-50.400002,105.349998,21.59
1968525,0.747128,0.004880,0.228872,-160.509995,-47.950001,99.190002,21.59
1968536,0.753960,-0.056608,0.216672,-130.830002,-45.779999,90.230003,21.59
1968548,0.774944,-0.076128,0.200568,-93.169998,-44.099998,81.690002,21.61
1968559,0.802272,-0.110776,0.191296,-71.680000,-42.209999,72.309998,21.64
1968571,0.830088,-0.114680,0.174216,-64.540001,-39.619999,64.889999,21.64
1968582,0.833992,-0.076616,0.179096,-71.610001,-37.799999,57.820000,21.65
1968593,0.842288,-0.072224,0.199104,-88.900002,-36.470001,51.240002,21.62
1968604,0.841800,-0.165920,0.209352,-98.349998,-35.840000,42.419998,21.62
1968615,0.837408,-0.354776,0.205936,-82.459999,-34.790001,29.610001,21.59
1968626,0.868152,-0.405040,0.154696,-56.209999,-31.080000,19.530001,21.59
1968637,0.877912,-0.396744,0.109312,-25.480000,-24.639999,9.730000,21.63
1968648,0.876936,-0.378200,0.078080,1.960000,-17.360001,-4.200000,21.63
1968659,0.880840,-0.365024,0.075640,18.830000,-9.380000,-16.940001,21.59
1968670,0.872056,-0.370880,0.074176,36.400002,-3.850000,-30.730000,21.62
1968681,0.878400,-0.374784,0.053192,53.410000,3.710000,-40.180000,21.62
1968692,0.874008,-0.327936,0.044896,67.199997,9.660000,-50.400002,21.64
1968703,0.855952,-0.291336,0.039040,80.220001,16.379999,-61.110001,21.64
1968715,0.815936,-0.223016,0.030744,94.570000,20.650000,-71.260002,21.63
1968725,0.804712,-0.229848,0.032696,113.959999,24.709999,-80.639999,21.66
1968736,0.819840,-0.254248,0.058560,137.130005,30.590000,-91.489998,21.66
1968747,0.794464,-0.120048,0.059048,159.250000,34.790001,-100.589996,21.61
1968758,0.772016,-0.074664,0.056608,182.770004,37.450001,-107.309998,21.61
1968771,0.766648,0.032208,0.015128,204.050003,42.770000,-114.870003,21.61
1968782,0.698328,0.130784,-0.019520,219.869995,45.500000,-119.980003,21.56
1968793,0.695400,0.222528,-0.038064,227.149994,47.459999,-126.629997,21.56
1968804,0.694912,0.302560,-0.030256,230.929993,51.029999,-133.490005,21.64
1968815,0.668560,0.314272,0.023424,243.250000,52.009998,-143.080002,21.64
1968826,0.636352,0.338184,0.058560,257.390015,52.430000,-148.050003,21.61
1968837,0.588528,0.388448,0.042456,278.179993,51.240002,-154.419998,21.59
1968848,0.568032,0.481656,0.000488,292.809998,51.590000,-158.059998,21.59
1968858,0.545096,0.537288,-0.018544,291.970001,46.900002,-160.720001,21.61
1968869,0.510448,0.640256,-0.060024,283.290009,43.330002,-161.559998,21.61
1968880,0.477264,0.737856,-0.039528,269.709991,37.310001,-162.539993,21.61
1968891,0.467016,0.804712,-0.077592,248.850006,37.869999,-164.220001,21.62
1968902,0.442616,0.982344,-0.130784,211.960007,30.940001,-157.080002,21.62
1968913,0.419680,1.137528,-0.150792,178.500000,25.969999,-152.179993,21.59
1968924,0.408456,1.226832,-0.134200,139.440002,22.610001,-145.880005,21.59
1968935,0.371856,1.281488,-0.106384,103.250000,19.670000,-141.610001,21.60
1968946,0.374296,1.264896,-0.047336,85.050003,16.940001,-135.800003,21.60
1968957,0.363072,1.261968,-0.018544,67.690002,16.590000,-126.489998,21.60
1968968,0.344528,1.302472,0.000488,59.990002,16.240000,-121.519997,21.62
1968979,0.351360,1.412760,-0.004880,53.830002,17.709999,-111.019997,21.62
1968990,0.354776,1.517680,-0.022936,41.720001,15.820000,-93.870003,21.60
1969001,0.359168,1.637240,-0.036600,26.250000,13.510000,-78.680000,21.60
1969012,0.368440,1.750456,-0.025376,12.670000,10.850000,-56.560001,21.61
1969023,0.363072,1.757776,0.020008,-2.730000,5.740000,-35.770000,21.64
1969034,0.375272,1.751432,0.078080,-15.050000,2.520000,-19.110001,21.64
1969045,0.392840,1.731912,0.102968,-26.670000,0.910000,-0.210000,21.65
1969056,0.398696,1.614792,0.126880,-32.900002,-4.200000,14.350000,21.65
1969067,0.417728,1.584048,0.132736,-39.759998,-5.320000,27.299999,21.61
1969077,0.411384,1.568432,0.131272,-47.880001,-7.910000,36.889999,21.61
1969088,0.411872,1.529392,0.115656,-56.070000,-13.930000,47.040001,21.62
1969099,0.421632,1.504504,0.104920,-67.480003,-15.820000,55.720001,21.58
1969110,0.425536,1.444480,0.118584,-78.190002,-21.770000,66.150002,21.58
1969121,0.447984,1.322480,0.128832,-77.910004,-24.850000,74.059998,21.65
1969132,0.437248,1.249768,0.114680,-73.919998,-24.500000,81.480003,21.65
1969143,0.432368,1.260504,0.100040,-73.989998,-28.559999,88.199997,21.61
1969154,0.453840,1.244400,0.081496,-78.050003,-30.170000,96.250000,21.59
1969165,0.455304,1.207800,0.063928,-89.599998,-30.940001,104.089996,21.59
1969176,0.460672,1.177056,0.055632,-109.339996,-34.650002,108.989998,21.59
1969187,0.470920,1.115568,0.061488,-130.899994,-36.540001,112.419998,21.59
1969198,0.470432,1.084336,0.077592,-144.619995,-36.540001,116.480003,21.63
1969209,0.463600,1.042856,0.104432,-157.570007,-39.200001,118.790001,21.62
1969220,0.485560,0.975512,0.130784,-164.710007,-38.990002,118.300003,21.62
1969231,0.489952,0.862296,0.138592,-161.630005,-41.020000,120.400002,21.62
1969242,0.515328,0.634400,0.133224,-142.729996,-39.830002,120.959999,21.62
1969253,0.533872,0.724192,0.111264,-126.980003,-38.849998,121.519997,21.61
1969264,0.566568,0.710040,0.107360,-123.129997,-40.740002,121.800003,21.61
1969275,0.582672,0.688568,0.083936,-122.989998,-40.040001,122.290001,21.61
1969285,0.583160,0.691008,0.093696,-132.160004,-41.930000,124.320000,21.56
1969296,0.576328,0.690032,0.096136,-145.669998,-46.270000,124.879997,21.56
1969307,0.606096,0.653920,0.111264,-172.479996,-47.950001,125.930000,21.61
1969318,0.599752,0.579744,0.101992,-194.880005,-50.259998,123.480003,21.61
1969329,0.616832,0.434320,0.115656,-204.610001,-52.990002,119.070000,21.60
1969340,0.629520,0.348920,0.130296,-202.929993,-51.730000,113.820000,21.59
1969351,0.638304,0.245464,0.140056,-187.389999,-51.660000,106.820000,21.59
1969362,0.671976,0.205936,0.147376,-169.399994,-49.980000,101.430000,21.58
1969373,0.710040,0.188368,0.128344,-159.460007,-48.020000,96.320000,21.58
1969384,0.732488,0.166896,0.107848,-151.970001,-47.389999,90.580002,21.60
1969395,0.767624,0.156160,0.088816,-153.300003,-45.430000,86.589996,21.63
1969406,0.782752,0.147864,0.095160,-163.800003,-45.639999,82.389999,21.63
1969417,0.786656,0.009272,0.128832,-158.199997,-45.220001,75.110001,21.61
1969428,0.814472,-0.147376,0.123952,-130.479996,-42.910000,67.900002,21.61
1969440,0.835456,-0.168360,0.145424,-103.320000,-40.180000,62.720001,21.62
1969451,0.833504,-0.148352,0.164944,-76.019997,-37.590000,56.070000,21.60
1969462,0.840336,-0.168848,0.171288,-37.869999,-35.910000,47.810001,21.60
1969473,0.868640,-0.172752,0.164944,-39.970001,-35.349998,40.320000,21.61
1969484,0.888648,-0.154696,0.161528,-37.869999,-34.509998,31.709999,21.61
1969495,0.910608,-0.147376,0.146888,-46.410000,-32.410000,24.920000,21.58
1969507,0.922808,-0.222528,0.134200,-46.549999,-28.840000,14.840000,21.59
1969518,0.932080,-0.335744,0.125416,-31.290001,-21.350000,3.920000,21.59
1969530,0.930128,-0.322080,0.092720,-14.560000,-13.230000,-5.600000,21.61
1969541,0.926712,-0.314760,0.079544,9.800000,-5.950000,-17.219999,21.61
1969552,0.920368,-0.293288,0.059048,35.770000,3.150000,-26.110001,21.61
1969563,0.910120,-0.241072,0.055632,54.880001,9.870000,-35.980000,21.61
1969574,0.915000,-0.215208,0.057096,65.870003,16.870001,-46.270000,21.62
1969585,0.908168,-0.224480,0.067344,79.169998,21.770000,-56.279999,21.52
1969596,0.890600,-0.228872,0.058560,96.949997,27.090000,-63.910000,21.52
1969607,0.866200,-0.219112,0.039040,115.989998,31.780001,-73.639999,21.62
1969617,0.848144,-0.221064,0.025376,156.729996,35.840000,-83.089996,21.62
1969629,0.824232,-0.139080,-0.001464,189.559998,39.480000,-106.889999,21.59
1969640,0.800320,-0.000488,-0.014640,205.169998,40.389999,-96.250000,21.58
1969651,0.792024,0.048312,-0.000488,217.910004,42.700001,-104.510002,21.58
1969662,0.768600,0.136152,0.030744,224.419998,43.540001,-110.110001,21.61
1969673,0.736880,0.196176,0.043920,229.110001,44.029999,-116.830002,21.61
1969684,0.702720,0.283528,0.036600,230.720001,43.889999,-120.750000,21.59
1969695,0.671488,0.342576,0.001952,234.149994,42.980000,-126.489998,21.57
1969710,0.671976,0.372344,-0.018544,254.309998,47.880001,-133.770004,21.57
1969721,0.641720,0.410408,-0.052704,265.649994,50.889999,-139.789993,21.64
1969732,0.625128,0.466040,-0.106872,273.910004,52.220001,-144.690002,21.61
1969743,0.595848,0.517280,-0.143472,273.070007,51.869999,-149.100006,21.61
1969754,0.548024,0.675392,-0.141520,254.729996,46.200001,-147.279999,21.61
1969765,0.531920,0.803736,-0.096136,236.110001,39.689999,-147.490005,21.61
1969776,0.502640,0.949160,-0.057584,199.570007,37.799999,-147.559998,21.63
1969787,0.473848,0.987712,-0.019520,166.529999,28.980000,-144.970001,21.56
1969798,0.454328,0.950136,-0.022448,147.490005,25.480000,-145.110001,21.56
1969809,0.448960,0.997960,-0.051728,128.729996,26.600000,-142.520004,21.57
1969820,0.443592,0.972584,-0.081008,115.150002,27.090000,-144.059998,21.57
1969831,0.418216,1.055056,-0.118584,102.760002,28.629999,-142.800003,21.62
1969842,0.421632,1.135088,-0.130296,88.410004,31.150000,-137.759995,21.62
1969853,0.400160,1.199016,-0.118584,74.059998,30.520000,-128.240005,21.55
1969864,0.370880,1.276608,-0.067344,61.250000,25.129999,-120.540001,21.55
1969875,0.362096,1.345416,-0.033672,50.259998,22.120001,-109.480003,21.55
1969886,0.346480,1.480592,-0.001952,41.580002,18.129999,-94.430000,21.59
1969898,0.335744,1.533784,0.027816,29.049999,13.720000,-79.449997,21.59
1969908,0.341112,1.523536,0.042456,23.940001,12.880000,-66.779999,21.59
1969919,0.358192,1.490840,0.054656,17.500000,12.390000,-50.959999,21.54
1969930,0.367464,1.462048,0.067344,12.950000,11.270000,-37.590000,21.54
1969941,0.379664,1.526464,0.068320,5.250000,10.010000,-25.340000,21.58
1969952,0.387960,1.588440,0.079544,-5.530000,5.530000,-10.990000,21.58
1969963,0.398696,1.581120,0.078080,-8.890000,3.220000,1.890000,21.63
1969974,0.398208,1.582584,0.064904,-14.700000,1.190000,12.180000,21.55
1969985,0.399672,1.506944,0.072224,-19.110001,-2.940000,21.840000,21.55
1969996,0.407480,1.443992,0.078568,-21.420000,-5.670000,31.990000,21.59
1970007,0.415288,1.425448,0.065392,-27.650000,-9.170000,42.419998,21.59
1970018,0.428952,1.386408,0.039040,-34.160000,-12.530000,50.610001,21.57
1970029,0.424072,1.381040,-0.003416,-42.349998,-14.630000,62.369999,21.57
1970040,0.426024,1.362496,-0.028304,-61.110001,-17.010000,73.080002,21.58
1970051,0.425048,1.368840,-0.041968,-89.879997,-19.250000,81.970001,21.59
1970062,0.419680,1.392264,-0.033184,-126.139999,-24.010000,93.589996,21.59
1970072,0.426512,1.383968,0.010736,-153.720001,-28.910000,103.040001,21.57
1970083,0.429928,1.261968,0.062952,-167.580002,-31.219999,105.699997,21.57
1970094,0.439200,1.082872,0.076616,-166.320007,-28.980000,110.599998,21.59
1970105,0.444568,1.015040,0.063928,-161.770004,-28.700001,112.980003,21.54
1970116,0.486048,1.003816,0.034160,-155.889999,-28.139999,118.720001,21.54
1970127,0.509960,0.995520,0.011224,-157.009995,-28.350000,123.269997,21.59
1970138,0.517768,0.991128,-0.009760,-163.309998,-31.990000,132.509995,21.59
1970149,0.522648,0.982344,0.045872,-175.490005,-35.000000,136.429993,21.57
1970160,0.524600,0.943304,0.064904,-191.869995,-38.990002,140.910004,21.56
1970171,0.520696,0.909144,0.086864,-215.110001,-43.820000,144.690002,21.56
1970182,0.527040,0.812032,0.102968,-234.639999,-49.070000,144.199997,21.58
1970193,0.554368,0.705648,0.093696,-255.149994,-49.490002,144.130005,21.58
1970204,0.555344,0.601216,0.113216,-266.910004,-51.799999,142.869995,21.60
1970215,0.579744,0.498736,0.146888,-260.679993,-51.660000,139.160004,21.60
1970226,0.579744,0.417240,0.160552,-242.970001,-50.959999,136.570007,21.61
1970237,0.602192,0.388448,0.126392,-222.880005,-52.290001,133.350006,21.54
1970248,0.650016,0.337696,0.110776,-210.139999,-52.500000,130.130005,21.54
1970259,0.665632,0.325984,0.132736,-209.020004,-52.990002,125.930000,21.59
1970271,0.677832,0.264496,0.108336,-210.910004,-53.410000,121.870003,21.59
1970281,0.710528,0.095160,0.172264,-198.520004,-53.060001,117.459999,21.54
1970292,0.729560,-0.017080,0.213256,-190.750000,-53.689999,112.070000,21.56
1970303,0.722728,-0.102480,0.241072,-171.570007,-55.439999,105.000000,21.56
1970314,0.745176,-0.187392,0.239120,-150.360001,-56.980000,96.669998,21.62
1970325,0.773480,-0.218624,0.211792,-133.350006,-56.070000,87.849998,21.62
1970336,0.787144,-0.196664,0.175192,-128.449997,-54.110001,76.230003,21.56
1970347,0.807640,-0.265960,0.136152,-127.120003,-51.450001,60.549999,21.57
1970358,0.859856,-0.385032,0.118096,-122.080002,-46.619999,47.529999,21.57
1970369,0.880840,-0.578280,0.103944,-93.519997,-38.990002,29.750000,21.59
1970380,0.880840,-0.575840,0.060024,-52.919998,-30.660000,14.980000,21.59
1970391,0.871568,-0.567544,0.050264,-15.890000,-22.469999,1.890000,21.62
1970402,0.907192,-0.607072,0.054168,21.280001,-14.070000,-12.250000,21.62
1970413,0.902312,-0.551440,0.081496,46.060001,-8.400000,-23.030001,21.54
1970424,0.882304,-0.456768,0.119072,60.619999,-5.810000,-33.250000,21.58
1970436,0.871568,-0.345016,0.141520,61.389999,-1.680000,-40.529999,21.58
1970447,0.843264,-0.304512,0.144936,62.020000,1.540000,-49.630001,21.59
1970458,0.833504,-0.261568,0.133712,71.889999,7.700000,-58.590000,21.59
1970469,0.811056,-0.174216,0.102968,81.620003,11.900000,-67.199997,21.63
1970480,0.814960,-0.145912,0.081984,99.680000,16.870001,-75.180000,21.59
1970491,0.821304,-0.086864,0.055632,113.889999,23.590000,-84.209999,21.59
1970502,0.827648,-0.048800,0.041480,134.190002,29.190001,-93.099998,21.58
1970512,0.829112,-0.007320,0.039528,154.630005,36.959999,-98.980003,21.58
1970523,0.819840,0.046848,0.059048,168.070007,42.070000,-104.720001,21.57
1970534,0.808128,0.066368,0.084424,185.639999,46.689999,-111.860001,21.59
1970545,0.766648,0.072224,0.117608,210.070007,50.049999,-117.669998,21.59
1970556,0.721752,0.180560,0.109800,224.000000,52.849998,-121.660004,21.56
1970567,0.675392,0.307440,0.086376,241.779999,53.830002,-126.139999,21.56
1970578,0.689544,0.308416,0.052704,259.279999,54.250000,-129.570007,21.62
1970589,0.715896,0.327936,0.007320,270.549988,57.119999,-133.979996,21.62
1970600,0.705648,0.316224,-0.036112,289.450012,58.939999,-139.860001,21.57
1970611,0.665144,0.425536,-0.022448,290.149994,56.770000,-141.119995,21.57
1970622,0.617320,0.594384,0.033184,286.019989,51.590000,-140.490005,21.57
1970633,0.589016,0.674904,0.075152,276.429993,44.029999,-139.649994,21.57
1970643,0.564128,0.739320,0.065880,259.209991,40.950001,-138.949997,21.57
1970654,0.509960,0.750544,0.030744,250.669998,32.200001,-142.100006,21.57
1970665,0.518256,0.768600,-0.035136,243.320007,31.990000,-143.779999,21.58
1970676,0.494344,0.903288,-0.095648,224.490005,30.730000,-144.270004,21.58
1970687,0.482144,1.029680,-0.121024,199.779999,27.020000,-141.470001,21.55
1970698,0.483120,1.047736,-0.132248,179.339996,22.750000,-138.669998,21.55
1970709,0.458720,1.136064,-0.098576,153.160004,22.190001,-133.839996,21.58
1970720,0.422608,1.245376,-0.078568,120.540001,17.990000,-126.699997,21.55
1970731,0.393328,1.242448,-0.060024,94.779999,13.580000,-119.910004,21.55
1970742,0.408456,1.324920,-0.028304,65.379997,10.080000,-105.629997,21.55
1970753,0.375272,1.453264,0.119072,45.849998,7.630000,-97.160004,21.55
1970764,0.362096,1.524024,0.031720,35.000000,5.320000,-85.190002,21.59
1970775,0.374296,1.502064,0.031232,27.719999,3.500000,-71.540001,21.59
1970786,0.415288,1.424472,-0.041480,27.299999,8.050000,-60.480000,21.57
1970797,0.428464,1.456192,-0.076616,19.879999,11.550000,-44.799999,21.55
1970808,0.419192,1.559160,-0.049776,8.400000,8.680000,-26.180000,21.55
1970819,0.420168,1.603080,0.001952,-3.010000,5.950000,-8.470000,21.56
1970830,0.414312,1.599664,0.042944,-10.990000,0.630000,5.110000,21.56
1970841,0.420168,1.556232,0.058560,-16.940001,-4.760000,19.670000,21.58
1970851,0.434808,1.488400,0.066856,-23.520000,-7.350000,31.500000,21.55
1970862,0.441152,1.443016,0.055144,-30.520000,-9.240000,39.410000,21.55
1970875,0.459208,1.354200,0.025864,-36.330002,-9.380000,49.139999,21.54
1970888,0.465552,1.299056,0.009760,-45.639999,-8.820000,56.560001,21.55
1970899,0.461648,1.304424,-0.013664,-57.680000,-11.130000,65.940002,21.55
1970910,0.466528,1.285392,-0.020008,-68.320000,-14.700000,74.620003,21.56
1970921,0.467992,1.272216,-0.011224,-85.750000,-16.590000,84.980003,21.56
1970933,0.474824,1.226832,-0.001464,-104.089996,-20.230000,91.070000,21.56
1970944,0.478240,1.164368,-0.010736,-121.660004,-21.840000,97.790001,21.56
1970955,0.477264,1.099464,0.023912,-138.669998,-25.830000,103.180000,21.56
1970966,0.478728,1.094584,0.039040,-154.839996,-27.020000,108.010002,21.55
1970977,0.491416,1.053104,0.061000,-172.830002,-30.940001,112.769997,21.55
1970988,0.504592,0.949648,0.110288,-183.960007,-33.529999,113.190002,21.58
1970999,0.516792,0.901824,0.104920,-191.169998,-34.790001,115.709999,21.58
1971010,0.529480,0.885720,0.088816,-202.229996,-37.029999,118.510002,21.55
1971021,0.544120,0.847168,0.098576,-215.460007,-40.740002,118.580002,21.57
1971032,0.577792,0.745664,0.112728,-211.679993,-40.320000,119.699997,21.57
1971043,0.563152,0.688568,0.137616,-210.490005,-41.650002,122.220001,21.60
1971054,0.569496,0.675880,0.164456,-207.550003,-44.380001,121.940002,21.60
1971065,0.598288,0.590480,0.152744,-197.539993,-46.410000,120.120003,21.58
1971076,0.622200,0.528016,0.106872,-193.270004,-46.900002,119.839996,21.57
1971087,0.625128,0.509960,0.114680,-195.160004,-49.560001,116.970001,21.57
1971098,0.651968,0.456768,0.124928,-200.550003,-52.150002,112.980003,21.56
1971109,0.685640,0.359656,0.174216,-205.940002,-52.150002,108.709999,21.56
1971120,0.702232,0.201056,0.187392,-192.779999,-49.980000,101.779999,21.57
1971131,0.712968,0.144936,0.192272,-169.050003,-46.830002,98.070000,21.54
1971142,0.732976,0.122976,0.177144,-140.490005,-44.029999,93.099998,21.54
1971153,0.755424,0.124440,0.156160,-123.129997,-40.599998,87.360001,21.55
1971164,0.777384,0.101016,0.177632,-109.480003,-38.290001,80.150002,21.55
1971175,0.800808,0.037088,0.167872,-101.080002,-35.279999,74.970001,21.56
1971186,0.812520,0.038064,0.156160,-103.180000,-34.720001,68.250000,21.56
1971197,0.818376,0.043920,0.166408,-114.730003,-34.650002,61.320000,21.57
1971208,0.835944,-0.039040,0.169336,-118.580002,-32.549999,53.410000,21.53
1971219,0.863760,-0.241560,0.175192,-96.879997,-27.510000,41.790001,21.53
1971230,0.872544,-0.340624,0.151768,-65.309998,-19.879999,30.520000,21.59
1971241,0.878400,-0.334280,0.116144,-22.190001,-13.440000,18.830000,21.59
1971252,0.885232,-0.293776,0.102480,12.250000,-6.580000,8.470000,21.57
1971263,0.897432,-0.268888,0.110288,29.610001,-0.490000,-2.380000,21.56
1971274,0.891088,-0.235216,0.154208,38.430000,2.940000,-12.040000,21.56
1971285,0.882304,-0.222040,0.171776,43.820000,6.160000,-21.840000,21.60
1971296,0.876448,-0.197640,0.161528,45.919998,10.710000,-28.840000,21.60
1971307,0.868152,-0.188856,0.143472,53.270000,15.260000,-38.849998,21.57
1971318,0.862296,-0.179584,0.133224,70.000000,20.440001,-49.910000,21.54
1971329,0.841800,-0.190320,0.139568,99.050003,25.969999,-59.639999,21.54
1971340,0.826672,-0.140544,0.135664,124.529999,31.290001,-70.000000,21.57
1971350,0.810568,-0.099552,0.133224,156.380005,36.049999,-80.570000,21.57
1971362,0.803248,0.007808,0.132248,176.050003,39.480000,-87.220001,21.55
1971373,0.783728,0.110776,0.143960,189.910004,42.000000,-92.470001,21.55
1971384,0.774456,0.157624,0.170312,196.839996,44.799999,-98.839996,21.54
1971394,0.763232,0.174704,0.132248,219.240005,46.130001,-103.110001,21.53
1971405,0.742248,0.203496,0.111264,242.899994,49.700001,-110.040001,21.53
1971416,0.720776,0.301584,0.081984,266.910004,52.430000,-116.900002,21.52
1971427,0.690520,0.402112,0.074664,285.809998,54.040001,-121.029999,21.52
1971438,0.671976,0.447008,0.058072,298.690002,53.970001,-127.190002,21.57
1971449,0.659776,0.485560,0.028792,310.170013,53.619999,-131.600006,21.50
1971459,0.637328,0.517768,0.004392,312.970001,52.779999,-135.240005,21.50
1971470,0.616344,0.606096,-0.033184,303.450012,49.419998,-139.020004,21.55
1971481,0.558272,0.731024,-0.039528,278.459991,42.490002,-139.580002,21.55
1971492,0.557296,0.767624,-0.026352,251.929993,35.840000,-137.199997,21.52
1971503,0.521672,0.834480,-0.026840,226.240005,31.360001,-136.779999,21.52
1971514,0.456768,0.994544,-0.004880,202.509995,23.660000,-131.740005,21.56
1971525,0.458232,1.051640,0.001464,165.619995,17.080000,-129.080002,21.49
1971536,0.458232,1.075552,-0.007320,131.949997,14.630000,-126.279999,21.49
1971547,0.427976,1.129232,-0.023424,108.430000,13.510000,-124.250000,21.58
1971558,0.440176,1.112640,-0.091744,82.529999,12.810000,-118.860001,21.58
1971570,0.431880,1.220000,-0.138592,59.639999,15.050000,-109.690002,21.61
1971580,0.418216,1.334192,-0.113704,39.619999,12.670000,-95.830002,21.55
1971592,0.406016,1.369816,-0.066856,32.340000,10.080000,-86.309998,21.55
1971603,0.399184,1.374208,-0.038552,29.049999,9.940000,-72.099998,21.57
1971614,0.390400,1.435208,-0.009272,26.040001,6.860000,-58.520000,21.57
1971625,0.391864,1.524024,0.007320,20.580000,1.680000,-40.110001,21.58
1971635,0.403576,1.527928,0.028792,13.790000,-0.910000,-22.190001,21.58
1971646,0.412848,1.521584,0.035624,5.390000,-3.360000,-7.770000,21.58
1971657,0.421144,1.515728,0.036112,-1.190000,-6.090000,8.680000,21.58
1971668,0.443592,1.500112,0.026840,-9.590000,-6.300000,21.139999,21.58
1971679,0.458720,1.470344,-0.120048,-14.700000,-5.600000,29.469999,21.55
1971690,0.466040,1.434232,-0.002928,-19.530001,-5.320000,37.730000,21.55
1971701,0.470920,1.408856,-0.004880,-28.559999,-4.550000,45.570000,21.54
1971712,0.469456,1.398608,-0.001464,-43.750000,-6.160000,53.270000,21.52
1971723,0.475312,1.374696,0.007808,-64.610001,-11.760000,63.700001,21.52
1971734,0.498248,1.228784,0.017080,-89.320000,-13.370000,70.139999,21.57
1971745,0.484096,1.170712,0.023912,-71.120003,-15.120000,75.669998,21.57
1971756,0.501176,1.155584,-0.002440,-73.010002,-16.590000,79.730003,21.57
1971767,0.514840,1.109224,0.001464,-79.309998,-17.920000,83.790001,21.59
1971778,0.517280,1.086776,0.018056,-87.360001,-18.969999,89.669998,21.59
1971789,0.523136,1.083848,0.014640,-103.669998,-19.670000,93.800003,21.55
1971800,0.545584,1.041880,-0.014640,-130.550003,-21.350000,98.699997,21.55
1971811,0.549000,0.976976,-0.000976,-161.979996,-22.889999,100.449997,21.53
1971822,0.540216,0.943792,0.043432,-180.179993,-23.870001,103.669998,21.50
1971833,0.538264,0.918904,0.100040,-201.320007,-27.020000,105.910004,21.50
1971844,0.551440,0.784704,0.154208,-200.550003,-28.910000,103.599998,21.55
1971855,0.563152,0.701256,0.158600,-189.839996,-28.840000,102.900002,21.55
1971866,0.565104,0.706624,0.165920,-179.550003,-30.520000,101.849998,21.57
1971877,0.587064,0.747616,0.158112,-178.009995,-31.430000,102.059998,21.55
1971888,0.605120,0.719800,0.115656,-185.009995,-33.740002,105.629997,21.55
1971899,0.607560,0.722728,0.130784,-200.899994,-39.130001,107.239998,21.56
1971910,0.633424,0.714920,0.160552,-231.910004,-45.220001,109.900002,21.56
1971921,0.637328,0.610000,0.195688,-255.220001,-49.279999,107.519997,21.55
1971932,0.621224,0.514840,0.210816,-264.179993,-53.270000,105.910004,21.55
1971943,0.640256,0.262544,0.270352,-245.279999,-53.549999,100.870003,21.56
1971954,0.669048,0.258152,0.281088,-210.699997,-52.709999,97.650002,21.52
1971965,0.679296,0.257176,0.261568,-183.539993,-53.689999,94.010002,21.52
1971975,0.707600,0.299144,0.231312,-159.250000,-53.970001,91.489998,21.52
1971986,0.738832,0.294264,0.208376,-145.320007,-55.090000,89.669998,21.52
1971997,0.771040,0.291336,0.183488,-144.970001,-54.250000,88.550003,21.57
1972008,0.776896,0.285968,0.191784,-156.660004,-53.900002,84.769997,21.55
1972019,0.787632,0.253272,0.196176,-173.949997,-54.180000,81.550003,21.55
1972030,0.796416,0.122976,0.233264,-178.360001,-54.599998,76.230003,21.54
1972041,0.809104,-0.006344,0.253272,-167.369995,-52.709999,71.610001,21.54
1972052,0.814472,-0.140056,0.255712,-136.639999,-51.520000,63.770000,21.52
1972063,0.830576,-0.189344,0.234728,-105.769997,-49.139999,55.860001,21.52
1972074,0.851560,-0.175192,0.166408,-67.059998,-45.430000,48.509998,21.55
1972085,0.877912,-0.159576,0.118584,-40.810001,-40.250000,41.790001,21.52
1972095,0.910120,-0.144448,0.087840,-30.450001,-32.619999,33.599998,21.52
1972110,0.923784,-0.208864,0.081496,-18.270000,-24.080000,22.889999,21.51
1972124,0.933056,-0.302072,0.075640,-5.040000,-16.379999,11.270000,21.56
1972136,0.924760,-0.307440,0.069296,6.090000,-10.150000,1.050000,21.56
1972150,0.915488,-0.329888,0.075152,24.570000,-1.540000,-13.370000,21.52
1972162,0.893528,-0.314760,0.082960,40.320000,5.040000,-25.690001,21.55
1972173,0.881816,-0.311344,0.084424,58.939999,11.410000,-39.130001,21.55
1972184,0.880352,-0.256688,0.079544,67.269997,18.410000,-49.560001,21.59
1972196,0.874008,-0.248392,0.070272,78.889999,26.250000,-60.619999,21.54
1972207,0.858392,-0.234728,0.064904,98.000000,33.669998,-69.860001,21.54
1972218,0.836920,-0.195688,0.044896,116.900002,39.900002,-77.279999,21.56
1972230,0.838384,-0.207400,0.032208,147.279999,47.880001,-91.279999,21.56
1972241,0.812032,-0.187392,0.029280,189.630005,55.020000,-99.400002,21.54
1972252,0.766160,-0.012688,0.045384,221.270004,58.590000,-107.730003,21.51
1972264,0.727120,0.140544,0.079544,241.360001,59.919998,-115.919998,21.51
1972275,0.698816,0.195688,0.133712,259.489990,58.450001,-123.410004,21.53
1972287,0.671976,0.256688,0.151768,282.100006,57.610001,-130.759995,21.53
1972299,0.675392,0.293776,0.143472,298.059998,55.020000,-137.830002,21.51
1972310,0.671976,0.362584,0.069296,309.820007,53.970001,-143.710007,21.56
1972321,0.658800,0.405528,0.019032,316.540009,54.040001,-147.910004,21.56
1972331,0.652944,0.494344,-0.025864,313.459991,53.830002,-151.199997,21.51
1972342,0.632936,0.533872,-0.081496,301.630005,54.110001,-153.089996,21.51
1972353,0.578280,0.619272,-0.112240,284.760010,54.459999,-153.440002,21.55
1972364,0.490440,0.819352,-0.105408,269.920013,46.759998,-148.960007,21.53
1972375,0.473360,0.976000,-0.079056,239.330002,41.020000,-142.380005,21.53
1972385,0.454328,1.111176,-0.046848,200.059998,32.270000,-137.199997,21.54
1972396,0.440176,1.107272,-0.000976,175.699997,23.309999,-132.020004,21.54
1972407,0.430416,1.109712,0.004392,150.289993,20.860001,-131.039993,21.57
1972418,0.434808,1.113616,-0.035624,129.779999,20.510000,-130.199997,21.57
1972428,0.449936,1.103856,-0.116144,115.639999,22.120001,-124.879997,21.53
1972439,0.457744,1.207800,-0.163968,91.209999,24.639999,-118.089996,21.55
1972450,0.430904,1.360544,-0.147376,70.209999,25.760000,-109.339996,21.55
1972461,0.416752,1.453752,-0.076616,44.169998,22.540001,-93.660004,21.52
1972471,0.394304,1.513776,-0.011224,28.490000,18.549999,-82.809998,21.52
1972483,0.390400,1.495232,0.049288,21.350000,15.680000,-68.739998,21.54
1972494,0.395280,1.516704,0.079544,17.010000,12.600000,-53.619999,21.51
1972505,0.401136,1.530368,0.077104,10.010000,10.990000,-37.730000,21.51
1972516,0.418216,1.539152,0.041968,2.380000,11.340000,-24.290001,21.54
1972527,0.416752,1.572824,0.039040,-11.060000,7.630000,-6.160000,21.54
1972538,0.423096,1.561112,0.074664,-21.629999,3.710000,9.170000,21.55
1972549,0.434808,1.482544,0.121024,-23.660000,0.700000,19.459999,21.52
1972560,0.434808,1.441064,0.126392,-21.770000,-2.590000,29.959999,21.52
1972571,0.444568,1.427888,0.119072,-24.150000,-4.200000,39.549999,21.48
1972582,0.448472,1.398120,0.115656,-30.170000,-6.790000,48.160000,21.48
1972592,0.449936,1.382992,0.098576,-38.570000,-9.730000,60.130001,21.57
1972603,0.453352,1.377624,0.049776,-58.029999,-12.880000,71.470001,21.57
1972614,0.455304,1.380064,0.007320,-90.370003,-19.389999,79.940002,21.53
1972625,0.460184,1.360056,-0.008784,-138.529999,-24.850000,89.110001,21.53
1972636,0.460184,1.260504,0.017080,-152.809998,-28.280001,94.500000,21.53
1972647,0.465064,1.149240,0.086864,-167.020004,-30.590000,98.070000,21.55
1972658,0.464088,0.979416,0.129320,-158.970001,-28.980000,95.760002,21.55
1972669,0.481656,0.888648,0.136640,-145.880005,-28.980000,99.260002,21.51
1972680,0.510448,0.879864,0.138592,-128.240005,-31.290001,104.440002,21.48
1972691,0.505568,0.925736,0.147864,-115.989998,-31.850000,109.620003,21.48
1972702,0.510936,0.950624,0.128832,-117.389999,-34.860001,117.459999,21.53
1972713,0.544120,0.939400,0.071736,-127.050003,-35.209999,122.989998,21.53
1972723,0.563640,0.927688,0.046360,-153.649994,-34.860001,127.330002,21.52
1972734,0.567544,0.906216,0.064416,-181.160004,-37.869999,129.990005,21.52
1972745,0.559736,0.875960,0.143960,-221.270004,-41.930000,130.830002,21.50
1972756,0.569008,0.697352,0.198128,-234.919998,-46.060001,128.169998,21.52
1972767,0.569496,0.522160,0.231800,-232.679993,-46.340000,124.320000,21.52
1972777,0.566080,0.517280,0.229848,-224.210007,-48.650002,120.889999,21.51
1972788,0.596824,0.525088,0.202032,-223.300003,-53.759998,117.180000,21.51
1972799,0.648064,0.493368,0.160552,-229.110001,-56.000000,113.260002,21.48
1972810,0.678808,0.416264,0.141032,-237.020004,-57.610001,109.620003,21.48
1972821,0.690520,0.385032,0.146888,-245.350006,-60.619999,105.699997,21.55
1972832,0.706624,0.360144,0.122488,-259.630005,-61.320000,101.989998,21.53
1972843,0.739808,0.158112,0.134200,-245.350006,-58.029999,96.529999,21.53
1972854,0.772992,-0.100528,0.179584,-215.320007,-54.459999,88.970001,21.55
1972865,0.772504,-0.113216,0.182024,-169.610001,-51.169998,85.540001,21.55
1972875,0.767624,-0.086376,0.175680,-130.059998,-49.700001,80.360001,21.53
1972886,0.802272,-0.040992,0.174704,-107.379997,-48.299999,75.529999,21.50
1972897,0.809592,0.015128,0.170800,-92.610001,-46.830002,71.470001,21.50
1972908,0.816912,0.054168,0.185928,-98.070000,-47.529999,67.480003,21.52
1972919,0.841800,0.017080,0.198616,-111.930000,-48.090000,59.849998,21.52
1972930,0.859368,-0.071736,0.185440,-124.599998,-46.130001,50.259998,21.55
1972941,0.881816,-0.132736,0.171288,-141.190002,-43.820000,42.490002,21.52
1972952,0.906704,-0.325496,0.141032,-129.429993,-36.959999,28.139999,21.52
1972963,0.935008,-0.472384,0.138592,-102.410004,-28.629999,16.379999,21.54
1972974,0.923784,-0.457744,0.127368,-60.200001,-19.670000,5.320000,21.54
1972985,0.902800,-0.416752,0.104432,-15.610000,-11.340000,-6.440000,21.55
1972996,0.920368,-0.398696,0.064904,34.230000,-0.420000,-17.290001,21.55
1973007,0.930616,-0.357216,0.044896,45.430000,7.770000,-25.760000,21.53
1973018,0.936472,-0.339160,0.058072,63.139999,12.740000,-32.410000,21.52
1973029,0.920856,-0.317688,0.064904,76.370003,17.290001,-38.990002,21.52
1973040,0.889136,-0.345504,0.064904,92.120003,19.320000,-49.630001,21.54
1973051,0.886696,-0.337696,0.054656,120.050003,24.850000,-58.310001,21.54
1973061,0.853024,-0.327448,0.022448,161.139999,32.200001,-72.589996,21.53
1973072,0.833992,-0.326472,-0.006344,201.460007,38.430000,-85.820000,21.56
1973083,0.802760,-0.221552,-0.033672,239.610001,44.730000,-93.870003,21.56
1973094,0.796904,-0.090280,-0.015128,261.380005,47.320000,-104.089996,21.49
1973105,0.779824,0.040016,0.038064,267.119995,51.869999,-112.629997,21.49
1973116,0.738344,0.136152,0.110776,260.609985,52.290001,-117.739998,21.54
1973127,0.711992,0.170312,0.117120,264.600006,53.759998,-127.190002,21.49
1973138,0.713944,0.180560,0.065880,265.579987,56.070000,-133.350006,21.49
1973149,0.693936,0.151768,0.016592,293.160004,57.959999,-141.399994,21.53
1973159,0.642696,0.240096,-0.014152,313.459991,58.799999,-147.000000,21.53
1973171,0.584136,0.465552,-0.020496,326.619995,56.910000,-149.869995,21.52
1973182,0.572424,0.586576,-0.001952,321.579987,52.570000,-151.759995,21.52
1973192,0.564616,0.615856,0.027816,314.089996,44.939999,-152.740005,21.52
1973203,0.523136,0.761280,0.039528,292.179993,36.750000,-152.320007,21.52
1973214,0.497272,0.847656,-0.006832,263.760010,28.490000,-148.889999,21.52
1973225,0.484096,0.892064,-0.047336,247.729996,20.440001,-150.570007,21.54
1973236,0.496784,0.935496,-0.092720,229.039993,21.980000,-149.449997,21.54
1973246,0.472384,1.024800,-0.134688,191.660004,21.840000,-147.770004,21.54
1973257,0.468968,1.022360,-0.161528,161.979996,20.719999,-145.179993,21.54
1973268,0.459208,1.098976,-0.176168,121.379997,22.750000,-141.050003,21.51
1973279,0.431880,1.204384,-0.182512,78.190002,24.290001,-132.580002,21.47
1973290,0.411384,1.305400,-0.153720,46.970001,18.760000,-120.959999,21.47
1973301,0.393328,1.382016,-0.076128,22.820000,15.820000,-111.790001,21.50
1973312,0.383080,1.491816,0.008296,9.590000,13.300000,-95.339996,21.50
1973323,0.355264,1.550376,0.072712,9.870000,6.370000,-82.739998,21.49
1973333,0.379664,1.550864,0.104920,16.100000,5.180000,-68.809998,21.49
1973344,0.422608,1.495232,0.046848,19.950001,8.120000,-56.770000,21.49
1973355,0.431392,1.486448,0.003904,18.620001,9.450000,-40.529999,21.52
1973366,0.434808,1.552816,0.000000,5.880000,8.540000,-21.910000,21.52
1973376,0.442616,1.572336,0.022936,-6.300000,9.240000,-8.190000,21.55
1973387,0.413336,1.604544,0.076128,-15.820000,4.410000,9.590000,21.55
1973398,0.422120,1.558672,0.118096,-23.870001,-1.750000,20.719999,21.55
1973409,0.437736,1.490352,0.126880,-28.700001,-6.440000,31.990000,21.48
1973420,0.432856,1.451800,0.132248,-36.540001,-10.570000,42.349998,21.48
1973430,0.451888,1.403488,0.111752,-43.889999,-12.530000,49.419998,21.53
1973441,0.454328,1.361520,0.084912,-51.730000,-13.790000,59.080002,21.53
1973452,0.460672,1.322968,0.046848,-62.720001,-15.260000,68.250000,21.52
1973463,0.462624,1.280512,0.011712,-77.070000,-16.450001,74.410004,21.52
1973473,0.461160,1.286856,-0.007808,-94.849998,-19.040001,84.000000,21.51
1973484,0.478240,1.236104,0.041968,-112.699997,-22.820000,89.529999,21.52
1973495,0.481656,1.131672,0.101504,-120.190002,-23.660000,95.970001,21.52
1973506,0.474824,1.107760,0.113216,-118.720001,-23.940001,100.660004,21.53
1973517,0.486536,1.057496,0.134688,-115.360001,-28.070000,107.239998,21.53
1973528,0.504104,1.041392,0.128344,-114.169998,-30.660000,112.559998,21.49
1973539,0.512888,1.003328,0.100040,-118.019997,-30.870001,117.389999,21.55
1973550,0.523624,0.961360,0.065392,-130.690002,-34.230000,121.169998,21.55
1973560,0.563152,0.922320,0.058072,-149.100006,-34.090000,123.480003,21.52
1973571,0.567056,0.882304,0.116632,-178.850006,-34.860001,124.529999,21.52
1973582,0.542656,0.863272,0.146888,-201.250000,-38.009998,126.839996,21.52
1973593,0.543632,0.750544,0.208376,-206.990005,-40.810001,128.029999,21.52
1973604,0.553392,0.640744,0.256688,-200.759995,-42.840000,127.889999,21.51
1973614,0.569496,0.572912,0.229360,-189.350006,-45.220001,127.680000,21.52
1973625,0.575840,0.541680,0.212768,-185.220001,-50.119999,127.959999,21.52
1973636,0.626104,0.504592,0.168848,-189.559998,-54.669998,126.839996,21.52
1973647,0.642696,0.466528,0.189344,-203.279999,-60.619999,126.769997,21.52
1973658,0.650504,0.468480,0.172264,-223.649994,-63.700001,124.949997,21.50
1973669,0.642208,0.445056,0.177144,-246.190002,-69.160004,122.989998,21.47
1973679,0.674904,0.271816,0.220576,-245.770004,-73.709999,117.739998,21.47
1973690,0.710528,0.109800,0.220576,-224.839996,-72.309998,111.440002,21.50
1973701,0.714920,0.050752,0.221552,-176.539993,-69.370003,106.750000,21.50
1973712,0.728584,0.060024,0.189344,-139.929993,-66.220001,101.500000,21.48
1973723,0.766160,0.053680,0.112728,-101.010002,-62.230000,95.690002,21.48
1973736,0.805200,0.059048,0.055632,-72.870003,-54.810001,87.500000,21.52
1973746,0.826184,0.048800,0.025864,-67.550003,-50.750000,80.080002,21.48
1973757,0.826184,0.043432,0.058560,-75.389999,-47.320000,73.989998,21.48
1973768,0.845704,-0.020008,0.093696,-89.459999,-46.410000,65.730003,21.52
1973779,0.848144,-0.108824,0.137128,-109.339996,-46.689999,56.209999,21.52
1973790,0.851560,-0.194712,0.138104,-120.959999,-44.939999,48.439999,21.53
1973801,0.854000,-0.226432,0.120536,-126.419998,-42.840000,38.709999,21.52
1973812,0.874008,-0.219600,0.083936,-128.169998,-39.410000,29.330000,21.52
1973823,0.899384,-0.238632,0.025376,-121.730003,-32.060001,19.459999,21.52
1973833,0.918416,-0.311344,-0.007320,-106.889999,-22.469999,6.230000,21.52
1973844,0.923784,-0.356240,-0.051240,-81.339996,-13.300000,-7.000000,21.50
1973855,0.945744,-0.415776,-0.078568,-43.259998,-0.350000,-16.030001,21.50
1973866,0.949160,-0.417728,-0.087840,-6.510000,11.900000,-26.110001,21.50
1973877,0.951600,-0.446520,-0.076128,25.129999,22.330000,-35.980000,21.50
1973888,0.932568,-0.411872,-0.045872,59.849998,28.770000,-43.959999,21.50
1973899,0.895480,-0.293776,-0.010736,81.620003,31.990000,-51.310001,21.51
1973910,0.891576,-0.220576,0.030256,92.120003,34.299999,-59.990002,21.51
1973921,0.887184,-0.162504,0.047824,98.279999,37.169998,-68.389999,21.51
1973932,0.867176,-0.158600,0.045872,113.889999,42.000000,-77.070000,21.52
1973943,0.850096,-0.110288,0.040504,130.970001,49.490002,-85.120003,21.52
1973953,0.818864,-0.093696,0.025864,162.539993,55.090000,-93.449997,21.50
1973964,0.830576,-0.079056,0.030744,188.509995,63.000000,-103.180000,21.50
1973975,0.823744,0.056608,0.045384,207.619995,67.970001,-108.639999,21.46
1973986,0.782264,0.148840,0.075640,217.770004,72.169998,-116.480003,21.45
1973996,0.758840,0.257176,0.125416,217.490005,72.029999,-121.519997,21.45
1974007,0.716872,0.351848,0.169336,212.240005,70.629997,-127.260002,21.52
1974018,0.707112,0.288408,0.191784,228.899994,68.389999,-134.399994,21.52
1974029,0.723704,0.310368,0.174704,244.860001,69.720001,-138.529999,21.51
1974040,0.679296,0.374784,0.112240,266.839996,70.910004,-142.729996,21.51
1974050,0.676368,0.360144,0.092720,294.559998,70.349998,-149.520004,21.50
1974061,0.651968,0.460184,0.056120,312.899994,70.699997,-149.660004,21.51
1974072,0.576816,0.576328,0.031720,323.679993,66.360001,-153.020004,21.51
1974083,0.544608,0.797392,0.034648,308.140015,59.639999,-146.860001,21.54
1974093,0.521672,0.972584,0.049288,275.660004,52.080002,-144.550003,21.54
1974104,0.502152,0.957944,0.074176,259.070007,44.380001,-143.289993,21.51
1974115,0.494344,0.984296,0.061976,231.070007,38.919998,-138.669998,21.51
1974125,0.449448,1.010648,0.056608,217.630005,31.360001,-138.809998,21.50
1974136,0.459696,1.051640,-0.012200,194.740005,30.730000,-136.500000,21.47
1974147,0.462136,1.153144,-0.070760,159.179993,30.520000,-128.869995,21.47
1974158,0.416752,1.322968,-0.079056,126.489998,27.299999,-115.989998,21.52
1974168,0.401624,1.457168,-0.022936,80.360001,20.370001,-99.540001,21.52
1974179,0.373320,1.556232,0.021960,47.459999,16.520000,-89.599998,21.53
1974190,0.375760,1.576240,0.053192,29.120001,9.660000,-70.209999,21.53
1974201,0.397232,1.564040,0.071248,16.799999,4.900000,-60.689999,21.46
1974211,0.427000,1.573800,0.077592,10.990000,5.390000,-45.779999,21.48
1974222,0.435296,1.598688,0.080520,6.790000,4.970000,-28.209999,21.48
1974233,0.447984,1.580632,0.069784,1.190000,5.320000,-13.860000,21.54
1974243,0.458232,1.581608,0.076616,-4.760000,4.130000,5.390000,21.54
1974254,0.467504,1.593808,0.092720,-18.760000,0.560000,20.020000,21.54
1974265,0.469944,1.568920,0.111264,-33.040001,-6.930000,37.660000,21.54
1974276,0.482632,1.500112,0.130784,-48.930000,-12.390000,51.799999,21.51
1974286,0.490928,1.458144,0.126392,-64.050003,-16.590000,61.389999,21.50
1974297,0.494344,1.406904,0.097112,-79.449997,-20.090000,70.559998,21.50
1974308,0.511424,1.348344,0.067344,-99.959999,-21.700001,76.860001,21.47
1974319,0.514840,1.237568,0.071736,-112.419998,-23.520000,82.809998,21.47
1974329,0.507032,1.181936,0.071736,-124.809998,-25.760000,85.610001,21.51
1974340,0.520208,1.128744,0.085888,-139.229996,-28.350000,88.269997,21.45
1974351,0.529968,1.056032,0.055144,-148.750000,-29.400000,95.059998,21.45
1974362,0.527528,0.992104,0.075640,-158.130005,-32.340000,96.949997,21.46
1974372,0.533872,0.903288,0.129808,-152.740005,-32.900002,97.510002,21.46
1974383,0.552904,0.875960,0.179584,-148.960007,-33.389999,105.769997,21.54
1974394,0.550464,0.872544,0.171288,-140.490005,-35.349998,108.849998,21.54
1974405,0.577792,0.834480,0.149816,-138.320007,-37.169998,111.440002,21.51
1974416,0.597312,0.788608,0.113216,-140.770004,-36.889999,113.680000,21.48
1974427,0.615856,0.769576,0.084424,-149.729996,-36.540001,114.309998,21.48
1974437,0.630984,0.745664,0.088816,-164.080002,-36.540001,114.660004,21.48
1974448,0.633912,0.732488,0.090768,-184.380005,-35.910000,112.559998,21.48
1974459,0.621712,0.674904,0.082960,-199.919998,-35.910000,112.139999,21.51
1974470,0.634888,0.515816,0.130296,-197.539993,-35.000000,105.910004,21.51
1974481,0.640744,0.378688,0.208376,-175.210007,-34.860001,102.059998,21.50
1974491,0.666120,0.308416,0.198128,-145.949997,-32.759998,97.860001,21.45
1974502,0.688568,0.309392,0.193248,-131.949997,-34.160000,94.919998,21.45
1974513,0.718336,0.322568,0.197640,-122.919998,-36.400002,92.610001,21.48
1974524,0.743224,0.324520,0.201056,-125.930000,-36.610001,92.959999,21.48
1974535,0.739320,0.361608,0.225456,-138.880005,-38.709999,92.540001,21.51
1974546,0.751520,0.314272,0.231312,-150.639999,-40.320000,89.949997,21.44
1974557,0.788608,0.186416,0.228384,-157.990005,-38.709999,86.309998,21.44
1974568,0.789096,0.141520,0.217160,-163.800003,-38.500000,81.129997,21.47
1974579,0.794464,0.053680,0.222528,-155.960007,-37.730000,75.180000,21.47
1974589,0.809104,-0.022448,0.225944,-141.960007,-36.259998,67.339996,21.52
1974600,0.806176,-0.063440,0.249368,-129.429993,-35.630001,58.660000,21.52
1974611,0.809592,-0.072712,0.244976,-117.739998,-35.700001,51.590000,21.52
1974622,0.832040,-0.073688,0.222528,-113.889999,-34.930000,43.540001,21.47
1974633,0.848632,-0.072712,0.206912,-118.089996,-33.950001,35.630001,21.47
1974644,0.868640,-0.153720,0.183976,-110.599998,-31.010000,25.270000,21.53
1974655,0.892552,-0.305000,0.191296,-81.059998,-25.410000,18.480000,21.53
1974666,0.876936,-0.297192,0.189832,-53.830002,-19.600000,11.200000,21.56
1974677,0.877424,-0.276208,0.170312,-20.020000,-14.910000,2.730000,21.51
1974688,0.895968,-0.253272,0.155672,7.700000,-9.450000,-3.220000,21.51
1974699,0.896944,-0.210816,0.153720,24.360001,-3.640000,-10.640000,21.48
1974709,0.903288,-0.166408,0.159088,34.160000,0.140000,-18.969999,21.48
1974720,0.911584,-0.137128,0.173728,34.090000,4.130000,-26.110001,21.49
1974731,0.901336,-0.165432,0.183000,39.060001,8.470000,-35.910000,21.49
1974742,0.891088,-0.153232,0.181536,48.509998,11.270000,-43.189999,21.48
1974753,0.882792,-0.188856,0.179096,75.110001,15.750000,-54.040001,21.46
1974764,0.893528,-0.192272,0.164456,104.930000,22.049999,-63.910000,21.46
1974774,0.868152,-0.119072,0.155184,137.270004,29.400000,-71.050003,21.48
1974785,0.850096,-0.042944,0.147864,157.500000,35.630001,-79.169998,21.48
1974796,0.842288,-0.038064,0.130296,185.009995,40.389999,-87.360001,21.46
1974806,0.829112,0.004880,0.102480,210.139999,45.919998,-93.800003,21.46
1974817,0.805200,0.034648,0.098576,232.820007,49.910000,-101.500000,21.48
1974828,0.754448,0.127856,0.064904,261.869995,55.020000,-106.540001,21.48
1974838,0.729560,0.170800,0.036600,286.790009,55.720001,-113.610001,21.48
1974849,0.708576,0.233264,0.047824,317.799988,56.000000,-120.190002,21.50
1974860,0.665144,0.325008,0.044408,336.839996,55.439999,-127.540001,21.50
1974871,0.646600,0.378688,0.017568,347.619995,53.200001,-135.380005,21.48
1974882,0.635864,0.444080,-0.021472,341.529999,51.310001,-139.860001,21.51
1974893,0.605120,0.493368,-0.033672,324.380005,45.220001,-145.600006,21.51
1974904,0.592432,0.558272,-0.081008,307.859985,43.470001,-148.960007,21.48
1974914,0.546072,0.591944,-0.123952,280.700012,38.500000,-150.500000,21.48
1974925,0.526064,0.741760,-0.109800,243.320007,34.230000,-148.960007,21.44
1974936,0.470432,0.915976,-0.076128,209.020004,29.260000,-148.330002,21.44
1974947,0.450912,0.982344,-0.040504,162.330002,21.840000,-144.199997,21.48
1974958,0.438712,1.078968,-0.020496,127.680000,16.520000,-140.000000,21.46
1974968,0.424560,1.110688,-0.006344,92.610001,12.040000,-138.600006,21.46
1974979,0.464088,1.090192,-0.037576,65.589996,12.250000,-135.380005,21.45
1974990,0.456280,1.081408,-0.101992,52.009998,16.309999,-129.639999,21.45
1975001,0.448960,1.143384,-0.123464,43.959999,19.809999,-119.279999,21.47
1975012,0.404064,1.375184,-0.092232,36.119999,18.200001,-106.889999,21.45
1975023,0.400160,1.485472,-0.019520,27.719999,16.170000,-91.910004,21.45
1975034,0.387960,1.499624,0.061000,22.469999,10.360000,-72.239998,21.43
1975044,0.381128,1.534272,0.100528,18.410000,4.830000,-58.799999,21.43
1975055,0.400648,1.597712,0.127856,12.600000,2.450000,-39.270000,21.50
1975066,0.420168,1.672864,0.132736,-1.400000,-1.540000,-23.030001,21.50
1975077,0.445544,1.660664,0.104432,-14.280000,-2.030000,-5.110000,21.46
1975088,0.447496,1.622600,0.075152,-22.889999,-2.170000,12.180000,21.43
1975099,0.449936,1.591856,0.079544,-32.759998,-3.640000,24.080000,21.43
1975109,0.460672,1.526464,0.096624,-35.910000,-6.020000,34.720001,21.50
1975120,0.461160,1.461560,0.122976,-36.259998,-9.240000,43.119999,21.50
1975131,0.482144,1.379576,0.124440,-33.250000,-12.390000,50.330002,21.47
1975142,0.490928,1.346392,0.076128,-31.990000,-14.070000,59.849998,21.47
1975153,0.491416,1.305400,0.017080,-38.150002,-17.010000,69.510002,21.45
1975164,0.499224,1.299056,-0.000488,-53.830002,-19.459999,78.820000,21.43
1975175,0.489464,1.312232,-0.001464,-75.110001,-24.639999,90.790001,21.43
1975185,0.501176,1.293200,0.014640,-110.599998,-27.299999,98.699997,21.50
1975196,0.498248,1.224392,0.022448,-141.399994,-30.590000,106.750000,21.50
1975207,0.506056,1.112640,0.019032,-157.990005,-31.430000,108.779999,21.48
1975218,0.500688,1.023336,0.016592,-165.059998,-29.120001,107.730003,21.50
1975229,0.526064,0.894016,0.010736,-160.369995,-26.459999,107.589996,21.50
1975240,0.538752,0.831064,0.019032,-154.839996,-24.709999,106.330002,21.52
1975251,0.548024,0.820816,0.063928,-150.850006,-26.670000,109.970001,21.52
1975263,0.557296,0.791048,0.125416,-146.509995,-30.379999,112.559998,21.47
1975274,0.552416,0.768112,0.161040,-137.690002,-28.980000,114.029999,21.50
1975286,0.575352,0.762744,0.125904,-139.580002,-29.610001,122.010002,21.50
1975297,0.598288,0.733952,0.104432,-150.009995,-31.850000,123.620003,21.45
1975308,0.608048,0.709064,0.100528,-165.479996,-33.389999,127.190002,21.45
1975319,0.602680,0.638304,0.102968,-167.860001,-34.090000,127.820000,21.48
1975330,0.607560,0.586576,0.141520,-170.380005,-34.299999,126.209999,21.45
1975341,0.614880,0.543144,0.172264,-172.479996,-37.799999,123.830002,21.45
1975352,0.649040,0.421144,0.195200,-168.770004,-38.639999,117.739998,21.48
1975363,0.672952,0.337208,0.214232,-158.339996,-37.310001,112.279999,21.48
1975373,0.678320,0.280600,0.208376,-150.360001,-37.660000,108.010002,21.51
1975384,0.690520,0.292312,0.222040,-151.830002,-39.480000,103.669998,21.51
1975395,0.712480,0.279136,0.218136,-160.720001,-41.509998,100.309998,21.48
