timestamp_ms,ax,ay,az,gx,gy,gz,tempC
2101071,0.708576,0.458232,0.464088,102.480003,-120.050003,105.279999,20.62
2101083,0.732976,0.439688,0.406504,95.900002,-111.720001,107.589996,20.62
2101095,0.714920,0.487512,0.361608,85.959999,-102.339996,109.480003,20.63
2101106,0.687104,0.486048,0.331840,75.110001,-98.000000,109.760002,20.59
2101117,0.694424,0.478240,0.330376,67.830002,-91.980003,111.019997,20.59
2101128,0.673928,0.439200,0.315248,61.110001,-87.220001,110.040001,20.59
2101139,0.691008,0.370880,0.290848,56.770000,-83.720001,108.500000,20.59
2101149,0.732488,0.291824,0.263032,54.110001,-80.080002,107.940002,20.57
2101160,0.750056,0.285968,0.219600,56.910000,-75.669998,106.330002,20.57
2101171,0.774456,0.260104,0.171288,58.799999,-70.839996,105.980003,20.63
2101182,0.766160,0.244488,0.152744,60.970001,-65.029999,103.389999,20.60
2101193,0.753472,0.275232,0.123952,61.810001,-62.020000,102.760002,20.60
2101203,0.787144,0.327936,0.119072,56.840000,-55.090000,102.199997,20.57
2101214,0.769576,0.354776,0.137616,49.630001,-49.560001,99.260002,20.57
2101225,0.766160,0.318664,0.164944,39.830002,-46.619999,96.739998,20.62
2101236,0.790072,0.300120,0.209840,26.110001,-44.450001,95.480003,20.62
2101247,0.778360,0.235704,0.226432,19.180000,-45.290001,92.190002,20.63
2101258,0.833992,0.134200,0.178120,15.680000,-42.700001,90.089996,20.62
2101269,0.833504,0.103944,0.150304,12.110000,-38.919998,88.339996,20.62
2101280,0.802760,0.099064,0.121512,11.480000,-36.330002,86.449997,20.61
2101290,0.812520,0.090280,0.091256,14.910000,-32.060001,84.000000,20.61
2101301,0.817400,0.102480,0.108336,20.370001,-27.299999,81.129997,20.61
2101312,0.818864,0.113704,0.137128,26.320000,-24.850000,76.790001,20.57
2101323,0.820328,0.111752,0.171288,29.959999,-24.219999,72.239998,20.57
2101334,0.854488,0.026352,0.173728,33.880001,-23.870001,67.620003,20.61
2101345,0.869128,0.000000,0.176656,36.680000,-22.750000,63.490002,20.61
2101356,0.881328,0.014152,0.171776,38.360001,-22.330000,61.529999,20.65
2101367,0.871080,0.021960,0.181536,37.240002,-20.090000,57.470001,20.65
2101377,0.861808,0.036112,0.182024,33.250000,-18.969999,55.230000,20.64
2101389,0.862296,0.040992,0.159088,28.139999,-17.920000,52.919998,20.61
2101400,0.874008,0.035624,0.142496,20.719999,-17.010000,50.610001,20.61
2101411,0.881816,0.057584,0.127856,14.910000,-13.790000,46.759998,20.64
2101422,0.893040,0.046848,0.127856,6.790000,-12.880000,43.959999,20.64
2101432,0.897432,0.043920,0.126392,2.870000,-10.640000,40.110001,20.60
2101443,0.894504,0.023912,0.119560,-0.210000,-8.540000,36.610001,20.60
2101454,0.902800,0.017568,0.110776,-2.730000,-8.050000,33.880001,20.60
2101465,0.905240,-0.011224,0.097112,-4.060000,-5.460000,30.030001,20.61
2101476,0.906704,-0.040016,0.090768,-3.500000,-2.870000,27.090000,20.61
2101487,0.907680,-0.040992,0.089792,-1.120000,-2.310000,25.059999,20.64
2101498,0.911584,-0.050264,0.081008,-0.280000,0.910000,21.980000,20.61
2101509,0.898896,-0.060512,0.073688,1.050000,3.640000,18.690001,20.61
2101520,0.893528,-0.082960,0.062952,2.170000,5.740000,14.700000,20.62
2101531,0.907192,-0.095160,0.056608,3.780000,7.350000,11.830000,20.62
2101542,0.919392,-0.101504,0.066856,3.010000,8.470000,7.630000,20.61
2101553,0.937448,-0.085888,0.089304,1.260000,7.700000,4.690000,20.61
2101563,0.941352,-0.076128,0.125904,-1.680000,6.720000,2.030000,20.59
2101574,0.943304,-0.046848,0.161040,-5.390000,4.550000,0.350000,20.60
2101585,0.947696,-0.031720,0.189344,-8.470000,2.660000,-1.820000,20.60
2101596,0.976000,-0.043920,0.202520,-9.170000,0.560000,-3.500000,20.60
2101608,0.983320,-0.030744,0.192272,-6.580000,1.120000,-6.020000,20.60
2101619,0.998448,-0.021960,0.181048,-2.590000,1.260000,-6.720000,20.60
2101630,1.013088,-0.007808,0.175680,0.910000,2.380000,-7.210000,20.61
2101641,1.012112,0.020008,0.185440,4.270000,3.570000,-7.560000,20.61
2101651,1.004304,0.036112,0.198616,5.250000,3.920000,-7.840000,20.59
2101662,0.993080,0.063928,0.210328,6.790000,4.130000,-8.400000,20.59
2101674,0.973560,0.082472,0.232288,5.600000,2.660000,-8.470000,20.61
2101684,0.983320,0.099552,0.238144,3.640000,1.190000,-8.050000,20.61
2101695,0.970144,0.096624,0.229848,1.680000,-1.890000,-8.050000,20.56
2101707,0.975024,0.091256,0.216184,-1.750000,-4.690000,-7.210000,20.58
2101718,0.987712,0.070272,0.210816,-1.470000,-6.300000,-5.950000,20.58
2101729,0.981856,0.094184,0.203984,1.120000,-5.530000,-5.320000,20.61
2101740,0.971608,0.116144,0.211304,2.450000,-4.200000,-3.500000,20.61
2101751,0.973072,0.136152,0.220088,0.350000,-5.110000,-0.840000,20.62
2101762,0.981368,0.123464,0.228872,-2.590000,-6.930000,-0.070000,20.64
2101773,0.974048,0.129320,0.234728,-3.850000,-7.000000,0.910000,20.64
2101785,0.987224,0.112728,0.234240,-2.030000,-7.700000,1.190000,20.64
2101795,0.982832,0.100528,0.228872,0.910000,-7.420000,0.770000,20.64
2101806,0.957456,0.096136,0.221552,4.830000,-6.370000,-0.980000,20.60
2101817,0.963312,0.083936,0.228384,4.550000,-5.810000,-0.280000,20.59
2101828,0.952088,0.049776,0.213744,6.440000,-5.600000,-1.260000,20.59
2101839,0.967704,0.038064,0.193736,7.980000,-3.920000,-1.260000,20.57
2101850,0.961848,0.018056,0.157624,9.310000,-3.920000,-2.730000,20.57
2101861,0.961848,-0.044896,0.099064,15.820000,-2.170000,-6.650000,20.58
2101872,0.965264,-0.145424,0.035136,29.260000,0.000000,-12.250000,20.55
2101884,0.961360,-0.204960,-0.013664,48.930000,4.620000,-18.270000,20.55
2101895,0.958432,-0.242536,-0.051240,74.129997,9.100000,-24.500000,20.59
2101906,0.957456,-0.303048,-0.088328,100.239998,15.050000,-31.920000,20.59
2101917,0.949160,-0.320128,-0.134200,118.860001,21.350000,-38.919998,20.63
2101928,0.952576,-0.306952,-0.197640,139.369995,28.420000,-46.830002,20.60
2101940,0.921344,-0.352824,-0.375272,151.830002,37.310001,-59.220001,20.60
2101951,0.955504,-0.314760,-0.281576,171.289993,45.430000,-68.389999,20.58
2101962,0.916952,-0.309880,-0.328424,210.839996,59.290001,-76.790001,20.58
2101973,0.882304,-0.255224,-0.321592,234.639999,68.599998,-90.160004,20.62
2101984,0.848144,-0.156648,-0.290848,255.149994,76.440002,-102.059998,20.57
2101996,0.782264,-0.044408,-0.181048,260.190002,80.080002,-115.290001,20.57
2102007,0.722728,0.023912,-0.083448,253.960007,79.099998,-124.599998,20.60
2102018,0.684664,0.100528,-0.020496,242.619995,77.349998,-135.589996,20.60
2102029,0.669048,0.203496,0.043432,230.020004,75.180000,-144.759995,20.63
2102039,0.639280,0.288408,0.071736,226.869995,73.500000,-151.970001,20.57
2102050,0.636840,0.365512,0.072712,220.850006,73.989998,-160.789993,20.57
2102061,0.658312,0.443592,0.032208,230.580002,77.000000,-168.630005,20.58
2102072,0.627568,0.548024,0.157136,222.740005,77.070000,-169.820007,20.58
2102083,0.592920,0.646600,0.121024,233.660004,76.089996,-179.899994,20.61
2102094,0.573400,0.741760,0.121512,237.369995,77.699997,-179.199997,20.61
2102104,0.554856,0.719800,0.056608,241.500000,79.379997,-182.490005,20.61
2102115,0.523136,0.790560,-0.000488,247.800003,77.769997,-179.690002,20.57
2102126,0.498248,1.061888,0.031232,221.899994,73.570000,-166.669998,20.57
2102137,0.436760,1.226832,0.117608,194.110001,61.389999,-154.279999,20.63
2102148,0.463600,1.389824,0.190808,164.919998,51.869999,-138.949997,20.63
2102159,0.441640,1.462048,0.229848,143.710007,28.139999,-121.660004,20.61
2102170,0.465552,1.460584,0.235704,120.610001,21.490000,-112.489998,20.65
2102181,0.512888,1.387872,0.112728,102.900002,19.950001,-96.739998,20.65
2102192,0.517768,1.460584,-0.046360,88.199997,21.910000,-78.889999,20.60
2102203,0.486536,1.595272,-0.076616,60.830002,19.320000,-64.680000,20.60
2102215,0.520696,1.587464,-0.005856,35.000000,18.340000,-44.240002,20.65
2102226,0.508984,1.572336,0.076616,22.959999,15.120000,-33.250000,20.63
2102237,0.510448,1.509384,0.153720,20.930000,9.800000,-19.389999,20.63
2102247,0.524600,1.468392,0.161528,27.370001,7.280000,-6.300000,20.61
2102258,0.533384,1.475712,0.146888,27.370001,3.500000,6.020000,20.61
2102269,0.550464,1.484984,0.083936,21.770000,0.910000,23.940001,20.61
2102280,0.551928,1.487424,0.033672,4.970000,-0.490000,38.570000,20.61
2102291,0.552904,1.423496,0.031720,-14.910000,-2.940000,55.160000,20.59
2102302,0.557296,1.367864,0.043920,-30.100000,-4.060000,71.120003,20.57
2102313,0.548024,1.360056,0.045872,-53.130001,-9.940000,82.669998,20.57
2102324,0.542168,1.274168,0.030744,-75.949997,-10.850000,88.269997,20.63
2102335,0.550464,1.164856,0.037088,-107.169998,-14.910000,96.459999,20.63
2102346,0.550952,1.106784,0.033184,-95.199997,-16.520000,101.150002,20.62
2102357,0.549000,1.070672,0.044408,-100.379997,-19.110001,104.720001,20.63
2102368,0.537288,0.961848,0.030256,-99.820000,-22.469999,104.230003,20.63
2102379,0.550464,0.914024,0.006344,-101.709999,-24.920000,112.000000,20.62
2102390,0.560712,0.912560,0.012200,-112.769997,-25.620001,118.440002,20.62
2102401,0.576328,0.893040,-0.001464,-129.639999,-28.420000,123.199997,20.61
2102412,0.589016,0.847168,0.001464,-148.539993,-29.330000,128.309998,20.56
2102423,0.586088,0.776896,0.015128,-164.009995,-31.219999,133.699997,20.56
2102434,0.601704,0.653432,-0.170800,-170.169998,-29.889999,128.169998,20.58
2102445,0.600728,0.686616,-0.020984,-193.619995,-35.209999,138.880005,20.58
2102456,0.628544,0.640744,-0.004392,-210.350006,-38.290001,138.460007,20.61
2102467,0.661728,0.529968,0.042944,-224.139999,-42.279999,137.830002,20.61
2102479,0.675392,0.400160,0.070272,-227.710007,-42.349998,129.080002,20.59
2102490,0.677344,0.378688,0.092232,-225.960007,-43.049999,131.460007,20.59
2102501,0.680760,0.375760,0.081984,-224.839996,-45.009998,129.710007,20.59
2102512,0.682712,0.374296,0.093208,-220.500000,-49.070000,126.279999,20.58
2102522,0.733952,0.292800,0.027816,-222.740005,-45.779999,123.129997,20.58
2102533,0.721264,0.153232,-0.044896,-208.039993,-45.779999,112.629997,20.62
2102545,0.780800,0.129808,0.011712,-210.839996,-45.430000,115.010002,20.56
2102556,0.793976,0.035136,0.003416,-204.259995,-44.099998,108.709999,20.56
2102567,0.801784,-0.038064,0.007320,-196.490005,-43.680000,101.989998,20.58
2102578,0.798368,-0.092720,0.075152,-187.740005,-47.459999,96.739998,20.58
2102589,0.835944,-0.164944,0.035136,-175.419998,-43.959999,91.070000,20.62
2102600,0.835456,-0.230336,0.065392,-165.759995,-44.240002,82.949997,20.64
2102611,0.869128,-0.296704,0.064904,-145.110001,-45.360001,74.199997,20.64
2102622,0.882304,-0.366976,0.044408,-117.809998,-41.020000,68.180000,20.62
2102633,0.866688,-0.397720,-0.006344,-89.040001,-38.919998,52.430000,20.62
2102644,0.923784,-0.404552,-0.016592,-74.269997,-30.660000,48.439999,20.64
2102656,0.930128,-0.424560,-0.028304,-56.700001,-24.990000,38.009998,20.63
2102667,0.936472,-0.413336,-0.016104,-41.930000,-19.250000,26.670000,20.63
2102678,0.937448,-0.415776,0.001464,-31.219999,-13.650000,17.219999,20.62
2102689,0.927688,-0.448472,0.012200,-22.540001,-9.030000,4.410000,20.62
2102701,0.925248,-0.479704,0.029280,-15.330000,-5.460000,-8.190000,20.59
2102712,0.922320,-0.509472,0.019032,-0.700000,-2.030000,-21.280001,20.58
2102723,0.935008,-0.531920,-0.002440,25.059999,3.640000,-30.940001,20.58
2102734,0.935984,-0.497760,-0.029280,53.549999,10.080000,-41.790001,20.63
2102745,0.936960,-0.448472,-0.055632,74.690002,16.240000,-52.500000,20.63
2102756,0.939888,-0.428464,-0.081984,101.080002,24.639999,-63.700001,20.64
2102767,0.927688,-0.399672,-0.120048,123.339996,30.730000,-73.779999,20.64
2102778,0.911584,-0.386984,-0.147864,149.660004,38.150002,-82.879997,20.64
2102789,0.901824,-0.361608,-0.140056,171.220001,44.799999,-92.050003,20.62
2102801,0.877912,-0.257664,-0.131272,190.820007,48.580002,-101.430000,20.62
2102812,0.845704,-0.226432,-0.079056,212.660004,49.560001,-112.139999,20.60
2102823,0.795928,-0.133712,-0.028792,225.190002,52.220001,-118.860001,20.63
2102834,0.736880,-0.020984,0.010736,228.130005,50.820000,-128.940002,20.63
2102845,0.726144,-0.022448,0.025864,246.190002,50.400002,-141.539993,20.64
2102856,0.713456,0.074176,-0.015616,255.639999,52.290001,-148.679993,20.64
2102867,0.683688,0.181536,-0.049776,266.489990,53.200001,-158.970001,20.63
2102878,0.673440,0.351848,0.194224,271.390015,49.490002,-156.029999,20.63
2102889,0.631472,0.333792,0.012200,291.200012,56.910000,-173.460007,20.65
2102900,0.570472,0.436760,0.027816,312.480011,57.959999,-182.279999,20.57
2102910,0.551928,0.518744,-0.013176,326.549988,55.860001,-189.839996,20.57
2102921,0.517280,0.654896,-0.039040,332.570007,54.320000,-189.490005,20.61
2102932,0.490928,0.758352,-0.053680,325.500000,46.619999,-189.839996,20.61
2102944,0.465552,0.885232,-0.061000,301.700012,38.220001,-187.949997,20.63
2102955,0.460184,0.907680,-0.096136,283.570007,29.469999,-188.089996,20.59
2102966,0.450424,0.885232,-0.182512,254.729996,30.100000,-182.839996,20.59
2102977,0.397720,1.153632,-0.259128,209.300003,24.920000,-168.770004,20.61
2102988,0.364048,1.482544,-0.279624,158.339996,19.600000,-146.649994,20.61
2102999,0.355752,1.736792,-0.282064,88.620003,14.630000,-126.559998,20.61
2103010,0.395768,1.798280,-0.240096,26.389999,6.650000,-104.440002,20.64
2103021,0.432856,1.759728,-0.179584,-7.210000,5.390000,-85.190002,20.64
2103032,0.484584,1.675304,-0.104432,-17.570000,1.260000,-87.849998,20.66
2103043,0.506544,1.687016,-0.016592,-6.160000,29.959999,-70.419998,20.66
2103054,0.425048,1.656760,-0.021960,-6.650000,-3.640000,-50.259998,20.63
2103065,0.566568,1.641144,-0.039040,-4.690000,14.630000,-42.980000,20.63
2103077,0.535824,1.619672,-0.034160,-13.160000,13.930000,-13.160000,20.63
2103088,0.544120,1.687992,0.020984,-26.040001,14.350000,9.170000,20.62
2103099,0.567056,1.507920,0.061488,-44.869999,13.510000,33.180000,20.62
2103110,0.546072,1.557208,0.091744,-63.000000,4.130000,51.590000,20.61
2103121,0.551440,1.468392,0.088328,-75.459999,-8.330000,66.430000,20.61
2103132,0.550464,1.337120,0.094184,-87.989998,-15.050000,73.500000,20.59
2103143,0.552416,1.231224,0.087352,-88.830002,-17.150000,76.300003,20.59
2103154,0.564128,1.188280,0.056608,-89.599998,-15.540000,80.430000,20.59
2103165,0.573888,1.136552,0.027328,-93.730003,-10.990000,83.370003,20.61
2103176,0.558272,1.040904,0.049288,-93.940002,-12.950000,85.680000,20.61
2103187,0.562664,1.034560,0.084424,-95.620003,-16.170000,91.839996,20.63
2103198,0.551928,1.071160,0.096136,-98.980003,-20.370001,98.000000,20.58
2103209,0.551440,1.047248,0.082472,-112.839996,-23.940001,103.529999,20.58
2103220,0.573888,1.007720,0.042456,-133.279999,-23.450001,108.989998,20.62
2103231,0.555832,0.934032,0.040992,-158.130005,-26.809999,114.940002,20.62
2103242,0.549976,0.810080,-0.019032,-171.850006,-28.070000,113.540001,20.61
2103253,0.584136,0.802272,0.066368,-195.860001,-31.219999,121.730003,20.59
2103264,0.583648,0.767624,0.038552,-213.919998,-35.840000,122.080002,20.59
2103275,0.606096,0.731512,0.072224,-232.190002,-39.270000,122.080002,20.62
2103286,0.582672,0.643184,0.036112,-242.199997,-42.209999,117.389999,20.62
2103297,0.607072,0.642696,0.131760,-256.480011,-47.740002,120.889999,20.60
2103308,0.597800,0.590480,0.156160,-262.359985,-52.639999,120.400002,20.56
2103319,0.629520,0.478728,0.157136,-258.160004,-56.770000,118.230003,20.56
2103330,0.664168,0.385520,0.143960,-237.089996,-55.650002,118.720001,20.62
2103341,0.650992,0.361120,0.134688,-216.720001,-56.070000,118.300003,20.62
2103352,0.687104,0.282064,0.146400,-203.559998,-61.180000,115.360001,20.61
2103363,0.730536,0.149816,0.115656,-186.619995,-60.480000,112.000000,20.61
2103374,0.749080,0.109312,0.107848,-167.369995,-59.990002,111.089996,20.59
2103385,0.763720,0.123464,0.114680,-154.350006,-60.689999,110.669998,20.59
2103396,0.785192,0.148840,0.129808,-151.130005,-62.720001,108.500000,20.59
2103407,0.790560,0.114680,0.136640,-151.479996,-63.070000,104.790001,20.64
2103418,0.786656,0.045872,0.132736,-149.869995,-63.560001,99.959999,20.64
2103429,0.805688,-0.085888,0.115656,-140.419998,-62.369999,91.139999,20.59
2103440,0.835456,-0.192760,0.079056,-125.580002,-58.380001,78.610001,20.57
2103451,0.874496,-0.292312,0.045384,-107.589996,-37.520000,69.440002,20.57
2103462,0.903776,-0.356728,0.019520,-85.260002,-44.869999,61.320000,20.61
2103473,0.890600,-0.397720,0.007320,-65.029999,-40.180000,46.689999,20.61
2103484,0.942328,-0.416752,0.011712,-52.639999,-29.889999,38.709999,20.61
2103495,0.929152,-0.430904,-0.007808,-40.810001,-24.920000,27.230000,20.57
2103506,0.943304,-0.462624,-0.007808,-29.120001,-20.580000,17.639999,20.57
2103517,0.958432,-0.538752,0.004880,-9.310000,-14.350000,6.020000,20.61
2103528,0.951112,-0.538752,-0.006344,8.680000,-8.540000,-6.650000,20.61
2103540,0.955992,-0.534848,-0.008296,32.689999,-1.610000,-19.809999,20.62
2103552,0.947208,-0.514840,-0.004880,53.900002,4.130000,-33.669998,20.58
2103562,0.937448,-0.486048,-0.001952,70.699997,10.290000,-44.660000,20.58
2103573,0.931104,-0.444568,-0.004392,81.550003,16.660000,-58.099998,20.62
2103584,0.928664,-0.388448,0.010736,92.889999,21.910000,-70.139999,20.62
2103595,0.911096,-0.324520,0.026840,98.910004,29.120001,-78.959999,20.62
2103606,0.888160,-0.290848,0.019032,108.709999,35.770000,-89.809998,20.62
2103617,0.877424,-0.216672,0.018544,123.830002,42.700001,-99.330002,20.58
2103628,0.856440,-0.138592,-0.008296,138.600006,46.410000,-111.089996,20.64
2103639,0.850096,-0.168360,-0.013664,176.750000,53.759998,-120.750000,20.64
2103650,0.806664,-0.105408,-0.024888,204.259995,62.160000,-130.199997,20.60
2103662,0.786168,-0.000488,-0.022448,237.229996,65.730003,-138.809998,20.60
2103673,0.766160,0.128832,0.010248,253.190002,68.110001,-146.089996,20.60
2103684,0.714432,0.233264,0.063440,267.540009,67.690002,-151.339996,20.59
2103696,0.674416,0.324032,0.104920,273.489990,64.330002,-155.190002,20.59
2103707,0.719312,0.507520,0.253272,243.529999,57.889999,-144.970001,20.62
2103718,0.622688,0.465064,0.056120,263.339996,57.189999,-161.419998,20.62
2103729,0.625616,0.444080,0.044408,273.209991,53.340000,-165.619995,20.60
2103739,0.588040,0.572424,0.005368,272.369995,55.720001,-164.919998,20.61
2103750,0.511912,0.797392,-0.008784,266.700012,53.549999,-162.190002,20.61
2103762,0.494832,0.953552,-0.011224,245.630005,47.389999,-154.770004,20.61
2103773,0.496296,1.046760,0.027328,225.470001,36.049999,-151.059998,20.61
2103784,0.503128,1.118984,0.061976,202.440002,32.689999,-148.050003,20.60
2103795,0.507032,1.157536,-0.013176,174.789993,24.990000,-142.520004,20.60
2103806,0.511424,1.216096,-0.090768,141.539993,21.490000,-131.110001,20.60
2103817,0.520208,1.340536,-0.110776,98.559998,22.260000,-118.510002,20.60
2103828,0.505080,1.492792,-0.108824,59.009998,21.000000,-99.610001,20.60
2103839,0.496784,1.567456,-0.053192,35.139999,19.040001,-79.169998,20.63
2103850,0.485560,1.608448,0.021472,15.470000,14.700000,-58.799999,20.61
2103861,0.506056,1.606496,0.103456,8.890000,11.550000,-45.500000,20.61
2103872,0.520696,1.559160,0.150792,3.360000,5.950000,-29.120001,20.61
2103883,0.536800,1.575752,0.184464,-3.080000,1.610000,-11.200000,20.61
2103894,0.554368,1.588928,0.182512,-13.020000,-0.350000,6.370000,20.59
2103905,0.583160,1.590880,0.161528,-33.040001,-2.030000,21.000000,20.58
2103916,0.587552,1.523048,0.156648,-46.970001,-4.480000,38.009998,20.58
2103927,0.589504,1.405928,0.149328,-58.099998,-5.600000,53.130001,20.58
2103938,0.591944,1.353224,0.144448,-64.959999,-8.050000,63.139999,20.58
2103949,0.592432,1.316624,0.145912,-72.800003,-11.060000,74.690002,20.59
2103960,0.590968,1.247328,0.134200,-80.010002,-16.660000,84.910004,20.59
2103971,0.595848,1.190720,0.111264,-91.489998,-20.510000,94.500000,20.62
2103982,0.590968,1.157536,0.093696,-110.529999,-25.200001,99.820000,20.56
2103993,0.564616,1.087752,0.109312,-126.209999,-28.629999,107.239998,20.56
2104004,0.570960,1.024312,0.139080,-142.800003,-33.669998,112.279999,20.62
2104015,0.575352,0.946720,0.156648,-146.580002,-36.750000,112.419998,20.62
2104026,0.602192,0.841312,0.171776,-141.539993,-41.230000,111.790001,20.61
2104038,0.569984,0.808616,0.155184,-130.830002,-41.160000,113.050003,20.65
2104049,0.614880,0.768600,0.151768,-129.220001,-38.080002,120.540001,20.65
2104060,0.620248,0.745664,0.140056,-131.669998,-39.830002,124.250000,20.62
2104071,0.621224,0.748104,0.130296,-141.750000,-41.020000,127.610001,20.62
2104082,0.630008,0.712480,0.118584,-155.750000,-46.340000,131.600006,20.64
2104093,0.637816,0.616832,0.089792,-173.179993,-49.770000,132.929993,20.64
2104104,0.679784,0.577304,0.004392,-187.320007,-49.349998,131.669998,20.64
2104115,0.683688,0.525576,0.060512,-210.350006,-51.799999,131.179993,20.61
2104126,0.688568,0.465064,0.125416,-226.660004,-55.860001,128.520004,20.61
2104137,0.706624,0.438224,0.191784,-236.389999,-59.150002,125.860001,20.64
2104148,0.672952,0.403088,0.162016,-240.100006,-60.549999,123.690002,20.65
2104159,0.701744,0.327936,0.146400,-243.110001,-64.400002,118.860001,20.65
2104170,0.727608,0.277672,0.244976,-241.080002,-67.900002,111.930000,20.58
2104181,0.758352,0.162016,0.105408,-240.029999,-63.770000,107.379997,20.58
2104192,0.737368,0.043920,0.039528,-226.240005,-63.630001,95.480003,20.60
2104203,0.802272,-0.190808,0.090768,-205.660004,-61.810001,89.739998,20.60
2104215,0.850584,-0.341112,0.086864,-147.770004,-55.790001,84.559998,20.65
2104226,0.849120,-0.316224,0.062464,-108.290001,-48.299999,79.589996,20.58
2104237,0.856440,-0.281088,0.022448,-68.250000,-44.869999,74.760002,20.58
2104248,0.866688,-0.275720,-0.014152,-37.029999,-39.410000,70.980003,20.64
2104259,0.867176,-0.270840,-0.027328,-18.830000,-35.980000,65.730003,20.64
2104270,0.875472,-0.233264,-0.020984,-12.250000,-34.790001,57.959999,20.59
2104281,0.888160,-0.236192,-0.006832,-17.570000,-33.880001,46.759998,20.63
2104292,0.896456,-0.273280,0.024400,-27.860001,-33.110001,37.240002,20.63
2104303,0.906216,-0.303048,0.037088,-37.939999,-30.730000,24.850000,20.62
2104314,0.914024,-0.329400,0.034648,-50.119999,-27.510000,10.990000,20.62
2104325,0.926712,-0.374784,0.012200,-57.470001,-22.680000,-1.190000,20.62
2104337,0.936960,-0.427976,-0.007320,-53.410000,-14.070000,-15.120000,20.61
2104348,0.945256,-0.436272,-0.039040,-45.570000,-3.850000,-25.760000,20.61
2104359,0.960384,-0.431392,-0.057096,-33.529999,10.850000,-36.189999,20.61
2104370,0.953552,-0.487024,-0.079056,-7.350000,18.830000,-45.430000,20.61
2104381,0.955992,-0.503616,-0.082960,30.799999,32.619999,-51.730000,20.64
2104392,0.928664,-0.474336,-0.092232,62.790001,39.549999,-59.570000,20.61
2104403,0.926224,-0.465064,-0.090280,108.290001,47.250000,-69.580002,20.61
2104414,0.904752,-0.397720,-0.095160,147.699997,52.990002,-77.000000,20.64
2104425,0.872544,-0.277184,-0.088816,172.199997,55.580002,-87.919998,20.64
2104436,0.855952,-0.209840,-0.053192,183.610001,57.189999,-98.980003,20.59
2104447,0.843752,-0.148840,-0.005856,193.270004,57.889999,-108.709999,20.57
2104458,0.799832,-0.106872,0.032208,212.940002,59.570000,-117.040001,20.57
2104469,0.767136,-0.030256,0.076128,240.240005,62.230000,-126.769997,20.59
2104480,0.729072,0.105896,0.090280,255.990005,63.349998,-135.309998,20.59
2104491,0.728584,0.152744,0.088816,274.470001,63.560001,-160.440002,20.63
2104502,0.716384,0.204960,0.078568,296.309998,65.800003,-150.500000,20.62
2104513,0.689544,0.308904,0.074176,315.420013,66.430000,-158.339996,20.62
2104524,0.689544,0.351360,0.072224,352.450012,65.519997,-167.160004,20.59
2104535,0.713456,0.488000,0.133224,332.779999,61.389999,-156.940002,20.59
2104546,0.615856,0.610000,-0.003904,357.559998,60.689999,-170.029999,20.59
2104557,0.584136,0.776896,-0.005368,327.670013,50.959999,-167.929993,20.59
2104568,0.550952,0.747616,-0.011224,315.559998,43.889999,-168.419998,20.61
2104579,0.532408,0.816912,-0.009272,299.250000,37.590000,-163.240005,20.64
2104589,0.464576,0.983320,-0.047824,272.440002,29.049999,-156.660004,20.64
2104600,0.469456,1.201456,-0.061976,216.440002,14.910000,-142.169998,20.57
2104611,0.442128,1.328336,-0.067832,170.100006,8.050000,-133.419998,20.57
2104622,0.514840,1.327360,-0.121024,112.839996,3.360000,-121.029999,20.59
2104632,0.528992,1.359568,-0.189832,82.459999,5.600000,-104.019997,20.59
2104643,0.541192,1.522072,-0.217160,45.779999,6.230000,-85.400002,20.64
2104654,0.564128,1.560624,-0.180072,21.629999,3.920000,-75.669998,20.59
2104665,0.572912,1.544032,-0.143472,14.280000,6.790000,-62.650002,20.59
2104676,0.566080,1.508408,-0.079544,12.810000,8.960000,-48.160000,20.59
2104687,0.584136,1.468392,-0.012688,13.020000,7.420000,-34.160000,20.59
2104698,0.590968,1.468392,0.016592,13.650000,7.000000,-20.160000,20.58
2104709,0.587552,1.518656,0.027328,8.330000,3.850000,-1.680000,20.60
2104720,0.604632,1.496208,0.014152,-2.730000,1.400000,12.040000,20.60
2104731,0.603168,1.460584,0.009760,-16.030001,-0.700000,30.309999,20.61
2104742,0.605120,1.403976,0.023912,-27.020000,-3.150000,46.900002,20.61
2104753,0.606096,1.371280,0.022448,-44.869999,-4.130000,59.919998,20.59
2104764,0.605120,1.354200,-0.019032,-67.550003,-5.530000,69.790001,20.62
2104775,0.598776,1.298080,-0.036112,-107.309998,-9.100000,78.680000,20.62
2104785,0.597800,1.265872,-0.032208,-118.230003,-11.830000,86.589996,20.63
2104796,0.585112,1.223904,-0.029768,-149.449997,-15.260000,91.000000,20.63
2104807,0.574376,1.072136,-0.009760,-174.580002,-19.389999,94.989998,20.64
2104819,0.578768,0.972584,0.029280,-190.820007,-22.330000,97.089996,20.64
2104830,0.569984,0.953552,0.069296,-211.190002,-27.090000,98.489998,20.60
2104841,0.581208,0.911584,0.099064,-226.449997,-34.930000,100.940002,20.61
2104851,0.623176,0.828136,0.108336,-233.309998,-39.480000,102.129997,20.61
2104862,0.610488,0.767624,0.118096,-236.110001,-40.880001,109.970001,20.61
2104873,0.620248,0.674904,0.110776,-219.869995,-40.529999,113.400002,20.61
2104884,0.628544,0.675880,0.200568,-199.779999,-39.200001,118.790001,20.61
2104895,0.644648,0.641720,0.133712,-187.320007,-39.480000,123.690002,20.61
2104906,0.654408,0.602680,0.148352,-178.360001,-45.150002,125.370003,20.61
2104916,0.669048,0.468968,0.093696,-170.729996,-46.830002,119.279999,20.60
2104927,0.700280,0.470432,0.146400,-166.250000,-48.860001,125.650002,20.60
2104938,0.715408,0.433832,0.134200,-167.020004,-47.389999,124.529999,20.60
2104949,0.729072,0.438224,0.126880,-174.020004,-47.040001,122.150002,20.60
2104960,0.726144,0.409432,0.132736,-187.320007,-47.180000,118.370003,20.60
2104971,0.734928,0.276208,0.154696,-190.610001,-46.549999,113.400002,20.57
2104982,0.791536,0.247904,0.321592,-182.979996,-48.860001,106.889999,20.57
2104993,0.755424,0.121024,0.149816,-180.389999,-44.450001,101.639999,20.60
2105004,0.773480,0.080032,0.131760,-168.910004,-44.380001,96.040001,20.60
2105015,0.778360,-0.010248,0.075640,-150.080002,-44.520000,84.910004,20.61
2105026,0.837896,-0.066856,0.100040,-133.559998,-39.900002,84.769997,20.56
2105037,0.840336,-0.102480,0.087352,-117.599998,-38.290001,79.309998,20.56
2105048,0.853024,-0.109312,0.106384,-111.790001,-38.080002,74.339996,20.58
2105059,0.854000,-0.137616,0.119560,-110.110001,-38.500000,68.599998,20.58
2105070,0.850584,-0.179096,0.137128,-110.949997,-40.320000,61.740002,20.60
2105081,0.857416,-0.198128,0.135176,-114.730003,-41.299999,53.480000,20.59
2105092,0.874008,-0.230336,0.130296,-120.050003,-40.950001,46.130001,20.59
2105103,0.891576,-0.318664,0.102480,-116.620003,-37.520000,34.369999,20.61
2105114,0.909144,-0.381128,0.079544,-106.050003,-32.759998,25.200001,20.61
2105125,0.925248,-0.407968,0.044896,-88.830002,-24.990000,13.510000,20.61
2105141,0.962824,-0.388448,-0.010248,-63.630001,-14.770000,-4.340000,20.58
2105152,0.941840,-0.426512,-0.032696,-45.009998,-1.260000,-13.650000,20.58
2105163,0.943792,-0.410896,-0.044896,-28.139999,3.850000,-24.920000,20.56
2105174,0.942816,-0.443592,-0.026352,-2.030000,12.950000,-33.110001,20.59
2105185,0.917440,-0.414312,-0.027816,17.920000,19.600000,-42.070000,20.59
2105196,0.907680,-0.362096,-0.031232,32.060001,25.690001,-51.799999,20.61
2105207,0.913048,-0.362584,-0.033184,51.799999,30.940001,-60.900002,20.61
2105218,0.910120,-0.325496,-0.031720,72.660004,36.820000,-72.029999,20.62
2105229,0.903776,-0.329888,-0.016104,94.919998,44.029999,-84.139999,20.62
2105241,0.870592,-0.256688,0.004880,119.980003,50.959999,-94.290001,20.56
2105253,0.865712,-0.298168,0.004392,155.820007,59.570000,-105.769997,20.64
2105264,0.850584,-0.216184,0.001952,175.910004,68.879997,-114.800003,20.64
2105275,0.816424,-0.153232,-0.009272,207.410004,73.849998,-123.199997,20.62
2105286,0.778360,-0.026840,0.000488,227.639999,78.889999,-132.020004,20.62
2105296,0.744200,0.113216,0.003416,233.520004,80.779999,-139.789993,20.58
2105307,0.720288,0.151768,0.051728,244.160004,78.820000,-145.600006,20.59
2105318,0.706624,0.231312,0.106872,254.169998,79.730003,-153.160004,20.59
2105329,0.664168,0.265472,0.170312,291.130005,79.379997,-162.190002,20.59
2105340,0.643184,0.452376,0.282064,314.230011,76.230003,-155.470001,20.59
2105350,0.519720,0.681736,0.239120,345.100006,70.279999,-167.369995,20.58
2105361,0.510448,0.747616,0.218624,362.600006,62.230000,-169.820007,20.56
2105372,0.534360,0.772992,0.129320,364.769989,56.070000,-172.059998,20.56
2105382,0.542168,0.812520,0.020008,360.989990,55.020000,-168.070007,20.60
2105393,0.527528,0.804712,-0.083448,353.429993,48.020000,-173.110001,20.60
2105404,0.514840,0.921344,-0.122000,332.220001,47.320000,-167.160004,20.59
2105415,0.434320,1.134112,-0.151280,276.500000,42.070000,-158.830002,20.59
2105425,0.404552,1.333216,-0.167872,232.820007,33.320000,-138.880005,20.61
2105436,0.370880,1.531832,-0.138592,169.539993,23.030001,-118.650002,20.61
2105447,0.383568,1.555744,-0.098576,117.320000,11.760000,-103.529999,20.61
2105458,0.427000,1.513288,-0.042456,91.000000,4.060000,-88.059998,20.61
2105469,0.439688,1.441064,-0.025864,73.989998,0.910000,-78.680000,20.61
2105479,0.466528,1.358104,-0.088328,66.290001,3.360000,-74.760002,20.58
2105490,0.498248,1.355664,-0.193248,60.340000,10.430000,-60.759998,20.58
2105501,0.510448,1.470344,-0.218624,48.230000,14.350000,-50.049999,20.66
2105512,0.511912,1.584536,-0.180560,32.619999,18.200001,-33.040001,20.59
2105523,0.511424,1.572824,-0.091256,25.620001,14.770000,-15.050000,20.59
2105534,0.503616,1.557696,-0.017568,16.520000,10.570000,3.150000,20.57
2105545,0.527528,1.523536,0.013176,4.760000,3.710000,17.290001,20.57
2105555,0.543632,1.491328,0.013176,-7.000000,0.700000,34.090000,20.62
2105566,0.538752,1.471808,-0.010736,-25.900000,-2.310000,47.040001,20.61
2105577,0.538264,1.441552,-0.041968,-45.080002,-3.570000,59.220001,20.61
2105588,0.544608,1.362496,-0.036112,-63.980000,-3.850000,68.529999,20.59
2105599,0.528504,1.342488,-0.026352,-79.589996,-5.600000,75.180000,20.59
2105610,0.525576,1.293200,-0.007808,-92.680000,-7.000000,80.989998,20.60
2105620,0.531432,1.234152,-0.001952,-105.769997,-7.420000,87.150002,20.60
2105631,0.531432,1.171688,-0.002440,-119.070000,-10.710000,96.669998,20.63
2105642,0.525576,1.086776,-0.002928,-123.339996,-14.770000,98.209999,20.60
2105653,0.538752,1.002352,0.011224,-128.449997,-15.960000,104.160004,20.60
2105664,0.549976,0.979416,0.004392,-134.889999,-17.990000,112.629997,20.62
2105675,0.547536,0.959896,-0.002440,-148.960007,-21.910000,118.930000,20.62
2105686,0.560224,0.940864,-0.010736,-163.589996,-24.290001,125.019997,20.58
2105697,0.557784,0.913048,0.003416,-188.160004,-27.650000,130.410004,20.61
2105709,0.566568,0.876448,0.050752,-213.149994,-32.270000,132.649994,20.61
2105720,0.589016,0.834480,0.053192,-238.559998,-35.209999,136.360001,20.61
2105731,0.595360,0.792024,0.059048,-257.950012,-40.389999,137.199997,20.61
2105742,0.595360,0.664656,0.099064,-286.299988,-47.599998,135.800003,20.62
2105753,0.612928,0.519720,0.155672,-305.619995,-55.790001,130.059998,20.60
2105765,0.609512,0.452376,0.259616,-311.570007,-61.669998,130.690002,20.60
2105776,0.634400,0.475312,0.216672,-320.809998,-66.849998,133.210007,20.59
2105787,0.699304,0.447008,0.316224,-322.000000,-74.339996,131.110001,20.59
2105798,0.685152,0.275720,0.167384,-299.950012,-75.320000,127.120003,20.58
2105808,0.727120,0.185440,0.175192,-285.880005,-75.739998,128.169998,20.61
2105819,0.756400,0.100528,0.144448,-253.679993,-73.639999,123.269997,20.61
2105830,0.773480,0.077592,0.067344,-214.199997,-69.650002,119.559998,20.63
2105841,0.777872,0.026352,0.033184,-176.470001,-64.540001,113.190002,20.63
2105852,0.806176,-0.086376,-0.003904,-146.720001,-57.610001,103.739998,20.60
2105865,0.820816,-0.159576,-0.009272,-105.070000,-50.259998,91.489998,20.61
2105876,0.823744,-0.172752,0.000976,-79.589996,-44.939999,82.529999,20.61
2105888,0.839360,-0.208864,0.011224,-63.209999,-40.950001,70.910004,20.62
2105899,0.855464,-0.279624,0.025376,-54.459999,-36.959999,59.080002,20.62
2105910,0.866688,-0.340624,0.043432,-44.169998,-33.459999,47.529999,20.59
2105922,0.875472,-0.371368,0.042944,-30.590000,-28.700001,35.770000,20.61
2105933,0.893528,-0.395280,0.017080,-18.760000,-23.940001,23.450001,20.61
2105946,0.877424,-0.442128,-0.036600,-1.610000,-16.730000,0.980000,20.55
2105957,0.958432,-0.466528,-0.045384,3.500000,-5.670000,-3.990000,20.55
2105968,0.925736,-0.498736,-0.069296,15.400000,3.780000,-17.290001,20.61
2105979,0.936472,-0.493368,-0.054168,25.480000,11.900000,-28.350000,20.58
2105991,0.941840,-0.529968,-0.026840,39.130001,22.330000,-40.389999,20.58
2106002,0.904264,-0.583160,-0.020984,70.769997,30.520000,-55.790001,20.57
2106014,0.868152,-0.548512,-0.012688,107.029999,38.290001,-67.690002,20.59
2106027,0.838384,-0.448472,-0.017568,140.000000,43.610001,-83.720001,20.59
2106038,0.830576,-0.370880,-0.007808,170.029999,47.459999,-94.570000,20.60
2106049,0.784704,-0.292312,-0.016104,198.729996,51.869999,-104.089996,20.60
2106060,0.750544,-0.174704,-0.026352,224.559998,56.000000,-115.010002,20.59
2106070,0.732488,0.020984,-0.020496,236.600006,57.540001,-122.989998,20.59
2106081,0.731024,0.133224,-0.002440,241.429993,56.419998,-131.529999,20.59
2106092,0.744688,0.199104,0.000000,245.279999,58.310001,-140.770004,20.61
2106104,0.708576,0.224968,0.000976,259.980011,59.430000,-149.449997,20.61
2106115,0.728584,0.265960,0.065880,272.929993,60.340000,-156.309998,20.61
2106126,0.642208,0.386984,0.041968,306.179993,61.669998,-162.119995,20.59
2106137,0.589992,0.524600,0.044408,326.339996,61.880001,-168.419998,20.59
2106148,0.569984,0.536800,-0.025376,343.839996,63.630001,-168.979996,20.62
2106158,0.569984,0.643672,-0.096136,334.109985,57.610001,-168.070007,20.62
2106169,0.526064,0.753472,0.021960,318.290009,50.189999,-169.960007,20.57
2106180,0.505568,0.848144,0.028304,286.929993,45.220001,-165.410004,20.57
2106191,0.468480,0.863760,-0.012688,266.000000,41.930000,-166.529999,20.63
2106202,0.479704,0.965264,-0.072224,233.589996,40.250000,-156.240005,20.61
2106212,0.461648,0.994544,-0.154696,198.869995,35.349998,-154.070007,20.61
2106223,0.490928,1.034072,-0.192760,161.000000,32.410000,-147.770004,20.59
2106236,0.451888,1.259040,-0.195688,115.989998,32.619999,-129.850006,20.59
2106247,0.436760,1.404464,-0.127368,76.300003,21.139999,-117.320000,20.64
2106258,0.454328,1.481568,-0.047336,57.610001,15.330000,-101.080002,20.62
2106269,0.450424,1.534760,0.020984,39.970001,9.800000,-84.070000,20.62
2106279,0.471408,1.552328,0.060512,29.820000,4.130000,-76.300003,20.64
2106290,0.496784,1.497184,0.027816,30.520000,4.130000,-64.470001,20.64
2106301,0.533872,1.448872,-0.039040,32.619999,8.750000,-54.880001,20.59
2106312,0.535824,1.463024,-0.087840,27.160000,15.820000,-41.860001,20.59
2106323,0.521184,1.650416,-0.065392,14.210000,14.700000,-20.160000,20.61
2106334,0.531920,1.701168,0.030256,-7.700000,12.040000,0.840000,20.58
2106345,0.534848,1.583072,0.095648,-19.040001,4.690000,16.170000,20.58
2106356,0.528504,1.498160,0.149816,-22.959999,-2.590000,32.549999,20.64
2106367,0.532896,1.455704,0.153232,-29.190001,-7.700000,44.029999,20.64
2106377,0.542168,1.376648,0.129320,-35.349998,-11.130000,52.080002,20.62
2106388,0.554856,1.316136,0.076128,-39.549999,-9.870000,60.480000,20.63
2106399,0.549976,1.306376,0.020496,-52.360001,-9.730000,67.970001,20.63
2106410,0.537288,1.317112,-0.000976,-73.290001,-10.990000,75.459999,20.55
2106421,0.538752,1.234152,0.011224,-83.370003,-11.340000,81.690002,20.55
2106432,0.534360,1.145336,0.029280,-87.639999,-9.380000,86.029999,20.57
2106443,0.521184,1.042368,0.072224,-86.029999,-11.200000,92.540001,20.61
2106454,0.540216,1.019432,0.101992,-85.400002,-17.219999,93.940002,20.61
2106465,0.545096,0.986736,0.109312,-85.260002,-17.570000,99.330002,20.62
2106476,0.543632,0.970632,0.095648,-92.540001,-21.629999,107.239998,20.62
2106487,0.548024,0.960872,0.047336,-105.980003,-26.320000,111.510002,20.58
2106497,0.554368,0.964288,0.009760,-130.479996,-28.840000,117.459999,20.58
2106508,0.557784,0.941840,-0.019520,-161.210007,-29.260000,120.400002,20.56
2106519,0.571936,0.893040,0.003904,-188.649994,-29.959999,121.940002,20.60
2106530,0.576328,0.850096,0.045872,-211.539993,-31.080000,122.639999,20.60
2106541,0.560224,0.689544,0.076128,-215.320007,-35.770000,119.070000,20.59
2106552,0.595848,0.586576,0.143472,-217.839996,-43.259998,118.580002,20.59
2106563,0.588528,0.574376,0.220576,-210.699997,-43.189999,117.389999,20.60
2106574,0.610976,0.544120,0.165432,-216.789993,-47.950001,118.580002,20.55
2106584,0.628544,0.485560,0.144448,-222.250000,-52.779999,117.529999,20.55
2106595,0.656360,0.436272,0.119072,-228.619995,-57.330002,116.970001,20.57
2106606,0.685640,0.389912,0.113216,-236.809998,-59.360001,117.389999,20.57
2106617,0.693448,0.382104,0.093696,-242.410004,-61.950001,115.849998,20.59
2106628,0.719800,0.366000,0.114680,-247.449997,-63.840000,113.190002,20.59
2106638,0.729560,0.294752,0.140056,-251.300003,-64.050003,112.279999,20.58
2106649,0.727608,0.179096,0.158600,-244.440002,-65.519997,105.139999,20.56
2106660,0.739320,0.103944,0.185928,-236.179993,-68.110001,99.959999,20.56
2106671,0.759816,0.033672,0.152256,-222.880005,-67.970001,90.720001,20.61
2106682,0.797880,-0.015128,0.116144,-209.789993,-68.599998,82.949997,20.61
2106693,0.827160,-0.064416,0.085888,-198.589996,-65.379997,73.779999,20.58
2106704,0.855464,-0.154208,0.055144,-184.800003,-61.459999,65.589996,20.55
2106715,0.886696,-0.203984,0.097112,-171.990005,-57.610001,54.880001,20.55
2106726,0.889136,-0.305488,0.009760,-142.100006,-50.189999,45.639999,20.54
2106737,0.912072,-0.453840,0.020984,-97.580002,-43.750000,33.320000,20.54
2106748,0.934520,-0.512888,-0.046848,-58.520000,-31.010000,21.700001,20.55
2106759,0.937448,-0.507520,-0.056608,-15.890000,-21.770000,11.620000,20.55
2106770,0.931592,-0.473360,-0.033672,16.379999,-13.510000,1.680000,20.58
2106780,0.921832,-0.451400,-0.012200,34.230000,-5.320000,-8.820000,20.59
2106791,0.914512,-0.462136,0.011224,53.200001,-1.400000,-21.420000,20.59
2106802,0.908168,-0.447496,0.024888,67.129997,4.480000,-32.270000,20.58
2106813,0.905240,-0.433832,0.010248,80.150002,10.850000,-46.619999,20.58
2106824,0.903776,-0.406992,-0.019032,94.430000,15.890000,-60.200001,20.61
2106835,0.887184,-0.349896,-0.019032,106.680000,22.469999,-70.980003,20.54
2106846,0.856928,-0.253272,-0.013664,113.260002,28.840000,-83.160004,20.54
2106857,0.865224,-0.230824,-0.012688,126.489998,34.439999,-95.410004,20.57
2106868,0.872544,-0.210328,-0.025376,146.929993,41.580002,-103.879997,20.57
2106879,0.835944,-0.124440,-0.041968,170.029999,49.630001,-112.910004,20.59
2106890,0.810080,-0.038552,-0.053680,188.229996,54.529999,-119.209999,20.59
2106900,0.790560,0.000976,-0.062952,216.789993,60.270000,-123.900002,20.61
2106911,0.756888,0.135664,-0.064904,237.649994,67.199997,-128.660004,20.58
2106922,0.744200,0.249856,-0.002440,252.000000,69.089996,-133.419998,20.58
2106933,0.664168,0.344528,-0.026840,294.350006,70.839996,-138.179993,20.58
2106944,0.650504,0.447984,-0.004880,316.959991,68.949997,-141.820007,20.58
2106955,0.661240,0.477264,0.021960,332.429993,69.089996,-145.809998,20.62
2106966,0.646600,0.508496,0.023912,336.769989,62.160000,-152.320007,20.58
2106976,0.646600,0.489464,0.029280,341.739990,57.189999,-158.339996,20.58
2106987,0.618784,0.514840,0.004880,341.809998,57.049999,-161.490005,20.58
2106998,0.550952,0.700768,-0.039528,323.470001,54.040001,-161.350006,20.58
2107009,0.506544,0.914512,-0.124440,305.130005,44.730000,-155.889999,20.59
2107019,0.509960,1.096048,-0.189344,271.109985,42.070000,-147.699997,20.59
2107030,0.499224,1.213168,-0.203496,237.929993,32.900002,-141.399994,20.62
2107043,0.475800,1.298080,-0.155672,179.410004,23.520000,-134.330002,20.57
2107054,0.518744,1.325896,-0.094184,128.660004,19.670000,-124.739998,20.57
2107065,0.476776,1.349320,-0.082960,89.529999,15.330000,-114.800003,20.54
2107076,0.473848,1.382992,-0.081496,57.610001,12.110000,-103.180000,20.54
2107087,0.507032,1.356152,-0.103944,36.540001,13.440000,-92.050003,20.57
2107098,0.491904,1.418128,-0.145424,29.959999,17.709999,-79.730003,20.55
2107109,0.481168,1.497672,-0.155672,22.049999,17.990000,-59.430000,20.55
2107119,0.504592,1.536224,-0.122976,14.280000,14.140000,-46.759998,20.59
2107130,0.512888,1.569408,-0.073200,7.980000,10.570000,-28.280001,20.59
2107141,0.523136,1.559160,-0.007320,-2.660000,4.620000,-9.310000,20.58
2107152,0.547048,1.504992,0.035624,-11.690000,2.450000,4.060000,20.55
2107163,0.551928,1.477664,0.050264,-21.070000,2.310000,20.790001,20.55
2107174,0.550952,1.415688,0.057096,-31.010000,1.330000,32.340000,20.57
2107184,0.536312,1.380552,0.039528,-40.250000,1.330000,44.660000,20.57
2107195,0.529480,1.342976,0.008784,-53.130001,-1.190000,55.160000,20.58
2107206,0.537776,1.348344,0.003416,-76.300003,-4.690000,62.509998,20.58
2107217,0.549000,1.291736,0.017568,-96.180000,-7.840000,71.540001,20.57
2107227,0.555832,1.190232,0.044408,-107.800003,-10.500000,77.839996,20.58
2107238,0.529480,1.146800,0.064416,-113.330002,-11.620000,82.320000,20.58
2107249,0.536312,1.097024,0.061000,-121.379997,-17.500000,87.639999,20.58
2107260,0.546072,1.057984,0.053680,-132.300003,-20.370001,92.050003,20.58
2107271,0.555832,0.920856,0.064416,-136.009995,-24.990000,94.709999,20.59
2107281,0.569008,0.828624,0.078080,-135.520004,-26.530001,92.750000,20.59
2107292,0.579256,0.835456,0.098576,-138.809998,-25.830000,96.739998,20.60
2107303,0.575840,0.872056,0.092232,-161.279999,-27.510000,102.550003,20.59
2107314,0.584136,0.894992,0.089792,-154.210007,-29.190001,108.500000,20.59
2107325,0.596336,0.900848,0.090280,-172.059998,-32.270000,113.959999,20.60
2107335,0.595848,0.895968,0.097112,-188.509995,-36.330002,118.650002,20.60
2107346,0.618784,0.878888,0.139568,-207.899994,-42.000000,118.790001,20.59
2107357,0.621712,0.725168,0.146400,-221.479996,-45.430000,119.349998,20.59
2107368,0.633912,0.626104,0.179584,-231.559998,-47.669998,114.870003,20.66
2107379,0.655384,0.551928,0.160064,-238.770004,-50.889999,111.019997,20.61
2107390,0.666120,0.495320,0.140056,-242.339996,-52.290001,109.620003,20.61
2107401,0.652456,0.459208,0.115656,-229.039993,-54.110001,108.010002,20.61
2107412,0.707112,0.424560,0.125904,-233.449997,-52.290001,106.820000,20.61
2107422,0.691984,0.244000,0.064416,-188.789993,-49.490002,95.970001,20.61
2107433,0.740784,0.223992,0.158112,-180.529999,-47.950001,101.290001,20.54
2107444,0.759328,0.203496,0.154208,-160.509995,-46.689999,99.120003,20.54
2107455,0.788120,0.156160,0.145912,-147.630005,-46.130001,95.550003,20.54
2107466,0.803248,0.107360,0.141520,-137.339996,-46.410000,92.750000,20.54
2107477,0.809104,0.085888,0.164456,-133.839996,-49.000000,90.720001,20.58
2107488,0.820328,0.038552,0.167872,-131.740005,-50.189999,85.400002,20.58
2107498,0.831552,-0.014640,0.179584,-131.179993,-50.400002,79.309998,20.59
2107509,0.839360,-0.103944,0.187392,-125.019997,-49.700001,71.959999,20.58
2107520,0.860832,-0.210328,0.164944,-110.529999,-44.799999,61.250000,20.58
2107531,0.910120,-0.253272,0.119560,-96.669998,-43.400002,49.840000,20.62
2107542,0.901336,-0.282552,0.059048,-78.400002,-33.529999,42.840000,20.62
2107554,0.890112,-0.303048,0.061000,-63.980000,-27.719999,29.400000,20.59
2107566,0.909144,-0.402112,0.065392,-40.880001,-16.379999,13.090000,20.57
2107578,0.926712,-0.470920,0.083936,-5.320000,-9.730000,-1.260000,20.57
2107589,0.919880,-0.461648,0.047824,29.540001,-0.560000,-10.780000,20.61
2107600,0.892552,-0.451400,0.033184,65.730003,5.250000,-20.719999,20.59
2107612,0.905728,-0.428464,0.035624,99.050003,11.130000,-31.290001,20.59
2107625,0.897432,-0.334768,0.048312,124.040001,14.700000,-41.650002,20.60
2107637,0.894992,-0.310368,0.096136,143.360001,17.150000,-52.849998,20.60
2107648,0.858880,-0.185928,0.125904,148.470001,18.690001,-62.650002,20.57
2107659,0.839848,-0.132736,0.123464,152.740005,19.250000,-89.529999,20.59
2107670,0.840336,-0.127856,0.130784,163.729996,22.330000,-80.989998,20.59
2107680,0.819352,-0.057584,0.091744,173.039993,25.200001,-91.139999,20.58
2107692,0.829112,-0.023912,0.078080,197.470001,30.940001,-101.010002,20.58
2107702,0.812032,0.039040,0.029768,221.479996,36.959999,-107.449997,20.57
2107713,0.795440,0.159088,-0.002928,238.279999,41.650002,-113.400002,20.57
2107724,0.780800,0.286944,-0.029768,250.949997,43.189999,-117.879997,20.57
2107735,0.768600,0.386496,-0.010248,257.600006,44.099998,-122.570000,20.58
2107746,0.744688,0.520696,0.000488,259.700012,43.189999,-122.010002,20.58
2107757,0.708576,0.505080,0.006832,270.059998,44.380001,-126.839996,20.59
2107767,0.718336,0.474824,0.007808,283.989990,40.180000,-130.970001,20.59
2107778,0.702720,0.421144,-0.033672,309.609985,45.500000,-138.529999,20.55
2107789,0.667584,0.454816,-0.061488,317.660004,43.259998,-143.220001,20.61
2107800,0.642696,0.576816,-0.090280,301.489990,39.549999,-144.410004,20.61
2107811,0.624640,0.707112,-0.090768,277.619995,31.990000,-144.690002,20.60
2107822,0.601704,0.745664,-0.065880,248.990005,26.950001,-141.470001,20.60
2107833,0.592920,0.835456,-0.070760,211.610001,22.540001,-138.179993,20.59
2107844,0.533872,1.060424,-0.147376,181.440002,18.270000,-130.970001,20.61
2107855,0.534360,1.165832,-0.159576,134.470001,12.600000,-123.480003,20.61
2107866,0.560712,1.158512,-0.157136,92.959999,14.420000,-115.500000,20.61
2107877,0.531920,1.173152,-0.178608,73.430000,17.709999,-112.559998,20.61
2107888,0.550952,1.133624,-0.177632,48.930000,18.200001,-106.120003,20.61
2107899,0.541680,1.177544,-0.171776,35.419998,19.389999,-97.230003,20.57
2107910,0.529968,1.247816,-0.146400,30.520000,21.070000,-90.720001,20.57
2107921,0.513376,1.369816,-0.095648,28.420000,16.100000,-77.910004,20.54
2107932,0.505568,1.410808,-0.062952,25.900000,13.440000,-63.279999,20.54
2107943,0.519720,1.437160,-0.026840,20.440001,8.820000,-49.560001,20.62
2107954,0.514840,1.465464,0.002440,13.790000,4.900000,-33.320000,20.62
2107965,0.520208,1.496696,0.010736,1.330000,2.520000,-15.050000,20.57
2107976,0.533872,1.462048,0.019520,-9.660000,1.820000,-2.030000,20.58
2107987,0.532896,1.451800,0.023912,-19.670000,2.310000,13.510000,20.58
2107998,0.544120,1.427888,0.022936,-29.680000,2.590000,26.110001,20.56
2108010,0.544608,1.351760,0.031232,-38.919998,2.030000,35.910000,20.56
2108021,0.541192,1.321016,0.025376,-49.139999,0.280000,45.500000,20.61
2108032,0.540216,1.294664,0.004880,-64.120003,-3.500000,52.009998,20.59
2108043,0.542656,1.222440,-0.006832,-74.900002,-7.420000,60.900002,20.59
2108054,0.549000,1.161440,-0.013664,-88.410004,-12.180000,70.910004,20.61
2108065,0.539240,1.126304,-0.005368,-98.769997,-14.210000,76.720001,20.61
2108076,0.529480,1.091168,0.018056,-112.139999,-19.809999,83.580002,20.63
2108087,0.550952,0.998936,0.042456,-116.690002,-23.240000,89.389999,20.61
2108098,0.562664,0.934520,0.043432,-116.199997,-21.139999,95.339996,20.61
2108109,0.565592,0.935496,0.040992,-122.010002,-22.260000,100.519997,20.55
2108120,0.578768,0.937936,0.040992,-134.679993,-23.379999,103.879997,20.55
2108131,0.569496,0.922320,-0.024888,-143.009995,-22.190001,106.050003,20.58
2108142,0.583160,0.935008,0.002928,-172.059998,-25.410000,116.059998,20.61
2108154,0.570960,0.928176,0.076616,-198.309998,-34.439999,119.910004,20.61
2108165,0.599264,0.897432,0.075152,-239.889999,-38.290001,122.150002,20.57
2108176,0.604632,0.789096,0.062952,-266.000000,-46.200001,121.099998,20.57
2108187,0.629032,0.642208,0.168848,-279.720001,-53.970001,117.180000,20.60
2108198,0.652944,0.530944,0.229848,-273.839996,-59.080002,114.029999,20.57
2108209,0.620248,0.521184,0.232288,-261.589996,-60.410000,111.510002,20.57
2108220,0.654408,0.487024,0.229360,-253.330002,-65.589996,113.889999,20.58
2108231,0.707600,0.415776,0.210328,-235.410004,-66.849998,112.349998,20.58
2108242,0.715896,0.388936,0.178608,-220.500000,-67.199997,110.949997,20.53
2108253,0.748104,0.325984,0.078568,-215.669998,-64.400002,110.110001,20.53
2108264,0.767136,0.066368,0.041968,-196.139999,-63.000000,97.230003,20.58
2108275,0.811544,0.025376,0.104920,-168.000000,-59.220001,100.379997,20.60
2108286,0.800808,0.111752,0.111752,-150.220001,-56.560001,99.190002,20.60
2108297,0.818864,0.155672,0.114192,-143.850006,-58.660000,95.760002,20.62
2108308,0.834968,0.053680,0.141032,-127.540001,-58.380001,90.370003,20.62
2108319,0.829600,0.010736,0.162504,-115.290001,-57.330002,83.440002,20.59
2108330,0.824720,-0.001464,0.148840,-106.680000,-56.980000,75.110001,20.57
2108341,0.857416,-0.089304,0.117608,-100.660004,-53.410000,63.490002,20.57
2108352,0.888160,-0.200568,0.064416,-93.449997,-48.580002,52.150002,20.60
2108363,0.918416,-0.218624,-0.053680,-90.650002,-42.490002,26.459999,20.60
2108374,0.933056,-0.193248,0.063440,-94.639999,-39.200001,35.700001,20.57
2108385,0.918904,-0.212280,0.078568,-95.410004,-32.200001,27.299999,20.57
2108396,0.928664,-0.354776,0.040504,-78.610001,-27.440001,15.610000,20.57
2108407,0.949160,-0.439688,0.029280,-40.389999,-17.080000,6.300000,20.60
2108418,0.941352,-0.397232,-0.004880,-2.940000,-6.580000,-3.920000,20.60
2108429,0.937448,-0.370392,-0.022448,23.660000,2.380000,-15.260000,20.59
2108441,0.935496,-0.350872,-0.016592,51.099998,8.680000,-22.959999,20.57
2108452,0.909144,-0.289872,0.004880,66.150002,10.780000,-30.100000,20.57
2108462,0.904264,-0.230336,0.018544,69.510002,13.020000,-39.340000,20.60
2108473,0.905240,-0.196664,0.028792,68.110001,15.470000,-48.790001,20.60
2108484,0.889136,-0.197640,0.033672,71.260002,19.459999,-57.680000,20.56
2108495,0.882304,-0.274256,0.036112,100.379997,26.320000,-69.160004,20.56
2108506,0.863760,-0.215696,0.035136,125.440002,32.689999,-78.470001,20.60
2108517,0.849120,-0.186904,0.005856,163.380005,39.759998,-87.010002,20.55
2108528,0.859856,-0.223992,0.002928,213.639999,49.209999,-96.529999,20.55
2108539,0.835944,-0.089792,-0.023424,245.839996,56.770000,-104.440002,20.61
2108550,0.805200,0.007808,0.005368,282.519989,58.590000,-113.260002,20.61
2108561,0.777384,0.077592,0.039040,315.769989,59.639999,-117.110001,20.61
2108572,0.746152,0.339648,0.071248,315.209991,55.509998,-118.370003,20.58
2108582,0.707600,0.470432,0.081984,310.170013,47.740002,-122.080002,20.58
2108593,0.732000,0.465064,0.059048,314.929993,42.770000,-126.419998,20.59
2108604,0.778360,0.396744,0.105408,315.070007,38.570000,-127.190002,20.59
2108615,0.684176,0.478728,-0.013664,343.000000,38.430000,-137.270004,20.58
2108626,0.696376,0.508008,-0.075640,351.049988,33.740002,-144.619995,20.58
2108637,0.684664,0.559248,-0.111752,341.459991,34.580002,-149.449997,20.59
2108648,0.623176,0.641720,-0.170312,308.420013,32.200001,-146.860001,20.60
2108659,0.599752,0.697352,-0.170312,264.529999,21.209999,-147.419998,20.60
2108670,0.587064,0.702232,-0.134688,233.169998,19.600000,-150.149994,20.56
2108680,0.564616,0.774944,-0.233752,204.190002,19.250000,-127.750000,20.56
2108691,0.491904,1.042368,-0.274256,143.360001,13.160000,-135.729996,20.56
2108702,0.529968,1.101416,-0.226920,96.459999,7.420000,-126.279999,20.50
2108713,0.547536,1.084824,-0.215696,63.139999,9.800000,-115.709999,20.50
2108724,0.511424,1.129232,-0.226432,43.189999,12.460000,-108.080002,20.56
2108735,0.506544,1.208776,-0.207888,34.230000,15.470000,-104.440002,20.56
2108746,0.524600,1.250256,-0.167872,29.959999,15.190000,-97.790001,20.56
2108757,0.518744,1.259040,-0.156648,35.560001,17.430000,-89.739998,20.59
2108768,0.532896,1.289296,-0.155184,40.180000,18.340000,-79.239998,20.59
2108779,0.524600,1.379576,-0.164456,36.470001,19.670000,-67.830002,20.57
2108790,0.546560,1.448384,-0.133712,20.299999,17.219999,-53.200001,20.57
2108801,0.536312,1.517192,-0.100528,-13.790000,14.280000,-35.209999,20.55
2108812,0.526552,1.583560,-0.029768,-17.500000,9.870000,-14.490000,20.55
2108823,0.530456,1.554768,0.008296,-29.610001,7.210000,3.010000,20.52
2108834,0.534848,1.474248,0.040992,-36.400002,5.110000,14.490000,20.57
2108845,0.546560,1.392752,0.083936,-38.919998,2.170000,26.180000,20.57
2108855,0.559248,1.361032,0.077104,-38.500000,2.240000,34.509998,20.57
2108866,0.569496,1.328824,0.040016,-44.450001,0.000000,44.380001,20.57
2108877,0.576328,1.287832,-0.015616,-52.919998,-1.120000,53.619999,20.61
2108888,0.570472,1.264408,-0.030744,-68.180000,-3.430000,63.139999,20.55
2108899,0.556808,1.282464,-0.019520,-89.459999,-7.910000,69.790001,20.55
2108910,0.561688,1.264408,0.009760,-114.660004,-14.910000,81.480003,20.56
2108921,0.540216,1.189256,0.042944,-140.770004,-19.459999,85.750000,20.56
2108932,0.543144,1.040904,0.081496,-146.720001,-23.450001,88.410004,20.55
2108943,0.533384,0.950136,0.074176,-142.660004,-23.660000,88.550003,20.55
2108954,0.549000,0.893528,0.036600,-141.119995,-23.450001,90.930000,20.58
2108965,0.569984,0.858392,-0.004880,-142.869995,-24.430000,92.750000,20.57
2108976,0.582672,0.831552,-0.013176,-150.850006,-23.660000,97.019997,20.57
2108987,0.585600,0.802272,0.008296,-160.789993,-26.459999,99.750000,20.58
2108998,0.600240,0.797880,0.072224,-172.690002,-28.070000,103.879997,20.58
2109009,0.588528,0.774456,0.093696,-185.710007,-32.200001,106.470001,20.57
2109020,0.598288,0.773968,0.137616,-200.550003,-40.040001,110.599998,20.55
2109031,0.601704,0.708576,0.138592,-210.910004,-45.150002,114.169998,20.55
2109042,0.616832,0.645624,0.123464,-221.759995,-46.970001,112.489998,20.58
2109053,0.623664,0.565592,0.109800,-227.710007,-51.660000,111.089996,20.58
2109064,0.643672,0.551440,0.176168,-234.710007,-55.020000,107.870003,20.58
2109075,0.664656,0.479704,0.106384,-234.080002,-53.410000,104.650002,20.60
2109086,0.695888,0.442616,0.107848,-235.830002,-50.049999,102.339996,20.60
2109097,0.709064,0.390888,0.124928,-231.699997,-50.889999,99.889999,20.60
2109108,0.744688,0.323056,0.138592,-226.869995,-51.029999,98.419998,20.60
2109119,0.744200,0.301096,0.171288,-221.899994,-52.709999,95.760002,20.59
2109130,0.760792,0.276696,0.153232,-222.039993,-54.529999,95.129997,20.52
2109141,0.778848,0.232776,0.156648,-223.160004,-57.330002,92.120003,20.52
2109152,0.783240,0.155184,0.164456,-215.110001,-60.130001,86.660004,20.58
2109163,0.836432,-0.012688,0.169336,-195.160004,-56.770000,80.709999,20.58
2109174,0.853024,-0.184952,0.179096,-161.070007,-52.220001,70.070000,20.60
2109185,0.872544,-0.208376,0.162016,-117.669998,-49.139999,64.750000,20.60
2109196,0.873520,-0.187392,0.135176,-81.620003,-42.490002,58.730000,20.57
2109207,0.903776,-0.202520,0.096624,-51.869999,-37.169998,53.270000,20.57
2109218,0.925248,-0.196176,0.066856,-34.020000,-30.590000,47.040001,20.57
2109229,0.928176,-0.161040,0.063440,-23.030001,-26.320000,39.759998,20.59
2109240,0.934032,-0.142008,0.078568,-27.020000,-22.820000,33.180000,20.59
2109251,0.927688,-0.167384,0.101016,-35.279999,-20.370001,24.010000,20.58
2109262,0.923784,-0.222040,0.143472,-38.709999,-18.410000,13.650000,20.58
2109273,0.921344,-0.247416,0.162992,-41.930000,-16.030001,2.800000,20.58
2109284,0.922320,-0.306952,0.152256,-29.680000,-11.760000,-7.140000,20.58
2109295,0.932080,-0.350384,0.132248,-5.740000,-4.970000,-17.780001,20.58
2109306,0.927200,-0.309880,0.100528,11.830000,2.520000,-27.650000,20.61
2109317,0.932080,-0.290848,0.072712,33.810001,10.290000,-52.849998,20.56
2109328,0.948672,-0.293776,0.110288,54.529999,17.010000,-46.549999,20.56
2109339,0.924760,-0.256200,0.040504,68.389999,28.840000,-50.750000,20.61
2109350,0.900848,-0.245952,0.027328,84.070000,31.360001,-59.570000,20.61
2109361,0.893040,-0.275232,0.026840,112.279999,38.500000,-67.059998,20.57
2109372,0.850096,-0.205448,0.012688,144.550003,45.360001,-76.089996,20.57
2109383,0.834480,-0.139568,-0.004880,168.139999,48.439999,-85.820000,20.59
2109394,0.823744,-0.131272,0.005368,206.710007,52.639999,-93.940002,20.57
2109405,0.785192,0.003416,0.034648,226.660004,54.250000,-102.129997,20.57
2109416,0.761280,0.126392,0.086864,232.889999,50.889999,-110.320000,20.57
2109427,0.751032,0.169336,0.146888,237.649994,49.560001,-115.919998,20.57
2109438,0.738344,0.244488,0.166408,237.720001,48.160000,-121.870003,20.55
2109449,0.736392,0.264496,0.138104,249.550003,49.700001,-130.130005,20.55
2109460,0.745664,0.276696,0.082472,277.480011,54.320000,-136.500000,20.55
2109471,0.664656,0.363072,-0.127856,292.880005,60.759998,-141.190002,20.52
2109482,0.687592,0.452864,-0.019032,307.299988,57.540001,-146.229996,20.52
2109493,0.672952,0.543144,-0.039040,309.399994,59.290001,-148.539993,20.59
2109504,0.624640,0.695888,-0.066368,305.269989,57.119999,-149.729996,20.63
2109515,0.558760,0.814960,-0.025864,294.980011,50.189999,-146.160004,20.63
2109526,0.507520,0.854488,0.013664,288.260010,38.360001,-148.470001,20.55
2109536,0.523624,0.895968,0.039040,265.369995,37.450001,-139.509995,20.55
2109547,0.474336,0.950624,0.001464,242.339996,29.049999,-138.250000,20.58
2109558,0.479704,1.061400,-0.040992,212.729996,23.730000,-130.550003,20.58
2109569,0.470432,1.182912,-0.132248,168.070007,24.290001,-120.470001,20.57
2109580,0.495320,1.370304,-0.174216,114.309998,23.030001,-102.199997,20.58
2109591,0.492880,1.543056,-0.190808,75.739998,18.059999,-82.389999,20.58
2109602,0.506056,1.569408,-0.149328,36.680000,15.190000,-67.129997,20.60
2109613,0.530456,1.496696,-0.080520,15.890000,12.670000,-56.000000,20.60
2109624,0.532408,1.449360,-0.023912,11.130000,12.670000,-48.650002,20.56
2109635,0.545096,1.438624,0.013664,9.870000,12.040000,-35.560001,20.61
2109646,0.550464,1.471320,0.041480,8.050000,9.100000,-27.440001,20.61
2109657,0.545584,1.474736,0.051728,6.020000,8.120000,-12.810000,20.61
2109668,0.547048,1.464000,0.018544,-0.070000,4.340000,3.010000,20.61
2109679,0.557784,1.424960,0.005856,-11.620000,1.820000,19.670000,20.57
2109690,0.550952,1.439112,0.018544,-26.950001,-1.750000,32.340000,20.57
2109701,0.561200,1.438624,0.046360,-42.419998,-3.010000,49.349998,20.58
2109712,0.567056,1.330288,0.066368,-60.270000,-7.560000,63.349998,20.58
2109723,0.568032,1.264408,0.086376,-71.959999,-9.870000,70.769997,20.58
2109734,0.565104,1.232688,0.082472,-81.480003,-12.880000,76.440002,20.53
2109745,0.568520,1.178032,0.062464,-90.440002,-14.770000,80.290001,20.53
2109756,0.567544,1.140456,0.048312,-100.800003,-14.910000,83.930000,20.61
2109767,0.570472,1.100928,0.026352,-114.870003,-14.000000,87.500000,20.51
2109778,0.574864,1.073112,0.013176,-131.320007,-17.990000,90.650002,20.51
2109789,0.574376,1.034560,0.028792,-152.809998,-20.230000,95.339996,20.59
2109800,0.575352,0.996496,0.066368,-173.110001,-25.549999,100.309998,20.59
2109811,0.581208,0.930128,0.089304,-185.149994,-29.959999,104.790001,20.60
2109822,0.573888,0.883280,0.124440,-191.869995,-35.700001,109.339996,20.58
2109833,0.579256,0.815448,0.119560,-194.460007,-39.340000,111.930000,20.58
2109844,0.597312,0.760792,0.092720,-193.619995,-40.320000,114.730003,20.57
2109855,0.601704,0.705160,0.071736,-193.619995,-40.459999,116.830002,20.57
2109866,0.607072,0.699304,0.074664,-189.490005,-40.950001,120.260002,20.62
2109877,0.641232,0.663680,0.033672,-203.910004,-39.130001,121.379997,20.57
2109888,0.629520,0.598288,0.094184,-212.800003,-45.009998,121.449997,20.57
2109899,0.641232,0.522648,0.076128,-212.100006,-45.360001,119.629997,20.59
2109910,0.653432,0.524600,0.105408,-221.059998,-46.480000,122.430000,20.59
2109921,0.626104,0.458720,0.101992,-216.649994,-48.369999,116.550003,20.58
2109932,0.696864,0.403576,0.091256,-229.179993,-51.520000,119.980003,20.58
2109943,0.716872,0.296704,0.088328,-229.600006,-52.360001,117.110001,20.60
2109954,0.732976,0.262544,0.123464,-232.190002,-54.040001,112.629997,20.58
2109965,0.761768,0.178120,0.093208,-231.350006,-53.130001,108.849998,20.58
2109976,0.790072,0.028304,0.137128,-222.809998,-54.599998,101.500000,20.60
2109987,0.812032,-0.075640,0.103944,-200.970001,-52.220001,89.389999,20.60
2109998,0.829600,-0.132736,0.160552,-183.960007,-52.779999,90.650002,20.58
2110009,0.839848,-0.165432,0.158600,-169.610001,-51.310001,84.279999,20.55
2110020,0.870592,-0.266936,0.152256,-154.979996,-51.240002,77.699997,20.55
2110031,0.885232,-0.325008,0.163968,-137.270004,-49.349998,71.190002,20.54
2110042,0.896944,-0.335744,0.156648,-127.050003,-48.369999,65.169998,20.54
2110053,0.903776,-0.303536,0.155184,-125.650002,-47.389999,57.259998,20.61
2110064,0.911584,-0.291824,0.130784,-126.209999,-45.430000,49.419998,20.58
2110076,0.917928,-0.309880,0.098088,-122.290001,-42.840000,38.779999,20.58
2110086,0.929640,-0.339648,0.057584,-112.910004,-37.099998,28.350000,20.59
2110097,0.948184,-0.416752,0.009760,-97.019997,-28.559999,13.300000,20.59
2110108,0.962336,-0.488000,-0.022936,-70.209999,-19.600000,-2.730000,20.56
2110120,0.968192,-0.544120,-0.043432,-31.920000,-7.350000,-18.340000,20.56
2110131,0.912560,-0.577792,-0.084424,11.200000,2.240000,-37.730000,20.56
2110142,0.967216,-0.479216,-0.063928,38.009998,15.470000,-40.040001,20.54
2110153,0.930128,-0.432856,-0.061976,60.619999,23.309999,-47.810001,20.54
2110164,0.916464,-0.340624,-0.015128,73.919998,26.180000,-52.220001,20.55
2110175,0.902800,-0.274744,0.035136,74.620003,28.840000,-57.820000,20.55
2110186,0.886208,-0.293776,0.071736,77.349998,29.260000,-67.129997,20.55
2110197,0.880352,-0.260104,0.090768,80.360001,30.450001,-75.459999,20.58
2110208,0.868152,-0.258640,0.087840,91.629997,34.230000,-85.050003,20.58
2110219,0.859368,-0.251320,0.067344,115.150002,40.810001,-94.570000,20.57
2110230,0.840824,-0.172264,0.033184,135.800003,49.560001,-103.320000,20.57
2110241,0.843752,-0.121512,0.008784,156.729996,55.860001,-110.809998,20.59
2110252,0.839848,-0.040504,0.011224,182.279999,63.910000,-116.760002,20.59
2110263,0.796904,0.089304,0.035136,200.130005,71.680000,-123.830002,20.59
2110274,0.767624,0.095648,0.045384,226.449997,73.570000,-131.809998,20.58
2110285,0.772016,0.081984,0.056120,262.989990,78.190002,-136.639999,20.58
2110296,0.717360,0.239608,0.067832,294.769989,81.339996,-142.660004,20.61
2110307,0.661240,0.373320,0.099552,332.429993,80.220001,-147.979996,20.56
2110317,0.675880,0.422608,0.214720,345.239990,74.620003,-138.389999,20.56
2110328,0.604632,0.468480,0.122488,385.700012,72.730003,-153.649994,20.59
2110339,0.595848,0.520208,0.096136,395.220001,68.320000,-158.830002,20.59
2110350,0.574864,0.535336,0.049288,395.779999,58.310001,-162.820007,20.57
2110361,0.534360,0.661728,-0.019032,389.970001,53.200001,-163.660004,20.57
2110372,0.517768,0.805200,-0.108824,356.790009,49.279999,-155.190002,20.59
2110383,0.464088,1.040416,-0.186416,304.010010,39.270000,-149.309998,20.57
2110394,0.471896,1.171688,-0.223016,252.070007,31.780001,-133.839996,20.57
2110405,0.473360,1.190232,-0.253272,208.250000,27.860001,-127.750000,20.58
2110416,0.477264,1.281000,-0.199104,151.059998,22.469999,-114.870003,20.58
2110427,0.446520,1.352248,-0.145912,111.580002,17.219999,-105.559998,20.59
2110438,0.462624,1.443992,-0.115168,83.790001,12.740000,-92.540001,20.54
2110449,0.480192,1.487424,-0.125416,70.559998,10.500000,-79.309998,20.54
2110460,0.492880,1.477176,-0.094184,54.880001,9.660000,-68.669998,20.59
2110471,0.520696,1.464000,-0.075152,47.320000,9.520000,-55.930000,20.59
2110482,0.532408,1.492792,-0.065392,42.840000,10.640000,-39.900002,20.57
2110493,0.558272,1.482544,-0.024888,32.340000,7.980000,-24.219999,20.55
2110504,0.577792,1.459120,-0.014640,20.160000,7.210000,-13.510000,20.55
2110515,0.593408,1.423984,-0.003416,7.070000,6.300000,1.330000,20.52
2110526,0.595848,1.363472,0.008296,-3.150000,5.600000,13.930000,20.52
2110537,0.600728,1.280024,0.017080,-4.340000,5.880000,22.680000,20.58
2110548,0.588040,1.242936,0.019520,-4.060000,6.790000,31.920000,20.58
2110559,0.583160,1.237568,0.011224,-8.610000,4.970000,39.900002,20.54
2110570,0.582672,1.221464,-0.016104,-20.580000,2.590000,45.150002,20.54
2110581,0.580720,1.195112,-0.040504,-37.099998,1.400000,51.869999,20.54
2110592,0.591456,1.150704,-0.040016,-51.099998,-0.560000,57.049999,20.53
2110603,0.591944,1.123864,-0.029768,-67.690002,-0.910000,61.459999,20.53
2110614,0.580232,1.095560,-0.033672,-83.510002,-2.240000,65.449997,20.61
2110625,0.575840,1.059936,-0.047336,-97.160004,-2.870000,68.949997,20.56
2110636,0.582184,1.016992,-0.034648,-115.500000,-3.850000,72.870003,20.56
2110647,0.554856,1.022360,-0.015616,-139.509995,-8.610000,73.639999,20.57
2110658,0.593896,0.996496,0.005368,-162.539993,-10.710000,82.879997,20.57
2110669,0.586088,0.915976,0.009760,-181.440002,-10.780000,87.709999,20.54
2110680,0.589016,0.829112,-0.002440,-195.229996,-12.250000,90.230003,20.56
2110692,0.598288,0.820816,-0.009760,-206.919998,-13.090000,92.750000,20.56
2110703,0.602680,0.821792,0.025376,-218.259995,-15.330000,97.089996,20.56
2110714,0.589016,0.798856,0.057584,-224.979996,-21.420000,98.139999,20.56
2110725,0.598288,0.718336,0.133712,-232.679993,-30.450001,102.199997,20.53
2110736,0.604632,0.640256,0.212280,-233.449997,-36.400002,103.879997,20.59
2110747,0.619272,0.585600,0.190320,-223.020004,-37.099998,103.879997,20.59
2110758,0.672952,0.501664,0.197152,-217.490005,-40.880001,106.470001,20.55
2110769,0.704184,0.469456,0.219600,-208.389999,-42.349998,106.120003,20.55
2110780,0.721264,0.428464,0.214720,-196.419998,-42.490002,106.610001,20.52
2110791,0.742736,0.398208,0.214720,-188.440002,-41.860001,106.330002,20.56
2110802,0.734440,0.380152,0.251808,-178.570007,-42.419998,106.190002,20.56
2110813,0.868640,0.342576,0.246440,-171.009995,-42.419998,105.209999,20.54
2110825,0.767136,0.294264,0.256200,-162.679993,-43.259998,102.900002,20.54
2110836,0.786168,0.249368,0.253272,-157.639999,-42.560001,101.150002,20.58
2110847,0.794952,0.169824,0.252784,-148.679993,-43.119999,96.599998,20.58
2110858,0.815448,0.072224,0.239608,-135.660004,-42.279999,91.209999,20.52
2110869,0.784216,0.054656,0.223504,-118.860001,-44.380001,86.099998,20.54
2110880,0.832528,0.076616,0.233752,-129.289993,-41.369999,82.879997,20.54
2110891,0.844728,0.025376,0.230336,-130.550003,-41.020000,78.889999,20.60
2110902,0.850584,-0.006832,0.263032,-133.350006,-42.070000,73.080002,20.60
2110913,0.847168,-0.028792,0.267912,-139.720001,-43.540001,67.269997,20.54
2110924,0.864248,-0.081984,0.239608,-145.389999,-43.889999,62.090000,20.58
2110935,0.881816,-0.125904,0.210816,-153.089996,-42.910000,54.250000,20.58
2110947,0.906704,-0.188368,0.173240,-159.389999,-39.830002,45.360001,20.58
2110958,0.897432,-0.246440,0.293288,-161.070007,-41.650002,31.010000,20.58
2110969,0.963800,-0.388448,0.108336,-148.889999,-28.070000,25.410000,20.57
2110980,0.949160,-0.511912,0.121512,-110.599998,-20.299999,10.150000,20.48
2110991,0.921344,-0.441152,0.057096,-63.910000,-10.220000,-1.890000,20.48
2111003,0.931104,-0.473848,-0.001464,-21.629999,2.100000,-12.740000,20.54
2111014,0.940376,-0.460184,-0.019520,26.670000,10.640000,-23.379999,20.54
2111025,0.915976,-0.426512,0.000000,66.150002,18.760000,-33.320000,20.59
2111036,0.914024,-0.383080,0.036112,92.190002,25.270000,-41.230000,20.57
2111047,0.885232,-0.316224,0.067832,103.180000,28.350000,-50.959999,20.57
2111058,0.873520,-0.253272,0.102968,106.400002,31.010000,-60.480000,20.57
2111069,0.859368,-0.246440,0.117120,114.730003,33.950001,-70.419998,20.57
2111080,0.841312,-0.214720,0.131272,127.889999,37.730000,-77.699997,20.55
2111091,0.818864,-0.130784,0.125904,136.360001,40.880001,-86.449997,20.55
2111102,0.829112,-0.135664,0.112240,156.800003,45.639999,-94.989998,20.55
2111113,0.806176,-0.048800,0.084424,171.639999,53.270000,-100.099998,20.60
2111124,0.781776,0.027328,0.081496,181.649994,57.750000,-107.169998,20.60
2111135,0.764208,0.093208,0.092232,189.419998,61.740002,-114.099998,20.55
2111146,0.733464,0.149816,0.101016,205.660004,63.349998,-120.330002,20.59
2111157,0.726144,0.254248,0.130784,213.080002,63.630001,-124.949997,20.59
2111168,0.743224,0.367464,0.240096,227.080002,64.959999,-122.570000,20.57
2111179,0.678808,0.368440,0.206424,246.960007,65.379997,-138.460007,20.57
2111190,0.690520,0.345504,0.225944,278.529999,63.770000,-145.179993,20.61
2111201,0.662216,0.301584,0.204472,332.570007,65.029999,-152.529999,20.61
2111212,0.644648,0.385520,0.207400,346.010010,62.230000,-155.820007,20.57
2111223,0.604144,0.515816,0.171776,356.859985,56.070000,-162.820007,20.54
2111234,0.556320,0.647576,0.175680,361.970001,46.970001,-165.130005,20.54
2111245,0.539240,0.758352,0.152744,346.359985,40.110001,-160.649994,20.60
2111255,0.514840,0.815936,0.062952,330.260010,33.599998,-161.559998,20.60
2111266,0.506056,0.855464,-0.081496,290.709991,34.860001,-152.669998,20.58
2111277,0.468968,1.105320,-0.224968,256.269989,31.709999,-136.639999,20.57
2111288,0.406016,1.351272,-0.233752,190.750000,23.100000,-122.919998,20.57
2111299,0.416752,1.529392,-0.187392,131.039993,17.570000,-99.330002,20.58
2111310,0.407968,1.610400,-0.148352,90.089996,10.220000,-75.180000,20.58
2111321,0.430416,1.547448,-0.087352,60.549999,0.770000,-62.580002,20.59
2111332,0.444080,1.482544,-0.026840,44.310001,-6.580000,-55.230000,20.62
2111343,0.477264,1.474736,-0.016104,45.570000,-5.950000,-47.180000,20.62
2111354,0.474824,1.522560,-0.038552,40.180000,-6.020000,-37.310001,20.57
2111365,0.510936,1.524512,-0.065880,31.430000,-4.410000,-26.459999,20.57
2111377,0.523136,1.481080,-0.091744,24.570000,1.610000,-16.100000,20.60
2111388,0.518256,1.462048,-0.092720,14.140000,3.010000,0.000000,20.60
2111399,0.532408,1.487424,-0.092232,0.700000,3.780000,16.940001,20.56
2111410,0.534848,1.416176,-0.070272,-15.820000,2.380000,33.529999,20.55
2111421,0.549000,1.315160,-0.034648,-23.730000,0.770000,45.290001,20.55
2111432,0.550952,1.229272,-0.004392,-26.040001,0.700000,56.490002,20.58
2111443,0.550952,1.191208,0.000000,-28.000000,-2.240000,64.050003,20.58
2111454,0.550952,1.162904,-0.018056,-32.340000,-3.150000,69.230003,20.55
2111465,0.547536,1.143384,-0.034648,-42.840000,-4.270000,72.379997,20.55
2111476,0.558272,1.118984,-0.090280,-60.970001,-3.290000,75.949997,20.55
2111488,0.553880,1.131184,-0.124440,-83.440002,-2.520000,80.919998,20.56
2111499,0.546072,1.149240,-0.080520,-120.050003,-4.970000,87.360001,20.56
2111510,0.553880,1.138992,-0.013664,-156.940002,-8.470000,90.440002,20.56
2111521,0.556808,1.067256,0.051728,-189.070007,-12.670000,94.709999,20.50
2111532,0.546072,0.921344,0.132248,-198.380005,-22.959999,96.320000,20.50
2111543,0.560712,0.790560,0.162504,-190.050003,-24.010000,96.529999,20.55
2111554,0.572424,0.762744,0.145424,-176.399994,-25.760000,100.449997,20.55
2111565,0.582672,0.785680,0.134200,-165.059998,-29.400000,102.339996,20.61
2111577,0.586088,0.745176,0.125904,-159.740005,-28.910000,109.129997,20.56
2111588,0.594384,0.688080,0.073200,-153.369995,-31.709999,109.900002,20.56
2111598,0.632448,0.702232,0.137616,-174.440002,-32.759998,116.410004,20.56
2111609,0.635864,0.655872,0.148840,-192.149994,-36.330002,117.669998,20.56
2111620,0.640744,0.560224,0.087352,-207.410004,-42.910000,113.540001,20.57
2111631,0.647088,0.573400,0.164944,-233.520004,-50.189999,118.300003,20.50
2111642,0.649040,0.532408,0.176656,-254.380005,-54.810001,115.430000,20.50
2111653,0.658312,0.487024,0.213256,-271.739990,-58.660000,112.209999,20.57
2111664,0.681736,0.378200,0.182024,-268.519989,-61.180000,106.260002,20.57
2111675,0.704672,0.325496,0.152256,-259.489990,-60.270000,102.900002,20.60
2111686,0.738344,0.287920,0.126392,-250.460007,-60.270000,96.949997,20.60
2111697,0.772016,0.205936,0.094184,-237.580002,-60.270000,88.760002,20.54
2111708,0.804224,0.179584,0.139080,-233.100006,-57.959999,87.080002,20.54
2111719,0.793976,0.095160,0.128832,-218.119995,-59.290001,80.430000,20.54
2111730,0.832040,0.021960,0.144936,-208.949997,-57.049999,77.489998,20.55
2111741,0.836920,-0.005856,0.152256,-196.699997,-57.400002,72.660004,20.55
2111752,0.857416,-0.043920,0.127368,-181.929993,-56.209999,69.160004,20.62
2111764,0.861320,-0.183488,0.056120,-145.880005,-55.090000,57.470001,20.53
2111775,0.922320,-0.279624,0.127856,-119.279999,-44.869999,56.139999,20.53
2111786,0.904264,-0.267424,0.136152,-85.330002,-39.549999,48.860001,20.55
2111797,0.913536,-0.267424,0.135176,-56.490002,-33.880001,42.139999,20.55
2111808,0.926712,-0.284016,0.113704,-34.439999,-26.250000,33.810001,20.56
2111819,0.935008,-0.284016,0.065392,-20.650000,-19.040001,25.059999,20.54
2111830,0.954040,-0.293776,0.025864,-9.030000,-11.690000,14.210000,20.54
2111841,0.969656,-0.349896,0.010736,5.950000,-1.120000,4.270000,20.57
2111852,0.948184,-0.317200,-0.003416,17.500000,8.260000,-6.930000,20.57
2111863,0.943792,-0.374784,0.004392,35.840000,16.940001,-19.950001,20.53
2111874,0.923784,-0.382104,0.015616,63.700001,23.870001,-31.570000,20.54
2111885,0.897432,-0.368928,0.028792,98.209999,29.889999,-40.529999,20.54
2111896,0.889624,-0.315248,0.053192,124.669998,35.840000,-49.490002,20.55
2111908,0.867176,-0.221064,0.067832,140.770004,40.180000,-57.889999,20.55
2111919,0.869128,-0.194712,0.062952,155.610001,43.259998,-65.940002,20.52
2111930,0.862784,-0.141520,0.077104,177.520004,48.090000,-71.889999,20.54
2111941,0.819840,-0.000488,0.081496,196.979996,51.799999,-81.620003,20.54
2111952,0.838872,-0.141520,0.088816,237.509995,56.840000,-94.290001,20.59
2111962,0.821304,-0.056120,0.079544,278.529999,63.560001,-100.449997,20.59
2111973,0.773968,0.042456,0.085888,310.450012,64.190002,-112.629997,20.56
2111985,0.775920,0.104432,0.127856,329.559998,63.980000,-121.660004,20.56
2111995,0.747128,0.192272,0.148840,340.829987,63.070000,-126.629997,20.61
2112006,0.708576,0.243024,0.155184,354.059998,58.380001,-132.300003,20.58
2112017,0.687104,0.340136,0.136640,359.029999,55.160000,-136.779999,20.58
2112028,0.671000,0.449936,-0.204472,353.640015,60.970001,-137.130005,20.56
2112039,0.636840,0.601216,0.109800,332.570007,44.099998,-135.520004,20.56
2112050,0.630008,0.660264,0.022936,315.489990,40.880001,-137.270004,20.59
2112061,0.631960,0.590480,-0.035136,291.899994,37.939999,-139.089996,20.55
2112072,0.607560,0.691984,-0.082472,262.079987,37.590000,-135.800003,20.55
2112083,0.564616,0.862296,-0.114192,235.270004,29.330000,-127.820000,20.53
2112094,0.587552,1.051640,-0.135176,192.360001,23.030001,-120.190002,20.53
2112105,0.558272,1.128256,-0.117120,155.399994,17.150000,-111.019997,20.57
2112116,0.557784,1.192184,-0.091744,119.209999,10.920000,-104.720001,20.57
2112127,0.565592,1.232200,-0.049288,100.239998,3.080000,-98.000000,20.58
2112138,0.556320,1.224392,0.013176,87.080002,0.140000,-92.120003,20.56
2112148,0.548512,1.267824,0.036600,83.160004,0.280000,-86.379997,20.56
2112159,0.571448,1.248304,-0.039528,77.070000,5.530000,-77.699997,20.58
2112170,0.588040,1.263432,-0.120048,60.970001,8.260000,-64.959999,20.58
2112181,0.599752,1.353224,-0.150792,38.290001,12.740000,-49.980000,20.55
2112193,0.583648,1.429840,-0.133224,14.420000,13.230000,-34.509998,20.59
2112204,0.583160,1.404464,-0.091744,-1.330000,9.450000,-18.480000,20.59
2112215,0.581696,1.330776,-0.005368,-11.410000,6.790000,-6.090000,20.58
2112226,0.573888,1.268312,0.061488,-12.740000,3.990000,2.520000,20.58
2112237,0.575840,1.274168,0.066368,-14.140000,0.700000,13.300000,20.56
2112247,0.589016,1.267336,0.031720,-23.730000,-0.560000,23.520000,20.56
2112258,0.594872,1.256600,0.016104,-40.040001,-3.010000,31.709999,20.56
2112269,0.594872,1.196576,0.020984,-69.440002,-5.390000,38.500000,20.58
2112280,0.600240,1.173640,0.023424,-68.459999,-4.270000,43.259998,20.58
2112291,0.606096,1.139480,0.017568,-89.529999,-4.480000,48.369999,20.58
2112303,0.601216,1.146800,0.020496,-112.489998,-3.850000,53.340000,20.56
2112313,0.587064,1.067256,0.028304,-129.149994,-6.720000,60.410000,20.56
2112325,0.587064,0.958920,0.082960,-134.190002,-9.520000,65.099998,20.53
2112336,0.569496,0.947208,0.135176,-135.309998,-13.790000,70.839996,20.53
2112347,0.581208,0.914024,0.161528,-138.460007,-20.299999,74.760002,20.62
2112358,0.589504,0.878400,0.190808,-138.740005,-24.639999,78.610001,20.62
2112369,0.601216,0.881816,0.164456,-143.360001,-24.850000,83.790001,20.54
2112380,0.601704,0.901824,0.136152,-154.979996,-29.260000,87.430000,20.56
2112391,0.637816,0.892064,0.115656,-170.869995,-29.120001,93.239998,20.56
2112401,0.629032,0.858392,0.113704,-191.029999,-30.940001,98.209999,20.55
2112412,0.628544,0.849120,0.162992,-225.610001,-38.009998,101.639999,20.55
2112423,0.627568,0.822280,0.183000,-252.490005,-44.660000,104.720001,20.55
2112434,0.642696,0.802272,0.214720,-278.109985,-48.020000,104.930000,20.54
2112445,0.651968,0.707600,0.229848,-294.140015,-54.880001,102.550003,20.54
2112456,0.676856,0.602680,0.266448,-301.910004,-62.160000,97.019997,20.57
2112467,0.682224,0.519720,0.235216,-291.410004,-63.700001,95.199997,20.57
2112478,0.673440,0.512400,0.271328,-277.059998,-66.639999,93.800003,20.59
2112489,0.719800,0.490928,0.270352,-266.420013,-69.650002,94.849998,20.54
2112500,0.750056,0.359656,0.248392,-251.369995,-67.410004,94.150002,20.54
2112511,0.758352,0.219112,0.219600,-224.350006,-66.150002,89.110001,20.59
2112523,0.793488,0.186416,0.230824,-197.820007,-65.379997,91.559998,20.59
2112533,0.803736,0.148840,0.226432,-176.399994,-63.980000,89.389999,20.59
2112544,0.826184,0.099064,0.215208,-162.679993,-62.369999,85.470001,20.59
2112555,0.840824,-0.012200,0.201056,-136.919998,-60.410000,80.080002,20.54
2112566,0.860832,-0.081496,0.176168,-114.660004,-57.049999,74.830002,20.54
2112577,0.873032,-0.093208,0.159088,-99.750000,-52.779999,67.339996,20.54
2112588,0.880840,-0.105408,0.137616,-92.540001,-47.389999,58.380001,20.57
2112600,0.886696,-0.135664,0.138104,-89.809998,-43.470001,48.930000,20.57
2112611,0.882304,-0.154696,0.149328,-92.750000,-39.759998,38.919998,20.58
2112622,0.883280,-0.186904,0.151768,-97.650002,-36.189999,30.520000,20.60
2112633,0.898896,-0.257176,0.135664,-96.599998,-31.290001,19.670000,20.60
2112644,0.867176,-0.236680,0.261080,-79.169998,-28.559999,5.950000,20.54
2112655,0.939400,-0.363560,0.063928,-60.970001,-17.709999,-2.170000,20.54
2112667,0.934520,-0.388448,0.040504,-34.369999,-7.700000,-14.560000,20.60
2112678,0.937448,-0.418704,0.050264,-1.610000,2.030000,-22.400000,20.57
2112690,0.913536,-0.338672,0.051240,23.100000,12.950000,-28.770000,20.57
2112701,0.895968,-0.343552,0.050752,51.799999,22.049999,-38.430000,20.54
2112712,0.879864,-0.279624,0.051240,83.930000,28.559999,-44.660000,20.54
2112723,0.844728,-0.188368,0.051240,106.540001,33.180000,-51.799999,20.51
2112733,0.860832,-0.170312,0.046360,128.100006,40.320000,-61.880001,20.54
2112745,0.822768,-0.086864,0.045384,157.639999,45.080002,-71.959999,20.54
2112755,0.828136,-0.187880,0.046848,211.259995,51.380001,-84.070000,20.58
2112766,0.828624,-0.084424,0.048312,250.039993,58.590000,-92.680000,20.58
2112777,0.792024,-0.038064,0.095648,285.529999,61.250000,-104.019997,20.57
2112788,0.777384,0.047824,0.132248,319.059998,65.449997,-110.879997,20.50
2112799,0.721752,0.145424,0.138592,352.239990,66.849998,-116.480003,20.50
2112810,0.701744,0.144936,0.080032,383.459991,68.459999,-122.989998,20.59
2112821,0.730048,0.231312,0.082472,423.920013,67.970001,-128.940002,20.59
2112832,0.704672,0.470920,0.067344,424.690002,70.139999,-130.130005,20.53
2112843,0.683200,0.489464,0.021472,429.940002,61.250000,-133.559998,20.53
2112854,0.670512,0.552904,0.009272,415.869995,55.650002,-135.100006,20.53
2112864,0.649528,0.485560,-0.050752,401.309998,52.919998,-139.369995,20.54
2112875,0.640256,0.511912,-0.143472,377.299988,50.049999,-141.399994,20.54
2112886,0.573888,0.705648,-0.188856,326.829987,43.680000,-134.330002,20.53
2112897,0.524112,0.948672,-0.242536,259.350006,33.740002,-126.980003,20.53
2112909,0.536312,1.152168,-0.241560,188.440002,25.200001,-111.580002,20.57
2112920,0.561200,1.161440,-0.211304,142.800003,17.709999,-105.839996,20.59
2112931,0.538752,1.112640,-0.180560,101.779999,13.020000,-106.540001,20.59
2112941,0.584624,1.093120,-0.170800,70.489998,12.810000,-104.930000,20.56
2112952,0.591456,1.109224,-0.160064,54.669998,13.580000,-102.199997,20.56
2112963,0.574376,1.177056,-0.089792,43.750000,15.190000,-97.300003,20.55
2112974,0.580232,1.188280,-0.037088,41.439999,18.900000,-90.510002,20.55
2112985,0.551440,1.237080,-0.000976,43.049999,18.900000,-78.680000,20.55
2112996,0.534360,1.282952,0.022448,40.669998,16.590000,-65.589996,20.55
2113007,0.546560,1.282952,0.029768,36.259998,13.510000,-53.970001,20.55
2113018,0.551928,1.313696,0.006344,31.709999,12.530000,-38.360001,20.59
2113029,0.559736,1.328824,-0.018544,21.840000,11.270000,-23.030001,20.59
2113040,0.567544,1.351760,-0.022448,8.190000,11.340000,-11.340000,20.59
2113051,0.566080,1.356640,-0.022936,-7.210000,11.270000,2.520000,20.55
2113062,0.558272,1.303448,-0.009272,-16.450001,8.820000,12.390000,20.55
2113075,0.545584,1.273680,0.033672,-24.219999,5.250000,19.600000,20.56
2113085,0.549976,1.221952,0.057584,-27.440001,0.700000,23.799999,20.56
2113096,0.553880,1.183888,0.069296,-28.980000,-1.330000,26.110001,20.54
2113107,0.568032,1.128256,0.060512,-29.260000,-1.820000,30.660000,20.58
2113118,0.559248,1.135576,0.039040,-34.650002,-4.130000,36.610001,20.58
2113129,0.573400,1.149240,0.000488,-47.669998,-5.040000,47.669998,20.57
2113140,0.554368,1.188280,-0.038552,-72.169998,-5.320000,57.049999,20.57
2113151,0.562176,1.165832,-0.042944,-99.680000,-9.310000,65.239998,20.52
2113162,0.567544,1.063840,0.015616,-113.820000,-9.940000,71.400002,20.53
2113173,0.556808,1.042368,0.051240,-124.809998,-10.570000,76.510002,20.53
2113184,0.560224,1.003816,0.061488,-132.440002,-12.950000,78.750000,20.55
2113195,0.577304,0.894992,0.082472,-128.169998,-12.810000,80.709999,20.55
2113206,0.576816,0.901824,0.047336,-120.260002,-11.200000,84.419998,20.55
2113217,0.589992,0.888648,0.012200,-123.900002,-13.370000,87.639999,20.55
2113228,0.602192,0.897432,0.043432,-137.130005,-18.969999,93.379997,20.55
2113239,0.618784,0.924760,0.059048,-155.679993,-17.920000,100.309998,20.57
2113250,0.606584,0.924760,0.026352,-187.389999,-19.670000,106.050003,20.57
2113261,0.591944,0.917440,0.072224,-231.910004,-29.120001,112.699997,20.60
2113272,0.604632,0.871568,0.121024,-266.839996,-36.959999,117.599998,20.60
2113283,0.617320,0.800808,0.123952,-302.679993,-40.250000,117.949997,20.56
2113294,0.597800,0.740784,0.174216,-337.260010,-52.220001,118.650002,20.52
2113305,0.620736,0.661240,0.210328,-368.480011,-63.490002,114.099998,20.52
2113316,0.650016,0.531432,0.224968,-383.179993,-70.910004,107.239998,20.54
2113327,0.666608,0.444568,0.244976,-392.769989,-70.279999,101.849998,20.54
2113338,0.687104,0.293288,0.254736,-378.839996,-74.690002,98.349998,20.52
2113349,0.748104,0.261080,0.248880,-374.220001,-78.750000,98.349998,20.54
2113360,0.769088,0.199104,0.173240,-357.700012,-79.589996,93.099998,20.54
2113371,0.789096,0.129808,0.170312,-337.190002,-79.519997,94.220001,20.54
2113382,0.798368,0.032208,0.152256,-305.899994,-78.610001,90.510002,20.54
2113393,0.828624,-0.057096,0.132736,-276.850006,-79.660004,84.489998,20.59
2113405,0.849120,-0.150304,0.146888,-243.389999,-77.910004,78.470001,20.55
2113417,0.880840,-0.247416,0.140544,-200.690002,-72.730003,70.489998,20.55
2113428,0.884256,-0.251320,0.152744,-161.279999,-67.830002,63.560001,20.54
2113439,0.879376,-0.234728,0.151280,-129.639999,-64.260002,56.419998,20.54
2113450,0.890600,-0.247904,0.131272,-102.129997,-57.189999,49.209999,20.58
2113461,0.898896,-0.290848,0.104920,-74.970001,-48.020000,39.200001,20.54
2113472,0.914512,-0.364048,0.084912,-55.369999,-40.880001,27.790001,20.54
2113483,0.938424,-0.408456,0.049776,-31.080000,-28.840000,16.590000,20.57
2113494,0.933056,-0.409432,0.027816,-11.200000,-17.850000,8.190000,20.57
2113505,0.923784,-0.398696,0.020496,2.310000,-9.520000,-0.420000,20.58
2113516,0.915000,-0.378200,0.022448,16.940001,1.890000,-11.270000,20.57
2113527,0.916952,-0.421632,0.019032,37.169998,12.670000,-19.389999,20.57
2113538,0.882792,-0.381616,0.031232,51.029999,20.510000,-27.790001,20.59
2113549,0.884744,-0.416752,0.023424,70.699997,25.690001,-37.240002,20.59
2113560,0.875472,-0.449936,0.042944,106.260002,32.830002,-44.169998,20.58
2113571,0.826184,-0.366488,0.039040,137.479996,36.680000,-52.570000,20.58
2113582,0.837896,-0.391864,0.044408,166.389999,41.720001,-62.369999,20.54
2113593,0.838384,-0.374784,0.039528,204.399994,47.180000,-71.750000,20.56
2113604,0.798856,-0.215208,0.025376,225.259995,50.889999,-80.360001,20.56
2113615,0.812032,-0.216184,0.039040,252.910004,57.820000,-91.699997,20.55
2113627,0.765184,-0.047336,0.082472,262.989990,61.110001,-100.309998,20.55
2113638,0.736392,0.010736,0.120536,275.029999,61.389999,-112.279999,20.53
2113648,0.750056,0.006832,0.143960,289.380005,61.320000,-119.000000,20.54
2113659,0.720288,0.113704,0.129808,298.899994,61.320000,-126.769997,20.54
2113670,0.696376,0.132736,0.134200,316.470001,57.610001,-134.960007,20.55
2113681,0.715408,0.222528,0.133224,325.570007,55.509998,-139.160004,20.55
2113692,0.691984,0.335256,0.153232,330.399994,52.990002,-143.360001,20.57
2113703,0.654896,0.450424,0.146400,333.059998,50.330002,-145.809998,20.54
2113713,0.610488,0.634400,0.118584,323.399994,42.349998,-144.479996,20.54
2113724,0.605608,0.667096,0.061976,321.160004,39.549999,-145.250000,20.57
2113737,0.630496,0.690032,-0.029280,318.920013,36.750000,-142.940002,20.57
2113753,0.607072,0.765184,-0.098088,301.279999,36.750000,-139.089996,20.54
2113766,0.605120,0.819352,-0.160552,276.920013,38.709999,-137.479996,20.52
2113777,0.527040,1.030656,-0.155672,233.100006,39.270000,-131.110001,20.58
2113789,0.513376,1.210728,-0.153232,179.059998,30.870001,-118.230003,20.58
2113801,0.522160,1.259040,-0.100528,126.419998,22.120001,-108.360001,20.54
2113813,0.529968,1.281488,-0.049288,87.500000,17.360001,-96.250000,20.54
2113826,0.532896,1.344928,-0.032208,62.299999,14.420000,-84.629997,20.55
2113837,0.551928,1.360544,-0.065392,50.959999,15.050000,-74.129997,20.57
2113848,0.565592,1.332728,-0.038552,36.959999,14.840000,-63.070000,20.57
2113859,0.579256,1.330288,0.003904,31.360001,18.900000,-56.279999,20.58
2113869,0.572424,1.393728,0.026352,23.450001,20.580000,-45.709999,20.58
2113881,0.566568,1.395192,0.070272,8.330000,16.450001,-32.830002,20.54
2113892,0.577304,1.329312,0.125416,6.510000,14.770000,-24.430000,20.52
2113903,0.559248,1.355664,0.137616,5.250000,14.420000,-11.480000,20.52
2113914,0.552904,1.396656,0.143472,-2.520000,9.520000,2.590000,20.51
2113925,0.561200,1.397144,0.145912,-19.459999,6.580000,17.150000,20.51
2113935,0.555832,1.322968,0.160064,-29.889999,3.360000,28.070000,20.57
2113946,0.539728,1.309792,0.160064,-38.919998,-3.780000,38.080002,20.55
2113957,0.564128,1.275632,0.144448,-54.599998,-6.510000,45.150002,20.55
2113968,0.555832,1.208776,0.142496,-64.190002,-10.080000,49.209999,20.54
2113979,0.567544,1.094096,0.168360,-63.700001,-9.730000,52.220001,20.54
2113990,0.566568,1.080920,0.170800,-59.919998,-8.890000,55.230000,20.57
2114001,0.561200,1.065304,0.143472,-59.919998,-9.800000,58.590000,20.54
2114012,0.550952,1.056032,0.127856,-67.059998,-10.570000,64.540001,20.54
2114023,0.548512,1.074088,0.109312,-81.480003,-14.910000,73.360001,20.54
2114035,0.541680,1.084336,0.092232,-107.099998,-19.389999,80.570000,20.54
2114046,0.549000,1.067256,0.081984,-142.380005,-22.540001,89.949997,20.55
2114057,0.552904,1.020408,0.095160,-180.809998,-27.510000,94.639999,20.56
2114068,0.563152,0.884256,0.137128,-199.919998,-32.130001,97.790001,20.56
2114079,0.544120,0.811544,0.173728,-197.119995,-35.910000,97.860001,20.56
2114090,0.558760,0.829112,0.195200,-204.119995,-38.360001,98.769997,20.56
2114101,0.579744,0.825208,0.207888,-210.210007,-46.130001,99.400002,20.57
2114112,0.606584,0.758352,0.206912,-213.639999,-48.369999,100.800003,20.57
2114123,0.604144,0.709064,0.206424,-221.830002,-52.639999,100.239998,20.56
2114134,0.620736,0.663680,0.237168,-239.889999,-58.590000,101.430000,20.55
2114145,0.633912,0.613904,0.242536,-257.250000,-60.549999,99.889999,20.55
2114156,0.641232,0.564128,0.241072,-273.000000,-66.779999,102.199997,20.55
2114167,0.661728,0.516792,0.213256,-277.269989,-70.839996,102.480003,20.55
2114178,0.699304,0.455792,0.207400,-277.690002,-72.239998,102.830002,20.57
2114189,0.730536,0.351360,0.204472,-267.329987,-70.209999,100.379997,20.50
2114200,0.745664,0.166896,0.237656,-225.470001,-67.830002,94.919998,20.50
2114211,0.755912,0.130784,0.239120,-180.250000,-64.260002,90.790001,20.55
2114222,0.769576,0.147864,0.205936,-145.460007,-62.720001,87.150002,20.55
2114233,0.839848,0.170312,0.302560,-122.570000,-61.810001,79.870003,20.58
2114244,0.845216,0.039528,0.153232,-99.610001,-57.470001,77.000000,20.59
2114255,0.843264,0.021472,0.149816,-83.720001,-54.459999,72.940002,20.59
2114269,0.851072,0.052216,0.181048,-85.050003,-53.200001,68.250000,20.54
2114280,0.855464,0.037088,0.206912,-92.540001,-52.080002,64.540001,20.54
2114291,0.852536,0.002440,0.217648,-103.110001,-52.080002,59.500000,20.56
2114302,0.859856,-0.061488,0.208864,-109.339996,-52.150002,54.599998,20.53
2114313,0.881816,-0.100528,0.170800,-110.180000,-49.770000,48.439999,20.53
2114324,0.894504,-0.146888,0.120048,-103.250000,-45.639999,40.180000,20.55
2114335,0.907680,-0.193736,0.088328,-87.919998,-38.570000,32.830002,20.55
2114346,0.919392,-0.243512,0.069296,-70.209999,-29.610001,23.520000,20.55
2114357,0.916464,-0.281576,0.063928,-54.180000,-20.790001,4.900000,20.52
2114368,0.937936,-0.369904,0.062952,-24.010000,-14.280000,-0.140000,20.52
2114379,0.915488,-0.384056,0.057096,5.600000,-3.430000,-4.480000,20.52
2114390,0.896944,-0.310368,0.040992,27.020000,3.430000,-13.090000,20.52
2114401,0.916464,-0.308416,0.032208,41.299999,9.590000,-20.580000,20.59
2114412,0.893040,-0.287920,0.032696,53.130001,15.190000,-26.950001,20.56
2114423,0.881328,-0.247904,0.043432,63.910000,20.370001,-36.330002,20.56
2114434,0.872056,-0.246928,0.063928,74.129997,25.900000,-46.480000,20.57
2114445,0.851560,-0.171288,0.076616,80.709999,29.260000,-55.020000,20.57
2114456,0.835456,-0.148840,0.081984,85.540001,33.740002,-62.090000,20.60
2114467,0.835456,-0.216672,0.075152,107.379997,40.040001,-72.239998,20.60
2114478,0.816424,-0.173240,0.064904,124.739998,48.369999,-80.150002,20.52
2114489,0.812032,-0.078568,0.029280,146.229996,56.630001,-89.320000,20.55
2114500,0.810080,0.012688,0.044408,171.500000,65.099998,-95.760002,20.55
2114511,0.772992,0.114192,0.069784,184.309998,71.120003,-104.650002,20.54
2114522,0.759816,0.022448,0.130784,214.619995,71.820000,-117.180000,20.54
2114532,0.752008,0.009272,0.183000,245.559998,74.970001,-125.300003,20.55
2114543,0.716384,0.074176,0.223016,272.160004,73.080002,-132.720001,20.57
2114554,0.690520,0.150304,0.243512,299.040009,72.800003,-143.429993,20.57
2114565,0.680272,0.226432,0.251320,326.899994,70.349998,-146.789993,20.53
2114576,0.620736,0.464576,0.237168,342.299988,65.730003,-146.089996,20.53
2114587,0.593408,0.675392,0.203984,342.230011,60.759998,-141.399994,20.53
2114598,0.599752,0.695400,0.088328,345.239990,53.270000,-142.869995,20.57
2114609,0.597800,0.786656,0.061000,334.880005,46.830002,-140.699997,20.57
2114620,0.577304,0.874496,-0.002440,312.480011,44.520000,-135.869995,20.54
2114631,0.553392,1.010160,-0.029280,265.649994,37.169998,-129.710007,20.54
2114642,0.534848,1.181448,-0.054168,210.070007,35.279999,-115.290001,20.61
2114653,0.512888,1.315160,-0.045872,167.440002,24.430000,-101.010002,20.61
2114664,0.535336,1.307840,0.015128,136.289993,18.480000,-90.720001,20.55
2114675,0.506544,1.409344,0.033184,110.040001,11.340000,-81.199997,20.53
2114686,0.539728,1.427400,0.049288,96.040001,5.320000,-70.980003,20.53
2114697,0.568520,1.358104,0.066856,86.029999,1.470000,-61.669998,20.54
2114708,0.589504,1.366888,0.054168,76.089996,3.360000,-36.189999,20.54
2114719,0.617808,1.399584,0.031232,63.279999,7.350000,-43.119999,20.57
2114730,0.626592,1.360544,-0.030744,54.040001,10.430000,-30.870001,20.56
2114741,0.642208,1.362008,-0.048312,39.060001,12.950000,-17.920000,20.56
2114752,0.624640,1.364936,-0.029280,22.610001,14.280000,-7.630000,20.54
2114763,0.611952,1.365424,0.022936,7.980000,11.060000,6.440000,20.54
2114774,0.613904,1.325896,0.060024,-8.960000,7.490000,21.139999,20.55
2114784,0.615368,1.289296,0.081496,-26.110001,1.960000,30.799999,20.53
2114795,0.613904,1.220000,0.082960,-34.650002,-3.430000,39.340000,20.53
2114806,0.607560,1.186328,0.078080,-47.529999,-6.790000,44.310001,20.61
2114817,0.611464,1.139968,0.071248,-57.889999,-9.030000,45.709999,20.61
2114828,0.614880,1.071648,0.063928,-62.509998,-6.860000,47.529999,20.54
2114839,0.611952,1.045784,0.044896,-67.760002,-4.340000,50.470001,20.54
2114850,0.606096,1.038952,0.044408,-77.279999,-3.220000,54.180000,20.57
2114861,0.604632,1.014552,0.052704,-88.199997,-3.150000,60.060001,20.49
2114872,0.594872,1.015040,0.064416,-98.419998,-4.410000,65.730003,20.49
2114883,0.589016,0.997960,0.079056,-117.739998,-7.700000,73.779999,20.51
2114894,0.586088,0.987224,0.101016,-138.600006,-12.250000,79.379997,20.51
2114905,0.588040,0.949160,0.116632,-153.020004,-15.050000,84.419998,20.56
2114916,0.585112,0.924272,0.125904,-171.990005,-17.639999,88.970001,20.55
2114927,0.583160,0.899872,0.114680,-191.169998,-22.610001,91.910004,20.55
2114938,0.605608,0.846680,0.084912,-206.710007,-23.309999,94.500000,20.58
2114949,0.607072,0.817888,0.078080,-219.449997,-28.350000,90.510002,20.58
2114960,0.620248,0.825208,0.141032,-239.470001,-34.930000,97.580002,20.58
2114971,0.635864,0.749080,0.188856,-254.309998,-40.810001,100.309998,20.54
2114982,0.649040,0.697840,0.244000,-263.899994,-46.480000,100.099998,20.54
2114993,0.647576,0.639768,0.284992,-268.309998,-50.610001,99.959999,20.52
2115004,0.659776,0.595848,0.278160,-271.670013,-53.900002,102.339996,20.52
2115015,0.665144,0.499224,0.285968,-270.410004,-59.990002,101.849998,20.55
2115026,0.715408,0.445544,0.235216,-278.880005,-60.130001,101.500000,20.55
2115037,0.720776,0.357216,0.225944,-280.910004,-61.950001,99.400002,20.54
2115048,0.744200,0.237656,0.224968,-268.450012,-62.860001,97.019997,20.52
2115059,0.753472,0.152744,0.230336,-248.220001,-63.000000,95.129997,20.52
2115070,0.771528,0.077104,0.303536,-222.949997,-63.980000,90.790001,20.56
2115081,0.805688,0.009272,0.246928,-188.720001,-62.299999,88.269997,20.56
2115092,0.813008,0.000976,0.251808,-159.250000,-62.580002,85.260002,20.54
2115103,0.816912,0.008784,0.233264,-144.690002,-62.299999,80.849998,20.54
2115114,0.821792,-0.024400,0.209352,-128.869995,-61.880001,75.459999,20.54
2115125,0.833992,-0.035136,0.219112,-123.129997,-60.830002,71.120003,20.56
2115136,0.830576,-0.038064,0.209352,-120.820000,-59.919998,64.540001,20.56
2115147,0.854000,-0.083936,0.202520,-121.730003,-58.660000,57.610001,20.58
2115159,0.875960,-0.184464,0.191296,-119.489998,-56.840000,49.490002,20.50
2115170,0.895480,-0.248392,0.162504,-111.720001,-51.730000,42.840000,20.50
2115181,0.856440,-0.302560,0.069296,-96.250000,-53.900002,32.270000,20.56
2115192,0.923296,-0.299632,0.097600,-90.720001,-40.529999,27.580000,20.56
2115203,0.919392,-0.345992,0.042944,-74.550003,-34.090000,15.540000,20.52
2115214,0.941352,-0.346968,0.021960,-55.439999,-25.549999,10.500000,20.52
2115225,0.942816,-0.359656,-0.005368,-33.599998,-16.240000,3.220000,20.52
2115236,0.955992,-0.447984,-0.031720,-8.400000,-6.650000,-6.790000,20.53
2115247,0.961360,-0.478240,-0.030744,33.250000,2.310000,-15.120000,20.53
2115258,0.938912,-0.434808,-0.028792,67.480003,10.430000,-22.190001,20.50
2115269,0.943304,-0.397232,-0.014640,91.000000,18.900000,-31.290001,20.50
2115280,0.924760,-0.355752,0.013176,103.459999,25.340000,-40.810001,20.52
2115291,0.899384,-0.325984,0.046848,115.500000,28.910000,-50.889999,20.55
2115302,0.894504,-0.318664,0.056608,129.639999,35.000000,-58.939999,20.55
2115313,0.878888,-0.292312,0.084912,144.619995,40.880001,-68.040001,20.55
2115324,0.849120,-0.200080,0.083936,151.479996,45.709999,-75.879997,20.55
2115335,0.841312,-0.186416,0.080520,161.979996,51.169998,-82.949997,20.61
2115346,0.828624,-0.109312,0.088328,164.779999,56.139999,-90.300003,20.56
2115357,0.817888,-0.067344,0.101016,169.889999,59.009998,-99.610001,20.56
2115368,0.830576,-0.130296,0.101992,195.020004,64.050003,-109.199997,20.56
2115379,0.784216,0.007320,0.123464,221.690002,69.440002,-113.400002,20.56
2115390,0.727120,0.249368,0.163968,228.199997,66.430000,-119.629997,20.54
2115401,0.714432,0.286944,0.217160,235.059998,62.090000,-126.279999,20.55
2115412,0.750544,0.331840,0.379664,230.440002,63.209999,-122.570000,20.55
2115423,0.692960,0.186416,0.231312,279.720001,60.830002,-139.229996,20.55
2115433,0.696376,0.245952,0.185440,314.440002,59.919998,-144.479996,20.55
2115444,0.678808,0.358680,0.161528,349.859985,62.580002,-146.649994,20.55
2115455,0.611952,0.613904,0.144448,371.700012,60.340000,-147.699997,20.55
2115466,0.559736,0.833992,0.209352,362.880005,48.930000,-125.930000,20.53
2115477,0.617320,0.837896,0.096136,351.260010,38.919998,-139.929993,20.52
2115488,0.648552,0.779824,-0.044408,328.510010,38.360001,-140.350006,20.52
2115499,0.576328,0.722728,-0.121024,306.040009,34.790001,-143.289993,20.58
2115510,0.541192,0.798856,-0.117608,276.779999,26.879999,-139.229996,20.58
2115521,0.449936,1.111176,-0.080520,240.940002,20.160000,-125.019997,20.56
2115532,0.409432,1.370304,-0.055632,184.729996,10.150000,-107.519997,20.53
2115543,0.444568,1.403000,-0.055144,128.589996,-3.710000,-94.290001,20.53
2115554,0.465064,1.324432,-0.040992,92.400002,-9.380000,-82.459999,20.58
2115565,0.467504,1.349320,0.000488,69.089996,-14.000000,-72.029999,20.58
2115576,0.506544,1.401048,0.016592,42.770000,-13.860000,-65.800003,20.54
2115587,0.538752,1.359080,-0.001464,32.130001,-9.310000,-59.009998,20.49
2115598,0.546560,1.349320,-0.059048,38.009998,-0.210000,-52.990002,20.49
2115609,0.561200,1.358104,-0.115656,43.610001,8.120000,-43.540001,20.55
2115620,0.567056,1.381528,-0.135176,42.700001,13.510000,-33.950001,20.55
2115631,0.560224,1.428864,-0.111752,32.200001,12.250000,-17.570000,20.56
2115642,0.561688,1.423984,-0.053680,18.760000,6.230000,0.420000,20.56
2115653,0.569984,1.382992,-0.006344,1.260000,0.560000,17.150000,20.57
2115664,0.575840,1.381528,0.016592,-16.520000,-6.230000,29.750000,20.51
2115675,0.580232,1.355176,0.020984,-32.060001,-11.830000,40.529999,20.51
2115685,0.587552,1.294664,0.009760,-46.830002,-12.110000,45.290001,20.56
2115696,0.586576,1.168760,0.013176,-49.980000,-10.080000,48.160000,20.56
2115707,0.587552,1.140944,0.008296,-50.189999,-6.510000,49.700001,20.53
2115718,0.590968,1.122888,-0.008296,-51.869999,-4.340000,52.360001,20.54
2115729,0.591944,1.096536,-0.015616,-56.279999,-3.360000,56.139999,20.54
2115740,0.591456,1.056032,-0.034160,-62.230000,-1.610000,61.810001,20.55
2115751,0.591944,1.055056,-0.029768,-81.059998,-4.760000,71.260002,20.55
2115762,0.566080,1.097024,0.000976,-105.699997,-8.260000,78.610001,20.52
2115773,0.557784,1.048712,0.025864,-132.720001,-13.510000,83.019997,20.58
2115784,0.549976,0.959408,0.032208,-150.500000,-17.990000,89.669998,20.58
2115795,0.552416,0.802760,0.062952,-152.529999,-19.459999,88.339996,20.59
2115806,0.586088,0.707112,0.046360,-134.610001,-17.360001,85.260002,20.59
2115817,0.609024,0.693448,0.096136,-115.220001,-17.570000,86.589996,20.54
2115828,0.618296,0.702232,0.107360,-104.790001,-15.820000,87.779999,20.54
2115839,0.626104,0.708576,0.103456,-97.510002,-16.030001,91.489998,20.53
2115850,0.665144,0.770064,0.213744,-104.510002,-19.740000,95.410004,20.52
2115861,0.643184,0.798368,0.128344,-118.790001,-23.520000,104.440002,20.52
2115872,0.632936,0.812032,0.104920,-145.039993,-28.559999,110.110001,20.54
2115883,0.646112,0.770552,0.046848,-172.130005,-31.990000,113.820000,20.54
2115894,0.657824,0.705648,0.028792,-196.559998,-38.360001,116.129997,20.55
2115905,0.670024,0.605120,0.046360,-214.199997,-41.439999,114.660004,20.52
2115916,0.711992,0.452864,0.089792,-204.610001,-39.830002,109.760002,20.52
2115927,0.737368,0.259128,0.179584,-173.179993,-36.889999,101.080002,20.58
2115938,0.748592,0.229360,0.206912,-146.229996,-36.750000,95.059998,20.58
2115949,0.746152,0.249368,0.222040,-121.379997,-38.570000,91.419998,20.52
2115960,0.779824,0.252296,0.222528,-110.669998,-40.599998,90.790001,20.52
2115971,0.791536,0.205936,0.198128,-104.440002,-41.930000,90.370003,20.52
2115982,0.810568,0.176656,0.144936,-101.290001,-42.490002,89.599998,20.53
2115993,0.831552,0.142008,0.108824,-104.089996,-41.299999,88.900002,20.53
2116004,0.841312,0.121024,0.071736,-110.459999,-39.970001,86.519997,20.57
2116015,0.851560,0.070272,0.056120,-115.989998,-38.990002,81.550003,20.57
2116025,0.865224,0.041968,0.052216,-124.809998,-37.450001,77.070000,20.57
2116036,0.870592,0.029768,0.091744,-135.589996,-36.959999,69.790001,20.58
2116047,0.874496,-0.005856,0.123952,-149.589996,-37.029999,60.270000,20.58
2116058,0.872544,-0.034160,0.143960,-160.789993,-37.240002,52.009998,20.58
2116069,0.873520,-0.068320,0.143472,-169.330002,-36.680000,42.139999,20.58
2116080,0.833016,-0.162992,0.104920,-153.020004,-37.939999,29.120001,20.56
2116092,0.922808,-0.258152,0.123952,-151.479996,-29.680000,21.980000,20.57
2116103,0.925248,-0.291824,0.061976,-126.629997,-22.540001,11.690000,20.57
2116114,0.954528,-0.336232,0.085400,-94.919998,-14.140000,3.920000,20.57
2116125,0.953064,-0.348920,0.072712,-69.089996,-2.380000,-2.170000,20.57
2116136,0.925736,-0.297192,0.067832,-40.180000,5.740000,-10.990000,20.56
2116147,0.924760,-0.284504,0.060512,-14.000000,12.600000,-18.200001,20.54
2116158,0.915976,-0.272304,0.058560,10.430000,19.180000,-24.850000,20.54
2116169,0.902312,-0.215208,0.074176,23.379999,23.030001,-34.790001,20.58
2116180,0.898408,-0.190808,0.092720,35.840000,25.549999,-45.430000,20.58
2116191,0.881328,-0.176656,0.101992,46.759998,26.600000,-54.180000,20.57
2116202,0.882792,-0.213256,0.109312,62.369999,30.520000,-66.360001,20.57
2116213,0.889136,-0.208376,0.122000,86.169998,35.770000,-76.300003,20.55
2116224,0.862296,-0.104920,0.131272,102.129997,43.259998,-82.739998,20.55
2116235,0.854976,-0.034648,0.146888,108.430000,48.160000,-88.970001,20.55
2116245,0.834480,0.009272,0.174216,113.330002,52.009998,-94.779999,20.54
2116256,0.805688,0.074176,0.194712,115.430000,53.970001,-99.959999,20.54
2116267,0.791048,0.093208,0.221552,126.489998,57.610001,-107.029999,20.58
2116278,0.758840,0.193736,0.221552,141.050003,60.200001,-111.440002,20.54
2116289,0.729072,0.343064,0.208864,154.350006,59.220001,-113.889999,20.54
2116300,0.734440,0.325496,0.216184,181.929993,60.480000,-121.660004,20.55
2116311,0.745176,0.345016,0.216672,209.089996,62.090000,-125.370003,20.55
2116322,0.701744,0.372344,0.235704,231.490005,59.220001,-133.210007,20.57
2116333,0.703208,0.392840,0.244000,247.309998,56.560001,-137.690002,20.57
2116344,0.674416,0.478240,0.240096,256.549988,53.130001,-141.330002,20.52
2116355,0.649040,0.572424,0.223504,265.649994,49.139999,-139.300003,20.55
2116367,0.606096,0.654408,0.174704,273.839996,47.740002,-140.559998,20.55
2116379,0.593408,0.744688,0.130784,265.019989,42.770000,-134.679993,20.56
2116390,0.609024,0.749080,0.035624,263.619995,42.840000,-131.880005,20.55
2116402,0.556808,0.984784,-0.014640,239.119995,41.230000,-119.279999,20.55
2116413,0.524600,1.162416,-0.003416,206.220001,29.330000,-108.779999,20.55
2116424,0.519232,1.285392,0.023912,163.100006,19.530001,-95.970001,20.55
2116435,0.512888,1.253672,0.072712,137.410004,11.620000,-85.889999,20.54
2116446,0.514352,1.140944,0.110776,126.980003,5.110000,-81.129997,20.57
2116457,0.505568,1.195600,0.088816,117.389999,4.690000,-74.550003,20.57
2116468,0.495320,1.246840,0.045872,111.089996,1.400000,-72.940002,20.53
2116479,0.520696,1.324432,-0.020008,96.739998,3.990000,-65.379997,20.53
2116490,0.521184,1.417152,-0.062464,75.669998,5.320000,-37.450001,20.54
2116501,0.515328,1.452776,-0.067344,53.619999,2.660000,-42.279999,20.57
2116512,0.520696,1.450824,-0.048800,38.150002,1.260000,-28.420000,20.57
2116523,0.520696,1.437160,-0.033184,20.719999,-0.560000,-13.230000,20.55
2116534,0.503128,1.437160,-0.014152,2.520000,-3.430000,-6.370000,20.55
2116545,0.522648,1.398608,-0.018056,-15.400000,-7.560000,9.240000,20.54
2116556,0.517280,1.344928,-0.004880,-24.360001,-11.340000,21.350000,20.54
2116567,0.561688,1.311256,-0.012688,-36.959999,-5.810000,32.900002,20.56
2116579,0.535336,1.272216,0.006832,-48.509998,-8.890000,37.730000,20.55
2116590,0.542656,1.216584,0.004392,-52.990002,-5.600000,44.520000,20.55
2116601,0.529480,1.188768,0.004392,-59.009998,-8.050000,50.049999,20.55
2116611,0.538752,1.159976,0.017568,-68.180000,-10.640000,53.619999,20.55
2116622,0.555832,1.112640,0.020496,-76.019997,-9.520000,59.990002,20.59
2116633,0.551440,1.057008,0.005856,-83.230003,-10.220000,66.360001,20.53
2116644,0.562664,1.023336,0.022936,-95.900002,-11.340000,73.360001,20.53
2116655,0.556320,1.008696,0.038552,-109.059998,-14.070000,79.449997,20.54
2116666,0.548024,1.001864,0.055144,-118.300003,-17.639999,84.139999,20.54
2116677,0.546072,0.955992,0.087840,-130.550003,-20.650000,88.970001,20.52
2116688,0.549976,0.903776,0.096136,-137.830002,-24.570000,92.959999,20.60
2116699,0.572912,0.838872,0.095160,-139.860001,-24.570000,93.309998,20.60
2116710,0.594872,0.779336,0.082472,-137.550003,-23.870001,95.339996,20.59
2116721,0.590968,0.772992,0.114680,-139.020004,-28.139999,97.230003,20.59
2116732,0.639768,0.714432,0.103944,-137.479996,-27.510000,99.190002,20.54
2116743,0.645624,0.677344,0.125904,-134.330002,-33.040001,100.309998,20.54
2116754,0.670512,0.634888,0.119072,-131.529999,-33.320000,102.059998,20.56
2116765,0.668560,0.601704,0.180072,-125.650002,-36.330002,102.690002,20.54
2116776,0.678808,0.528016,0.135664,-121.730003,-35.840000,103.180000,20.54
2116787,0.711992,0.400160,0.150792,-117.040001,-38.639999,103.529999,20.60
2116798,0.760792,0.308416,0.181048,-106.540001,-36.820000,103.110001,20.60
2116809,0.768112,0.318664,0.223016,-91.910004,-35.840000,105.000000,20.58
2116820,0.786656,0.356728,0.274256,-80.709999,-39.830002,105.699997,20.53
2116832,0.796416,0.415776,0.264008,-77.279999,-42.279999,108.570000,20.53
2116843,0.793976,0.445056,0.243024,-80.080002,-45.990002,108.500000,20.52
2116854,0.824720,0.427976,0.176656,-85.330002,-45.150002,104.650002,20.52
2116865,0.834480,0.365512,0.141032,-87.080002,-40.040001,100.099998,20.55
2116876,0.834480,0.311832,0.115168,-89.389999,-37.169998,91.699997,20.52
2116887,0.861320,0.212280,0.094184,-91.349998,-32.759998,82.180000,20.52
2116898,0.875472,0.140544,0.096136,-89.809998,-29.330000,72.800003,20.55
2116909,0.877912,0.107848,0.100040,-86.660004,-27.020000,67.269997,20.55
2116920,0.754936,0.030256,0.060024,-83.300003,-26.809999,53.060001,20.61
2116931,0.892064,0.011224,0.125416,-73.639999,-25.410000,54.669998,20.51
2116942,0.872544,-0.039528,0.119072,-58.099998,-23.590000,48.650002,20.51
2116953,0.907680,-0.058072,0.115656,-44.730000,-19.740000,43.610001,20.59
2116964,0.925736,-0.134200,0.090280,-22.330000,-16.450001,35.980000,20.59
2116975,0.940376,-0.183488,0.074176,2.730000,-7.630000,32.619999,20.56
2116986,0.926712,-0.147864,0.072224,16.590000,-3.990000,25.830000,20.56
2116997,0.940864,-0.147376,0.053192,20.650000,2.240000,18.340000,20.49
2117008,0.924760,-0.133224,0.061976,19.530001,5.740000,11.340000,20.52
2117019,0.912560,-0.103456,0.071248,13.510000,8.470000,0.700000,20.52
2117030,0.909144,-0.142496,0.114680,7.770000,10.290000,-12.110000,20.59
2117040,0.886696,-0.138592,0.130296,0.140000,12.040000,-21.980000,20.59
2117052,0.858392,-0.157624,0.127368,5.250000,13.720000,-34.790001,20.57
2117062,0.862784,-0.180072,0.123464,12.950000,17.150000,-45.849998,20.55
2117073,0.854488,-0.180072,0.117608,27.090000,21.980000,-53.900002,20.55
2117084,0.841800,-0.163480,0.107360,44.590000,29.400000,-63.840000,20.55
2117096,0.832040,-0.133224,0.097112,61.110001,38.009998,-73.080002,20.55
2117107,0.818376,-0.073688,0.089304,73.779999,46.130001,-81.199997,20.57
2117118,0.798368,0.030744,0.108336,76.790001,49.560001,-88.339996,20.53
2117129,0.767624,0.085888,0.137128,88.480003,49.980000,-94.849998,20.53
2117140,0.735904,0.224968,0.156648,98.279999,47.389999,-101.430000,20.52
2117151,0.735904,0.198616,0.168360,114.800003,45.779999,-111.790001,20.52
2117162,0.764208,0.091256,0.157136,157.220001,49.490002,-122.639999,20.55
2117173,0.752984,0.151280,0.145424,210.559998,54.669998,-130.339996,20.52
2117184,0.694912,0.377712,0.145912,233.869995,55.299999,-137.550003,20.52
2117195,0.691008,0.340624,0.173728,276.429993,54.529999,-147.070007,20.50
2117205,0.692472,0.415776,0.158112,296.170013,56.349998,-146.860001,20.50
2117216,0.693448,0.532408,0.199104,273.140015,48.160000,-150.990005,20.55
2117227,0.630984,0.608048,0.085400,302.470001,46.689999,-150.009995,20.55
2117238,0.601704,0.726144,0.037576,291.549988,45.500000,-150.220001,20.54
2117249,0.578768,0.743712,0.027328,286.160004,40.810001,-145.949997,20.54
2117260,0.533872,0.959896,-0.044408,251.860001,38.150002,-136.360001,20.54
2117271,0.484096,1.110688,-0.075152,218.259995,28.420000,-120.610001,20.58
2117282,0.496296,1.200480,-0.110288,184.449997,18.900000,-106.889999,20.58
2117293,0.478728,1.281488,-0.063928,141.259995,12.390000,-94.570000,20.52
2117304,0.465552,1.379088,-0.026352,99.820000,2.170000,-88.480003,20.53
2117315,0.479216,1.434232,-0.002928,66.919998,-6.020000,-78.120003,20.53
2117326,0.497760,1.370304,-0.006832,47.880001,-10.010000,-67.550003,20.54
2117337,0.528504,1.306376,-0.028792,39.130001,-9.590000,-61.810001,20.54
2117348,0.549000,1.319552,-0.085400,37.450001,-2.590000,-54.810001,20.57
2117359,0.557784,1.360056,-0.116632,30.100000,1.890000,-41.930000,20.57
2117370,0.559248,1.367864,-0.129808,20.860001,1.680000,-27.090000,20.54
2117381,0.554856,1.377624,-0.142496,4.970000,0.490000,-8.820000,20.56
2117392,0.555344,1.401048,-0.086376,-13.090000,-5.390000,4.900000,20.56
2117404,0.569496,1.343952,-0.043920,-29.820000,-10.710000,19.040001,20.53
2117415,0.563152,1.259040,-0.009272,-33.810001,-12.040000,28.910000,20.53
2117426,0.574376,1.199992,-0.010248,-32.759998,-11.900000,34.230000,20.56
2117437,0.584136,1.149240,-0.027816,-30.870001,-10.080000,37.029999,20.54
2117448,0.583160,1.115080,-0.052704,-29.540001,-6.650000,39.759998,20.54
2117459,0.584624,1.107760,-0.072224,-32.689999,-4.620000,42.980000,20.58
2117471,0.596336,1.117520,-0.081008,-45.009998,-3.290000,49.560001,20.58
2117482,0.584136,1.138016,-0.075640,-65.940002,-3.990000,56.279999,20.55
2117493,0.583160,1.114592,-0.057096,-86.800003,-6.300000,62.090000,20.53
2117504,0.579744,1.045784,-0.049776,-98.910004,-6.930000,66.849998,20.53
2117515,0.576816,0.954040,-0.034648,-105.910004,-7.280000,71.750000,20.55
2117526,0.585600,0.872544,-0.028304,-97.580002,-9.660000,74.059998,20.55
2117537,0.593408,0.859856,0.015128,-88.760002,-9.240000,77.629997,20.54
2117548,0.598288,0.850584,0.039528,-83.089996,-8.750000,79.239998,20.55
2117560,0.604632,0.837408,0.026352,-75.320000,-11.130000,81.059998,20.55
2117570,0.631472,0.834480,0.022936,-83.860001,-7.910000,86.029999,20.61
2117581,0.633912,0.824720,0.014152,-97.160004,-6.510000,88.900002,20.61
2117593,0.636840,0.839848,-0.012688,-114.519997,-7.280000,93.029999,20.53
2117604,0.642696,0.844240,0.009760,-136.220001,-7.490000,100.870003,20.54
2117615,0.648552,0.824232,0.037088,-163.940002,-10.710000,106.330002,20.54
2117625,0.647576,0.788608,0.090280,-190.539993,-17.080000,108.150002,20.55
2117636,0.643672,0.734928,0.165920,-202.580002,-24.150000,109.269997,20.55
2117647,0.648552,0.681248,0.172264,-213.639999,-31.150000,109.970001,20.52
2117658,0.672952,0.639280,0.201544,-221.479996,-37.730000,109.269997,20.53
2117669,0.677344,0.573888,0.179096,-217.139999,-43.889999,103.949997,20.53
2117680,0.706624,0.496296,0.179096,-222.320007,-45.290001,101.500000,20.53
2117691,0.709064,0.449936,0.202032,-219.380005,-47.740002,104.019997,20.53
2117702,0.736392,0.407480,0.206912,-217.350006,-49.209999,103.879997,20.55
2117713,0.756888,0.347944,0.204960,-218.539993,-50.750000,103.879997,20.55
2117724,0.782752,0.242536,0.204472,-210.070007,-51.450001,103.040001,20.59
2117735,0.785192,0.176656,0.189832,-190.119995,-48.860001,100.730003,20.51
2117746,0.777872,0.155672,0.203008,-178.149994,-49.980000,99.610001,20.51
2117757,0.783240,0.167872,0.212280,-168.839996,-54.110001,96.739998,20.55
2117768,0.814960,0.126392,0.221552,-164.500000,-56.490002,93.169998,20.55
2117779,0.831064,0.043920,0.206424,-160.020004,-58.869999,87.010002,20.52
2117790,0.854976,-0.031720,0.173240,-154.979996,-59.779999,80.150002,20.53
2117801,0.817888,-0.074664,0.132248,-136.500000,-60.270000,70.559998,20.53
2117813,0.900360,-0.092720,0.146888,-152.880005,-56.840000,64.680000,20.50
2117824,0.900360,-0.150792,0.133224,-147.839996,-53.340000,56.490002,20.50
2117835,0.915000,-0.208864,0.125904,-135.169998,-48.930000,47.529999,20.54
2117846,0.923784,-0.246928,0.097112,-121.589996,-43.259998,38.570000,20.52
2117857,0.937936,-0.296704,0.061000,-98.489998,-37.240002,28.000000,20.52
2117868,0.948184,-0.334768,0.028792,-73.080002,-28.420000,20.299999,20.55
2117879,0.952088,-0.344040,0.012688,-48.720001,-19.250000,10.710000,20.55
2117890,0.960872,-0.374296,-0.001464,-26.320000,-10.220000,0.770000,20.56
2117902,0.960872,-0.371856,-0.005368,-2.240000,-3.640000,-8.960000,20.50
2117913,0.965752,-0.424072,0.008784,23.940001,2.800000,-35.770000,20.50
2117924,0.960872,-0.413336,-0.000976,48.090000,11.130000,-28.139999,20.58
2117935,0.927688,-0.327448,0.000976,66.220001,14.840000,-37.939999,20.58
2117946,0.930128,-0.304024,0.006832,78.610001,18.830000,-47.529999,20.50
2117957,0.916464,-0.269376,0.007808,89.879997,24.010000,-54.389999,20.52
2117968,0.921344,-0.293288,0.015128,107.730003,29.190001,-65.519997,20.52
2117979,0.901336,-0.294752,0.037088,130.199997,37.660000,-75.389999,20.56
2117990,0.864736,-0.211304,0.021960,157.570007,41.790001,-83.720001,20.56
2118002,0.827648,-0.090280,0.008296,179.270004,48.580002,-91.559998,20.55
2118019,0.829600,-0.049288,-0.023912,206.149994,54.250000,-101.989998,20.55
2118032,0.807640,0.096136,0.008296,225.470001,55.720001,-110.320000,20.52
2118043,0.764696,0.152256,0.044408,239.259995,55.230000,-116.269997,20.52
2118054,0.764208,0.206424,0.084912,259.910004,54.459999,-121.730003,20.54
2118067,0.709064,0.389424,0.127856,270.130005,51.169998,-125.860001,20.54
2118078,0.708576,0.345504,0.145912,293.929993,47.180000,-133.770004,20.51
2118089,0.719312,0.249368,0.112728,326.549988,48.230000,-139.929993,20.54
2118099,0.676368,0.307928,0.000488,363.369995,53.759998,-145.460007,20.54
2118110,0.663680,0.379176,-0.116632,385.070007,53.689999,-150.009995,20.57
2118121,0.658800,0.617808,-0.195200,372.190002,49.630001,-133.210007,20.57
2118132,0.640256,0.683688,-0.182024,352.799988,46.759998,-141.960007,20.54
2118144,0.573888,0.765672,-0.111752,313.459991,36.750000,-140.490005,20.55
2118154,0.544120,0.894504,-0.093208,281.890015,27.650000,-129.710007,20.55
2118165,0.510936,0.944768,-0.081496,233.029999,18.900000,-128.660004,20.51
2118176,0.499712,1.041392,-0.053192,184.520004,9.380000,-119.419998,20.51
2118187,0.480192,1.128744,-0.058072,136.009995,0.560000,-112.699997,20.50
2118198,0.541192,1.075552,-0.139568,106.959999,1.680000,-107.029999,20.50
2118209,0.529968,1.128256,-0.251320,77.629997,3.080000,-103.949997,20.54
2118220,0.552904,1.221952,-0.287920,54.389999,5.670000,-99.330002,20.52
2118232,0.561688,1.284416,-0.305000,39.270000,9.170000,-89.949997,20.52
2118243,0.548512,1.344928,-0.261568,29.469999,11.480000,-80.779999,20.55
2118253,0.541192,1.338584,-0.183976,24.150000,13.580000,-72.800003,20.55
2118265,0.551928,1.392264,-0.121512,19.040001,11.970000,-58.310001,20.55
2118275,0.542168,1.451800,-0.068320,10.290000,9.730000,-42.000000,20.52
2118287,0.547048,1.454728,-0.039528,-0.070000,6.720000,-24.219999,20.52
2118299,0.548024,1.447408,-0.025376,-10.920000,4.550000,-6.510000,20.54
2118310,0.554368,1.429840,-0.025376,-20.370001,3.640000,9.310000,20.54
2118321,0.566080,1.405928,-0.012688,-31.010000,6.790000,15.750000,20.55
2118332,0.564616,1.378112,0.002928,-45.919998,-3.500000,32.410000,20.57
2118343,0.593896,1.297592,0.031720,-52.779999,-2.450000,36.750000,20.57
2118354,0.591944,1.238056,0.035136,-55.930000,0.980000,42.490002,20.55
2118364,0.586576,1.204872,0.031232,-60.970001,0.140000,48.439999,20.55
2118375,0.580232,1.174128,0.004392,-69.860001,-1.750000,54.250000,20.56
2118386,0.550464,1.152168,-0.020496,-85.750000,-8.610000,60.970001,20.53
2118397,0.557296,1.143872,-0.020496,-109.690002,-15.820000,65.449997,20.53
2118409,0.559736,1.036512,-0.004880,-121.239998,-17.150000,71.190002,20.55
2118420,0.557784,0.974536,0.025864,-132.160004,-19.180000,77.070000,20.55
2118430,0.567056,0.948184,0.044408,-139.089996,-19.740000,78.889999,20.55
2118442,0.577792,0.879864,0.051728,-142.869995,-20.510000,81.339996,20.55
2118452,0.579256,0.841312,0.062464,-145.600006,-21.910000,83.230003,20.54
2118463,0.582672,0.821304,0.065392,-148.330002,-24.780001,84.910004,20.55
2118474,0.607560,0.808616,0.089304,-150.919998,-24.639999,86.870003,20.55
2118486,0.620248,0.728584,0.149816,-144.759995,-27.719999,87.080002,20.57
2118497,0.635376,0.657336,0.064416,-133.350006,-23.940001,87.709999,20.57
2118508,0.653432,0.615856,0.042944,-125.930000,-22.190001,89.040001,20.55
2118519,0.655872,0.620736,0.028792,-122.570000,-24.430000,88.970001,20.52
2118530,0.661240,0.645136,0.103456,-132.789993,-27.370001,93.800003,20.52
2118541,0.670512,0.631472,0.138104,-148.750000,-31.639999,96.739998,20.53
2118552,0.669048,0.606096,0.149816,-168.070007,-38.430000,95.970001,20.53
2118563,0.705648,0.642208,0.317688,-181.580002,-44.520000,94.220001,20.54
2118574,0.695400,0.493856,0.160552,-198.869995,-44.799999,90.860001,20.51
2118584,0.728096,0.407968,0.164456,-202.229996,-45.709999,85.820000,20.51
2118595,0.766648,0.272792,0.160064,-190.330002,-44.310001,79.099998,20.54
2118606,0.789096,0.229848,0.184952,-172.270004,-42.349998,74.620003,20.54
2118618,0.775920,0.222040,0.176656,-149.520004,-38.990002,70.769997,20.57
2118629,0.800808,0.212768,0.167384,-137.619995,-38.290001,69.790001,20.50
2118639,0.812520,0.221552,0.164456,-129.149994,-39.900002,69.510002,20.50
2118650,0.832040,0.208376,0.151768,-122.080002,-40.950001,69.160004,20.52
2118661,0.850096,0.165920,0.152256,-113.470001,-42.349998,67.760002,20.52
2118672,0.864248,0.119560,0.175680,-105.910004,-43.400002,65.870003,20.55
2118683,0.867176,0.094672,0.189344,-96.459999,-43.330002,61.880001,20.55
2118694,0.871080,0.090768,0.199104,-90.720001,-43.470001,58.730000,20.52
2118705,0.885232,0.065880,0.191296,-82.320000,-42.279999,51.799999,20.55
2118716,0.906704,0.003904,0.160064,-70.559998,-38.009998,45.150002,20.55
2118727,0.912560,-0.023424,0.143960,-56.840000,-33.810001,36.820000,20.57
2118738,0.936472,-0.074664,-0.007808,-38.150002,-26.180000,28.629999,20.57
2118749,0.982344,-0.188368,0.075152,-18.969999,-18.200001,20.650000,20.56
2118760,0.981856,-0.210328,0.089792,5.390000,-9.730000,15.190000,20.52
2118772,0.979416,-0.183976,0.113216,27.440001,-5.600000,8.680000,20.52
2118784,0.967216,-0.144936,0.128344,46.130001,0.210000,3.500000,20.54
2118795,0.933544,-0.136640,0.124440,66.849998,3.360000,-3.010000,20.54
2118806,0.935496,-0.133712,0.121024,90.720001,7.560000,-9.170000,20.59
2118817,0.932568,-0.091744,0.114192,105.559998,11.410000,-17.920000,20.55
2118828,0.929640,-0.067832,0.112240,116.129997,14.420000,-28.350000,20.55
2118839,0.929640,-0.045872,0.112240,124.389999,17.080000,-37.939999,20.56
2118850,0.894504,0.023424,0.108824,126.139999,18.410000,-45.639999,20.56
2118861,0.891088,0.045384,0.121512,124.180000,17.290001,-54.599998,20.58
2118872,0.899872,0.048800,0.136152,122.080002,19.670000,-62.720001,20.52
2118883,0.885720,0.049776,0.139568,127.540001,22.540001,-69.019997,20.52
2118893,0.871568,0.073200,0.123464,135.660004,25.760000,-75.110001,20.56
2118904,0.869128,0.070760,0.104920,157.500000,30.730000,-80.360001,20.56
2118915,0.835456,0.146400,0.082472,177.169998,36.680000,-85.680000,20.57
2118926,0.816424,0.154696,0.077592,198.729996,39.270000,-93.029999,20.57
2118937,0.807152,0.227896,0.073200,218.750000,40.669998,-96.669998,20.54
2118948,0.770064,0.307928,0.069296,239.050003,40.180000,-104.160004,20.52
2118959,0.762744,0.290848,0.061000,264.040009,38.430000,-111.089996,20.52
2118970,0.732976,0.315736,0.083936,284.619995,35.630001,-119.699997,20.54
2118981,0.633912,0.198616,-0.153720,297.149994,42.070000,-130.130005,20.54
2118992,0.678320,0.416752,0.081496,293.790009,26.950001,-131.250000,20.55
2119003,0.632936,0.527528,0.064416,284.760010,22.330000,-134.330002,20.52
