timestamp_ms,ax,ay,az,gx,gy,gz,tempC
2451831,0.371368,0.813008,0.764696,195.229996,-99.260002,86.519997,22.00
2451844,0.420656,0.809592,0.695888,189.979996,-96.949997,94.500000,22.00
2451855,0.454328,0.765184,0.652456,184.869995,-94.010002,97.089996,21.96
2451866,0.492392,0.694424,0.614880,175.910004,-92.120003,98.769997,21.98
2451877,0.545584,0.684664,0.600240,167.300003,-90.440002,99.470001,21.98
2451888,0.571936,0.752984,0.580720,155.820007,-88.339996,99.889999,21.96
2451899,0.592920,0.734928,0.549000,144.550003,-85.540001,98.629997,21.96
2451910,0.615368,0.715896,0.521672,133.419998,-83.089996,97.790001,21.98
2451921,0.634888,0.727608,0.476288,116.269997,-81.830002,98.419998,21.96
2451931,0.665632,0.675392,0.425048,99.610001,-80.779999,98.070000,21.96
2451942,0.721264,0.633424,0.376248,89.809998,-75.320000,96.949997,22.00
2451953,0.708576,0.664656,0.368440,77.279999,-70.139999,97.650002,22.00
2451964,0.716872,0.604632,0.361608,62.930000,-67.339996,96.949997,22.00
2451975,0.762744,0.544120,0.361608,50.540001,-64.260002,98.839996,22.00
2451986,0.750056,0.524112,0.358680,46.480000,-62.509998,100.800003,21.98
2451997,0.785192,0.520696,0.339160,44.939999,-61.110001,102.620003,21.96
2452008,0.808128,0.521184,0.325984,45.779999,-57.959999,102.970001,21.96
2452019,0.807152,0.505080,0.297192,44.310001,-55.299999,100.309998,21.96
2452030,0.827648,0.483120,0.273280,37.240002,-53.900002,98.000000,21.96
2452041,0.784704,0.516792,0.254736,35.840000,-50.400002,97.089996,21.94
2452051,0.772016,0.472384,0.238144,35.349998,-50.189999,95.760002,21.96
2452062,0.804224,0.438224,0.213744,33.250000,-47.250000,94.779999,21.96
2452073,0.820328,0.376736,0.208376,29.540001,-43.959999,94.290001,21.97
2452084,0.839360,0.354288,0.204472,28.280001,-40.880001,92.680000,21.97
2452095,0.836432,0.348920,0.210816,24.709999,-39.340000,92.190002,21.98
2452106,0.834480,0.350872,0.203496,23.100000,-37.099998,90.019997,21.98
2452117,0.830576,0.329400,0.190320,21.280001,-36.680000,87.709999,21.97
2452128,0.825208,0.353312,0.188368,20.650000,-33.459999,85.750000,21.99
2452138,0.806176,0.369416,0.176168,0.490000,-32.480000,83.510002,21.99
2452149,0.821304,0.337208,0.162504,13.230000,-32.900002,82.180000,21.98
2452161,0.844728,0.298656,0.198128,6.090000,-33.810001,78.750000,21.98
2452171,0.872056,0.253760,0.192272,0.770000,-33.669998,77.349998,21.96
2452182,0.867664,0.242048,0.167384,-6.510000,-34.509998,76.510002,21.94
2452193,0.871568,0.228872,0.132736,-10.150000,-33.459999,75.250000,21.94
2452204,0.841800,0.289872,0.109800,-8.330000,-30.590000,75.389999,21.99
2452215,0.846680,0.287920,0.089304,-7.070000,-29.889999,74.760002,21.99
2452226,0.866688,0.219112,0.104432,-1.960000,-30.240000,72.449997,21.97
2452237,0.885720,0.184464,0.117608,5.460000,-28.700001,70.209999,21.97
2452248,0.894016,0.185440,0.119072,12.460000,-28.350000,68.949997,21.97
2452259,0.912560,0.180072,0.122488,17.360001,-29.190001,67.269997,21.96
2452270,0.917928,0.172752,0.135664,19.530001,-28.350000,66.220001,21.96
2452281,0.932568,0.153720,0.122976,20.650000,-28.490000,65.309998,21.96
2452292,0.924760,0.146400,0.110776,24.920000,-26.530001,62.930000,21.96
2452302,0.904264,0.133712,0.083936,30.590000,-24.219999,61.110001,21.98
2452313,0.914512,0.109800,0.071248,35.419998,-21.910000,58.939999,21.97
2452324,0.920856,0.083448,0.084912,42.139999,-20.090000,55.720001,21.97
2452335,0.934032,0.101992,0.093208,46.900002,-17.639999,54.180000,22.00
2452346,0.928664,0.108336,0.098088,46.900002,-18.270000,51.380001,22.00
2452357,0.929152,0.088816,0.095648,42.980000,-19.459999,47.950001,21.96
2452368,0.929640,0.054168,0.107848,35.840000,-21.910000,45.709999,21.94
2452379,0.912072,0.046848,0.101992,34.650002,-23.590000,42.770000,21.94
2452390,0.904264,0.022448,0.083448,33.110001,-24.430000,39.060001,21.96
2452400,0.905240,0.012688,0.077104,30.940001,-24.920000,36.750000,21.96
2452411,0.910120,-0.030256,0.072712,31.850000,-25.969999,32.970001,22.01
2452422,0.912072,-0.055144,0.065880,37.799999,-25.549999,29.610001,22.01
2452433,0.910608,-0.044408,0.054168,43.330002,-25.830000,27.440001,21.98
2452444,0.929152,-0.048312,0.024888,47.599998,-23.870001,23.309999,21.93
2452455,0.923784,-0.042944,-0.016104,47.040001,-21.280001,18.900000,21.93
2452466,0.924272,-0.043432,-0.041480,43.610001,-19.320000,14.420000,21.98
2452477,0.918904,-0.052704,-0.070272,40.669998,-15.750000,9.870000,21.98
2452488,0.912072,-0.078080,-0.091256,41.860001,-12.320000,3.150000,21.99
2452500,0.910608,-0.106872,-0.131272,44.310001,-7.770000,-4.060000,21.95
2452511,0.915488,-0.130784,-0.156648,49.349998,-4.200000,-11.550000,21.95
2452522,0.916464,-0.159088,-0.164944,55.509998,-1.330000,-17.430000,21.97
2452533,0.918416,-0.193736,-0.171776,67.760002,3.430000,-24.920000,21.97
2452544,0.861808,-0.243024,-0.298168,66.150002,9.380000,-36.470001,21.98
2452555,0.864736,-0.151768,-0.301584,91.139999,15.330000,-42.209999,21.94
2452566,0.935008,-0.184464,-0.241072,104.230003,19.250000,-44.590000,21.94
2452577,0.888160,-0.153720,-0.238144,112.489998,28.840000,-54.529999,21.99
2452588,0.890112,-0.121512,-0.234240,117.809998,33.950001,-60.549999,21.99
2452600,0.880352,-0.102968,-0.236192,120.050003,38.430000,-69.019997,21.97
2452611,0.875960,-0.088328,-0.246928,123.480003,45.080002,-79.379997,21.94
2452623,0.874008,-0.109312,-0.277672,130.619995,50.820000,-90.720001,21.94
2452634,0.865224,-0.123952,-0.288408,143.500000,57.119999,-103.459999,21.98
2452645,0.834968,-0.061000,-0.285968,151.339996,66.080002,-113.610001,21.98
2452656,0.800808,0.016104,-0.357704,154.559998,70.980003,-125.720001,21.97
2452667,0.777872,0.153232,-0.193248,140.770004,73.220001,-135.449997,21.91
2452678,0.732000,0.207888,-0.110776,134.190002,74.900002,-144.899994,21.91
2452689,0.714920,0.322080,-0.040016,112.629997,74.059998,-153.929993,21.95
2452700,0.699792,0.240584,0.047336,113.959999,72.800003,-169.259995,21.95
2452711,0.695400,0.152744,0.162992,121.379997,74.059998,-196.770004,21.99
2452722,0.650016,0.248392,0.195200,113.750000,78.750000,-181.300003,21.96
2452733,0.635376,0.357216,0.188856,105.209999,78.959999,-187.179993,21.96
2452744,0.608048,0.535824,0.197640,84.419998,78.330002,-180.600006,21.97
2452755,0.568520,0.824720,0.203496,64.050003,72.589996,-170.660004,21.97
2452765,0.635376,1.068720,0.187392,42.490002,71.820000,-153.369995,21.99
2452776,0.574376,1.078968,0.220576,23.940001,64.470001,-144.059998,21.99
2452787,0.558272,1.102392,0.274256,19.879999,55.369999,-130.550003,21.98
2452798,0.536800,1.290760,0.359656,26.110001,51.099998,-112.419998,21.94
2452809,0.553880,1.454240,0.430416,27.580000,39.689999,-91.279999,21.94
2452820,0.576816,1.538176,0.484096,29.540001,28.209999,-71.400002,21.98
2452831,0.605608,1.523048,0.519232,31.010000,22.540001,-50.540001,21.98
2452841,0.631960,1.555256,0.520696,26.389999,12.810000,-33.810001,21.99
2452852,0.668072,1.601128,0.470920,1.680000,4.690000,-13.090000,21.99
2452863,0.693448,1.618208,0.415776,3.430000,-0.490000,4.410000,21.91
2452874,0.699792,1.576728,0.401624,-14.280000,-6.580000,16.799999,21.94
2452885,0.720776,1.464976,0.394304,-31.290001,-11.620000,31.850000,21.94
2452896,0.731512,1.309304,0.419192,-37.380001,-17.570000,44.169998,21.96
2452907,0.712968,1.220976,0.411872,-37.450001,-22.469999,54.950001,21.96
2452918,0.709552,1.088240,0.255224,-33.180000,-27.580000,63.139999,22.00
2452929,0.706136,1.025776,0.325008,-31.150000,-34.720001,70.769997,21.96
2452940,0.697352,0.977952,0.261568,-29.750000,-35.770000,80.290001,21.96
2452951,0.678320,0.954040,0.198128,-32.340000,-39.480000,87.709999,21.98
2452962,0.678808,0.936960,0.167872,-38.570000,-40.950001,96.669998,21.98
2452974,0.678320,0.896456,0.156648,-50.470001,-44.240002,105.769997,21.96
2452985,0.680760,0.817400,0.164944,-53.830002,-44.099998,107.800003,21.96
2452996,0.691984,0.708576,0.184464,-51.099998,-42.840000,110.809998,21.96
2453007,0.682712,0.695888,0.151768,-42.630001,-42.000000,111.860001,21.96
2453018,0.704184,0.676856,0.129320,-40.529999,-40.180000,112.769997,21.96
2453029,0.705160,0.633912,0.101016,-44.099998,-41.369999,112.489998,21.95
2453040,0.746640,0.596336,0.061976,-47.459999,-35.419998,113.050003,21.97
2453051,0.733464,0.583160,0.057096,-57.750000,-36.680000,114.379997,21.97
2453062,0.744200,0.569984,0.035624,-67.690002,-36.400002,114.029999,21.95
2453073,0.754448,0.543632,0.026352,-84.629997,-36.400002,113.889999,21.95
2453084,0.752496,0.458232,0.038064,-96.250000,-36.959999,111.790001,21.95
2453095,0.720288,0.276696,-0.029768,-93.800003,-35.910000,100.239998,21.95
2453106,0.780800,0.206912,0.083448,-91.769997,-33.950001,103.879997,21.93
2453117,0.783728,0.162504,0.082472,-83.860001,-30.450001,100.449997,21.96
2453128,0.772992,0.142984,0.024888,-70.000000,-30.100000,90.160004,21.96
2453138,0.815936,0.131272,0.058560,-71.260002,-28.139999,91.699997,21.96
2453150,0.818864,0.125904,0.032696,-70.279999,-25.969999,88.410004,21.96
2453161,0.827648,0.106384,0.012688,-73.150002,-26.879999,85.400002,22.00
2453172,0.854000,0.061000,-0.011712,-77.629997,-26.389999,81.620003,21.96
2453183,0.850584,0.042456,0.000488,-86.940002,-26.950001,77.209999,21.96
2453194,0.839360,0.009760,0.025864,-95.760002,-29.260000,70.489998,21.96
2453205,0.846192,-0.125416,0.040504,-88.129997,-30.100000,63.279999,21.96
2453216,0.863272,-0.221064,0.039528,-57.959999,-28.629999,55.509998,21.98
2453227,0.879864,-0.259128,0.013664,-53.060001,-26.040001,46.549999,21.93
2453238,0.898408,-0.296704,-0.018544,-30.240000,-24.780001,36.259998,21.93
2453249,0.910608,-0.330864,-0.038552,-6.160000,-16.030001,29.190001,21.98
2453260,0.914024,-0.338672,-0.078080,8.120000,-10.990000,20.440001,21.98
2453272,0.939400,-0.358680,-0.118584,20.580000,-4.270000,10.710000,21.98
2453283,0.954528,-0.366976,-0.140544,26.879999,0.490000,2.520000,21.96
2453294,0.937448,-0.359168,-0.142496,32.830002,4.760000,-8.470000,21.96
2453305,0.933544,-0.378688,-0.137616,42.000000,9.590000,-17.639999,21.94
2453316,0.927688,-0.399672,-0.150792,52.500000,13.930000,-31.080000,21.94
2453327,0.923296,-0.433344,-0.173728,70.559998,18.410000,-47.040001,21.93
2453338,0.922808,-0.422608,-0.194224,89.949997,24.780001,-59.009998,21.93
2453349,0.899872,-0.406504,-0.196664,110.739998,31.430000,-74.690002,21.93
2453360,0.895968,-0.398696,-0.194712,127.120003,40.110001,-89.459999,21.98
2453371,0.878888,-0.339160,-0.193248,144.130005,47.740002,-103.040001,21.98
2453382,0.833992,-0.254736,-0.185928,164.570007,55.230000,-115.010002,21.97
2453393,0.793488,-0.149816,-0.155672,167.440002,60.480000,-128.309998,21.97
2453404,0.764696,-0.074176,-0.103944,169.610001,61.180000,-141.820007,21.97
2453415,0.735416,-0.032696,-0.003904,166.179993,58.730000,-153.160004,21.99
2453426,0.699792,-0.014640,0.063928,174.929993,57.330002,-168.419998,21.99
2453437,0.650016,0.113704,0.113216,174.649994,56.070000,-179.059998,21.96
2453448,0.606584,0.215696,0.098088,179.970001,52.639999,-190.119995,21.96
2453459,0.574376,0.302072,-0.071248,194.179993,56.630001,-193.830002,21.98
2453470,0.574864,0.733464,0.052216,189.070007,49.770000,-187.320007,21.95
2453481,0.571448,0.892064,-0.003904,174.720001,45.080002,-185.080002,21.95
2453492,0.624152,0.814960,-0.124928,154.350006,42.279999,-182.070007,21.98
2453503,0.561688,0.856440,0.008784,150.289993,46.970001,-176.399994,21.98
2453514,0.487512,1.135088,-0.007320,136.850006,49.070000,-156.869995,21.95
2453525,0.490928,1.516704,-0.079544,98.769997,47.599998,-136.850006,21.92
2453536,0.512888,1.750456,-0.047336,42.349998,34.439999,-106.470001,21.92
2453547,0.519720,1.764120,0.094184,14.280000,24.080000,-77.349998,21.93
2453558,0.534360,1.804624,0.238144,-3.570000,20.790001,-47.389999,21.93
2453569,0.632936,1.738256,0.309880,-12.880000,13.020000,-35.910000,21.96
2453580,0.660752,1.645536,0.343064,-12.600000,6.650000,-20.160000,21.96
2453592,0.703208,1.632360,0.338184,-14.560000,3.570000,0.420000,21.93
2453603,0.738832,1.591368,0.302072,-21.139999,0.700000,18.270000,21.96
2453613,0.753472,1.575264,0.241072,-32.410000,-1.050000,30.100000,21.96
2453624,0.763720,1.496696,0.236192,-49.209999,-5.670000,48.020000,21.96
2453636,0.742248,1.467416,0.236192,-70.629997,-12.250000,63.490002,21.96
2453647,0.732488,1.371280,0.234240,-91.279999,-16.379999,79.239998,21.93
2453658,0.717360,1.232688,0.249856,-102.970001,-23.450001,88.690002,21.97
2453669,0.702232,1.099464,0.256200,-106.610001,-26.530001,97.720001,21.97
2453680,0.671488,1.037488,0.219600,-106.959999,-32.200001,107.309998,21.98
2453690,0.667584,0.993568,0.174216,-110.669998,-35.980000,111.650002,21.98
2453701,0.694424,0.912560,0.185928,-110.949997,-41.090000,115.919998,21.94
2453712,0.695400,0.874496,0.139568,-111.580002,-39.759998,121.239998,21.95
2453723,0.699304,0.888648,0.122976,-116.970001,-38.990002,125.860001,21.95
2453734,0.698816,0.863760,0.134200,-128.240005,-41.439999,127.050003,21.96
2453745,0.704184,0.764696,0.142008,-138.669998,-41.299999,132.929993,21.96
2453756,0.699792,0.679784,0.125904,-146.860001,-39.549999,133.279999,21.91
2453767,0.682712,0.633424,0.135664,-152.809998,-42.139999,134.050003,21.95
2453778,0.696376,0.562664,0.168360,-162.050003,-48.369999,133.699997,21.95
2453789,0.698816,0.486536,0.170800,-166.740005,-55.509998,133.490005,21.98
2453800,0.699792,0.412360,0.158600,-164.080002,-53.619999,133.910004,21.98
2453811,0.716384,0.371368,0.134200,-168.139999,-52.779999,135.029999,21.97
2453823,0.737856,0.287432,0.105896,-170.940002,-53.759998,131.179993,21.90
2453834,0.751520,0.198616,0.110288,-161.419998,-53.340000,125.790001,21.90
2453845,0.760304,0.085400,0.080032,-165.339996,-48.439999,119.769997,21.97
2453856,0.766648,-0.021960,0.074664,-156.729996,-47.180000,113.050003,21.97
2453867,0.772504,-0.125904,0.074176,-146.089996,-47.810001,103.809998,21.96
2453878,0.796416,-0.172264,0.053192,-136.149994,-44.450001,98.349998,21.96
2453889,0.793000,-0.180072,0.045872,-127.820000,-45.220001,91.349998,21.96
2453900,0.809592,-0.235216,0.021960,-118.089996,-45.430000,84.000000,21.95
2453911,0.820816,-0.261568,0.002440,-114.099998,-45.709999,76.440002,21.95
2453922,0.822768,-0.307440,-0.006832,-109.410004,-47.180000,66.010002,21.94
2453933,0.836920,-0.376736,-0.010248,-101.010002,-47.810001,53.270000,21.94
2453945,0.854000,-0.476288,-0.028792,-87.919998,-45.709999,42.070000,21.98
2453956,0.882792,-0.580720,-0.061976,-67.830002,-41.369999,27.719999,21.91
2453967,0.920368,-0.598776,-0.106872,-49.279999,-37.169998,12.810000,21.91
2453978,0.931104,-0.610976,-0.138104,-22.190001,-26.879999,0.490000,21.95
2453989,0.924272,-0.583648,-0.184952,5.950000,-17.570000,-11.060000,21.95
2454000,0.933544,-0.557296,-0.212280,29.680000,-7.140000,-24.570000,21.93
2454011,0.936472,-0.548024,-0.240584,46.830002,3.360000,-37.169998,21.94
2454023,0.944768,-0.545584,-0.255712,69.160004,12.530000,-50.750000,21.94
2454034,0.937448,-0.549976,-0.255712,94.849998,19.389999,-63.349998,21.95
2454045,0.937936,-0.523624,-0.250832,118.440002,25.410000,-73.290001,21.95
2454056,0.930616,-0.488000,-0.243024,134.610001,30.450001,-85.120003,21.93
2454067,0.912560,-0.424072,-0.203008,149.029999,34.930000,-95.970001,21.91
2454078,0.866688,-0.332328,-0.177632,162.470001,40.250000,-106.120003,21.91
2454089,0.835944,-0.201056,-0.156160,171.149994,44.099998,-116.269997,21.94
2454100,0.808128,-0.063440,-0.116632,169.960007,47.040001,-127.750000,21.94
2454111,0.813008,-0.024400,-0.087840,169.539993,50.889999,-139.160004,21.93
2454122,0.773480,0.081496,-0.059048,168.350006,55.860001,-148.119995,21.95
2454133,0.731024,0.158600,-0.027328,174.509995,57.189999,-159.600006,21.95
2454144,0.745664,0.226432,0.011224,187.320007,58.730000,-167.440002,21.90
2454154,0.715408,0.324032,0.029280,202.369995,61.180000,-170.589996,21.90
2454165,0.677344,0.407968,0.051728,229.039993,64.050003,-179.130005,21.97
2454176,0.670512,0.561688,0.081008,234.500000,63.279999,-174.929993,21.97
2454187,0.649528,0.767136,0.123464,221.759995,59.779999,-173.949997,21.93
2454198,0.643184,0.799832,0.144448,216.509995,51.310001,-174.509995,21.95
2454209,0.640256,0.786656,0.114680,203.139999,48.720001,-168.699997,21.95
2454220,0.606096,0.829600,0.117120,195.789993,44.099998,-165.830002,21.95
2454230,0.566568,1.021872,0.138104,169.960007,43.189999,-154.770004,21.95
2454241,0.595848,1.118984,0.061488,127.400002,38.220001,-136.429993,21.95
2454252,0.606584,1.282952,-0.028792,84.559998,35.560001,-120.820000,21.94
2454263,0.595360,1.503528,-0.039528,49.630001,26.879999,-92.470001,21.94
2454274,0.589992,1.614304,-0.004392,15.120000,22.889999,-67.269997,21.91
2454285,0.646112,1.558184,0.114192,-6.510000,13.860000,-52.009998,21.91
2454296,0.667096,1.407880,0.219112,-12.110000,9.800000,-37.939999,21.98
2454307,0.675392,1.384456,0.294752,-5.040000,10.010000,-25.760000,21.98
2454318,0.697352,1.424472,0.310856,-1.260000,5.950000,-9.730000,21.93
2454329,0.724192,1.420080,0.290848,1.540000,3.710000,2.520000,21.94
2454340,0.723216,1.396168,0.263032,1.120000,1.400000,19.459999,21.94
2454351,0.725656,1.378600,0.237168,-6.790000,-1.960000,31.010000,21.94
2454361,0.753960,1.391288,0.239120,-21.490000,-3.150000,47.250000,21.94
2454372,0.731512,1.356152,0.233752,-47.389999,-9.170000,63.560001,21.97
2454383,0.733952,1.278072,0.203496,-71.120003,-12.880000,74.339996,21.95
2454394,0.717360,1.167784,0.189832,-107.309998,-17.920000,87.570000,21.95
2454405,0.704672,1.039440,0.187880,-101.290001,-23.520000,95.269997,21.93
2454416,0.705160,0.984296,0.165432,-103.529999,-25.549999,99.540001,21.93
2454427,0.701256,0.970632,0.149816,-104.300003,-25.900000,104.720001,21.95
2454438,0.692960,0.890112,0.129808,-105.769997,-27.510000,107.940002,21.95
2454449,0.663680,0.816912,0.130296,-103.599998,-31.639999,108.989998,21.91
2454460,0.715408,0.789584,0.079056,-106.959999,-27.230000,112.980003,21.96
2454471,0.723216,0.740784,0.078568,-116.550003,-25.340000,117.949997,21.96
2454482,0.739320,0.665632,0.093696,-129.149994,-27.930000,120.190002,21.95
2454493,0.729560,0.623176,0.103456,-138.949997,-28.629999,124.040001,21.95
2454504,0.706136,0.639280,0.142496,-156.100006,-32.410000,131.250000,21.94
2454515,0.688080,0.606584,0.160064,-170.169998,-40.040001,133.070007,21.94
2454526,0.711992,0.495808,0.191784,-182.070007,-43.610001,134.610001,21.94
2454537,0.713944,0.399184,0.179096,-188.300003,-45.360001,133.839996,21.98
2454548,0.722240,0.312320,0.162016,-195.789993,-48.230000,130.479996,21.98
2454559,0.728584,0.328424,0.245952,-197.190002,-49.630001,124.459999,21.95
2454570,0.763720,0.222040,0.085888,-206.289993,-45.709999,120.610001,21.93
2454581,0.762744,0.124440,0.042456,-206.570007,-45.220001,113.330002,21.93
2454592,0.781776,0.018544,0.009760,-201.600006,-42.560001,105.910004,21.93
2454603,0.793976,-0.044896,0.002928,-193.199997,-40.599998,100.589996,21.93
2454614,0.791048,-0.106384,0.008296,-186.550003,-40.320000,92.889999,21.94
2454625,0.810080,-0.221064,0.021960,-180.110001,-41.580002,83.230003,21.94
2454636,0.796904,-0.313784,0.145912,-165.550003,-47.459999,72.519997,21.99
2454647,0.839360,-0.398208,0.040504,-143.639999,-43.959999,66.919998,21.91
2454658,0.853024,-0.438224,0.022448,-120.400002,-45.570000,58.099998,21.91
2454669,0.856440,-0.474824,-0.007320,-103.949997,-48.090000,41.439999,21.93
2454680,0.926712,-0.522648,-0.016592,-87.849998,-42.980000,37.450001,21.93
2454691,0.914512,-0.552904,-0.044408,-69.930000,-36.330002,27.510000,21.93
2454703,0.924272,-0.546072,-0.047824,-54.040001,-28.700001,13.860000,21.90
2454714,0.932080,-0.585112,-0.059536,-33.250000,-17.709999,-1.330000,21.90
2454725,0.915000,-0.626104,-0.073200,-11.200000,-6.860000,-17.920000,21.98
2454736,0.918416,-0.609024,-0.075152,17.430000,3.010000,-33.459999,21.98
2454747,0.909632,-0.583648,-0.088328,47.320000,13.930000,-47.250000,21.94
2454758,0.900848,-0.567056,-0.102968,78.400002,21.559999,-61.950001,21.95
2454769,0.887184,-0.533384,-0.124928,104.930000,29.190001,-75.040001,21.95
2454780,0.884744,-0.476288,-0.155184,140.910004,34.369999,-86.239998,21.95
2454792,0.870592,-0.386008,-0.190320,169.750000,41.299999,-92.680000,21.95
2454803,0.866200,-0.294264,-0.210816,190.889999,45.430000,-100.730003,21.96
2454814,0.854488,-0.218624,-0.208864,204.050003,49.419998,-109.199997,21.92
2454825,0.830088,-0.167384,-0.184464,225.050003,51.799999,-119.000000,21.92
2454836,0.794464,-0.061976,-0.147376,245.770004,56.560001,-126.070000,21.96
2454847,0.744200,0.122488,-0.115168,252.210007,58.029999,-133.630005,21.96
2454858,0.744200,0.246440,-0.057096,255.289993,57.889999,-141.750000,21.95
2454869,0.717360,0.286944,0.054168,259.980011,58.240002,-149.169998,21.91
2454880,0.692960,0.244976,0.034160,274.750000,61.320000,-160.020004,21.91
2454891,0.669536,0.363072,0.046360,272.160004,57.119999,-167.929993,21.91
2454902,0.663680,0.435784,0.113216,255.149994,54.740002,-172.410004,21.91
2454912,0.678808,0.446032,0.104920,236.600006,51.939999,-179.759995,21.98
2454923,0.655872,0.502640,0.147864,220.360001,47.810001,-181.929993,21.98
2454934,0.604632,0.620248,0.093208,202.580002,47.880001,-181.369995,21.93
2454945,0.536312,0.856928,0.089792,181.089996,43.049999,-178.080002,21.98
2454956,0.536312,0.962824,0.072224,170.869995,39.970001,-172.479996,21.98
2454966,0.565104,1.026752,0.013664,160.089996,35.349998,-165.759995,21.93
2454977,0.568032,1.123864,-0.050752,142.729996,36.049999,-154.419998,21.93
2454988,0.556808,1.244888,-0.079056,112.980003,31.570000,-138.110001,21.94
2454999,0.523624,1.374696,-0.013176,83.160004,28.350000,-121.099998,21.95
2455010,0.474336,1.526952,0.078568,52.919998,21.070000,-97.230003,21.95
2455021,0.480192,1.581120,0.204472,37.099998,13.230000,-71.750000,21.95
2455032,0.499712,1.616256,0.249856,27.790001,5.460000,-50.820000,21.95
2455043,0.555344,1.671400,0.256200,24.990000,0.280000,-28.770000,21.96
2455054,0.597312,1.679208,0.239608,26.110001,-3.920000,-15.470000,21.96
2455065,0.642208,1.634800,0.198616,24.010000,-4.970000,16.590000,21.95
2455076,0.660752,1.595760,0.165432,14.280000,-6.090000,14.420000,21.92
2455086,0.691984,1.530368,0.154696,-3.010000,-7.210000,27.930000,21.92
2455097,0.695400,1.490840,0.155184,-26.110001,-8.050000,39.060001,21.92
2455109,0.700768,1.410808,0.128832,-46.549999,-10.920000,52.150002,21.92
2455120,0.697840,1.295152,0.105408,-59.709999,-15.330000,63.349998,21.93
2455131,0.692472,1.171688,0.068808,-66.849998,-17.709999,72.940002,21.96
2455142,0.688568,1.101416,0.054168,-67.199997,-19.459999,79.449997,21.96
2455153,0.680272,1.018944,0.070760,-61.740002,-19.600000,84.489998,21.95
2455163,0.682712,0.991616,0.071736,-57.959999,-20.090000,92.190002,21.95
2455174,0.687592,0.998936,0.052704,-59.220001,-18.410000,96.879997,21.94
2455185,0.672952,0.986736,0.034648,-64.959999,-18.129999,104.510002,21.93
2455196,0.685152,0.985760,0.013664,-75.739998,-15.540000,109.830002,21.93
2455207,0.674416,0.974536,0.008296,-94.430000,-13.860000,115.080002,21.93
2455218,0.675392,0.915976,0.015616,-117.669998,-11.060000,117.809998,21.93
2455229,0.668560,0.753472,0.044408,-133.279999,-10.290000,117.040001,21.98
2455240,0.669048,0.701744,0.048312,-137.970001,-8.120000,119.699997,21.98
2455251,0.671976,0.679784,0.071248,-146.649994,-11.900000,118.790001,21.88
2455262,0.684176,0.622688,0.084424,-156.169998,-13.790000,122.220001,21.93
2455273,0.675880,0.565592,0.085400,-162.750000,-19.459999,122.989998,21.93
2455284,0.674904,0.549000,0.083936,-176.050003,-24.219999,121.589996,21.95
2455295,0.706624,0.565104,0.222528,-194.039993,-33.669998,122.639999,21.95
2455306,0.714432,0.354776,0.105408,-202.020004,-33.180000,121.309998,21.90
2455317,0.671976,0.190808,0.112240,-193.059998,-51.380001,114.099998,21.92
2455328,0.708576,0.162992,0.138104,-203.070007,-32.759998,113.680000,21.92
2455339,0.712968,0.144448,0.132248,-206.639999,-32.410000,109.410004,21.93
2455350,0.703208,0.115656,0.182024,-211.820007,-36.119999,103.040001,21.93
2455361,0.729560,0.088328,0.104432,-229.110001,-36.400002,101.360001,21.93
2455372,0.713456,0.080032,0.079544,-247.169998,-41.020000,95.690002,21.93
2455383,0.728096,0.004880,0.078568,-259.980011,-46.410000,85.540001,21.94
2455394,0.761768,-0.095648,0.066368,-268.869995,-48.090000,74.550003,21.90
2455405,0.780800,-0.243024,0.046360,-264.390015,-47.389999,64.260002,21.90
2455416,0.756888,-0.400648,-0.142496,-242.410004,-46.410000,41.720001,21.94
2455427,0.834968,-0.442128,-0.025376,-230.229996,-43.889999,39.060001,21.94
2455438,0.867176,-0.532896,-0.062464,-203.910004,-38.709999,27.370001,21.92
2455449,0.900848,-0.634888,-0.089792,-167.229996,-31.430000,10.920000,21.91
2455460,0.924272,-0.711992,-0.130784,-129.639999,-22.049999,-3.850000,21.91
2455471,0.936472,-0.733952,-0.142496,-69.230003,-11.480000,-17.570000,21.93
2455482,0.935984,-0.698328,-0.134200,-13.160000,2.100000,-28.000000,21.93
2455493,0.930128,-0.660752,-0.114680,32.830002,12.110000,-40.040001,21.94
2455504,0.914024,-0.602680,-0.106384,63.980000,19.740000,-51.520000,21.95
2455515,0.908656,-0.553880,-0.094672,95.970001,23.799999,-64.820000,21.95
2455526,0.912072,-0.493368,-0.094184,125.720001,31.010000,-76.860001,21.91
2455537,0.896944,-0.403088,-0.108336,144.690002,39.270000,-90.580002,21.91
2455548,0.873032,-0.351848,-0.143472,171.779999,47.040001,-105.559998,21.90
2455559,0.848144,-0.279624,-0.142496,201.600006,54.740002,-118.370003,21.94
2455570,0.796904,-0.160064,-0.156160,228.270004,59.919998,-126.769997,21.94
2455581,0.812520,-0.142008,-0.161528,257.880005,66.360001,-138.949997,21.94
2455592,0.768112,-0.004392,-0.150304,284.410004,76.720001,-145.669998,21.94
2455603,0.700280,0.137128,-0.075152,302.820007,73.639999,-155.399994,21.95
2455614,0.706624,0.291336,-0.004392,309.190002,74.900002,-157.990005,21.95
2455625,0.645136,0.436272,0.026840,321.790009,74.059998,-160.649994,21.87
2455636,0.623664,0.534360,0.084912,333.410004,69.720001,-163.940002,21.89
2455647,0.615368,0.702232,0.101504,326.690002,62.720001,-166.250000,21.89
2455658,0.589504,0.692960,0.132248,333.970001,58.169998,-169.889999,21.95
2455668,0.591456,0.743712,0.010736,338.450012,53.830002,-172.130005,21.95
2455679,0.534848,0.980880,0.085400,323.679993,46.480000,-171.919998,21.93
2455690,0.526064,1.055544,0.043920,298.130005,37.240002,-172.899994,21.92
2455701,0.535336,0.976488,0.011224,274.820007,31.850000,-174.229996,21.92
2455712,0.541680,1.022848,-0.086376,238.490005,36.750000,-163.729996,21.95
2455723,0.454328,1.173152,-0.205936,192.429993,37.939999,-150.220001,21.95
2455734,0.423096,1.489376,-0.213256,129.220001,27.719999,-121.660004,21.95
2455745,0.450912,1.705560,-0.145424,81.339996,19.040001,-92.260002,21.95
2455756,0.462624,1.776808,-0.082472,38.009998,14.350000,-64.260002,21.98
2455767,0.505080,1.721176,-0.025864,15.120000,7.280000,-41.439999,21.88
2455778,0.548512,1.594296,0.026840,10.780000,3.430000,-31.430000,21.88
2455789,0.570472,1.504504,0.077104,14.700000,3.290000,-18.410000,21.95
2455800,0.587552,1.491328,0.104920,21.420000,3.850000,-7.420000,21.95
2455810,0.610488,1.499624,0.099064,21.000000,3.780000,7.770000,21.94
2455821,0.747616,1.489376,0.047336,14.700000,2.380000,22.330000,21.93
2455832,0.628544,1.518168,0.019520,-2.870000,0.910000,52.360001,21.93
2455843,0.618296,1.472784,0.008784,-31.080000,-7.000000,49.419998,21.93
2455854,0.623664,1.408368,0.025376,-51.799999,-9.940000,62.720001,21.93
2455865,0.621224,1.360544,0.039528,-74.760002,-12.950000,72.870003,21.96
2455876,0.624640,1.178032,0.061976,-79.169998,-14.840000,81.269997,21.96
2455887,0.619272,1.096536,0.050752,-73.500000,-13.230000,88.129997,21.95
2455898,0.602680,1.066280,0.010248,-67.339996,-14.280000,94.919998,21.90
2455909,0.596824,1.030656,-0.016104,-66.360001,-19.670000,97.089996,21.90
2455920,0.630496,1.024312,-0.048800,-68.529999,-17.150000,101.709999,21.95
2455931,0.615856,1.030656,-0.067832,-82.389999,-15.470000,109.900002,21.95
2455942,0.612928,1.030168,-0.054656,-109.199997,-18.830000,115.500000,21.95
2455953,0.638304,0.969656,-0.049288,-134.119995,-16.520000,117.250000,21.93
2455964,0.647088,0.725656,0.024888,-128.309998,-14.980000,116.550003,21.93
2455975,0.651968,0.605608,0.069784,-117.669998,-13.300000,115.849998,21.96
2455986,0.656360,0.592920,0.093696,-107.029999,-11.690000,114.940002,21.96
2455997,0.675880,0.594872,0.099552,-110.320000,-14.840000,115.709999,21.91
2456008,0.693448,0.591456,0.080032,-122.010002,-16.379999,116.480003,21.88
2456019,0.672464,0.613904,0.146888,-148.190002,-21.559999,119.980003,21.88
2456030,0.703696,0.662704,0.053680,-185.850006,-23.520000,121.589996,21.92
2456041,0.700280,0.618784,0.030256,-215.389999,-30.590000,122.010002,21.92
2456051,0.707600,0.626104,0.035136,-245.000000,-35.070000,118.580002,21.91
2456062,0.696864,0.357704,0.050752,-246.610001,-40.599998,114.449997,21.91
2456073,0.733464,0.155184,0.094672,-234.990005,-42.279999,106.050003,21.92
2456084,0.743712,0.080520,0.120048,-219.940002,-41.090000,98.769997,21.93
2456095,0.741760,0.062464,0.363072,-217.490005,-44.730000,94.430000,21.93
2456106,0.774456,0.120048,0.119072,-234.639999,-43.259998,89.320000,21.92
2456118,0.785680,0.055144,0.107360,-253.960007,-48.930000,81.480003,21.92
2456129,0.821304,-0.008296,0.129808,-261.869995,-53.549999,72.940002,21.87
2456140,0.833504,-0.024400,0.038064,-268.940002,-51.869999,69.160004,21.91
2456151,0.860344,-0.137128,0.009760,-252.910004,-50.680000,59.849998,21.91
2456162,0.889136,-0.298656,-0.002440,-227.639999,-46.270000,51.450001,21.91
2456173,0.873032,-0.325984,-0.023424,-189.000000,-42.279999,43.540001,21.91
2456184,0.895480,-0.330864,-0.024888,-154.210007,-37.660000,18.129999,21.92
2456196,0.921832,-0.395768,-0.034160,-112.489998,-30.870001,25.129999,21.93
2456207,0.923784,-0.434320,-0.043920,-68.739998,-22.889999,14.420000,21.93
2456218,0.925248,-0.409920,-0.054656,-38.709999,-14.840000,3.640000,21.92
2456229,0.935008,-0.435296,-0.057096,-2.100000,-7.070000,-6.790000,21.92
2456240,0.938424,-0.428464,-0.064416,29.330000,3.920000,-14.490000,21.90
2456251,0.917440,-0.367952,-0.074176,54.880001,13.930000,-24.150000,21.95
2456262,0.918904,-0.333304,-0.092720,70.699997,24.570000,-35.139999,21.95
2456275,0.906216,-0.332816,-0.104920,98.839996,34.369999,-48.509998,21.95
2456286,0.901336,-0.312808,-0.113216,119.910004,45.430000,-62.650002,21.95
2456297,0.890112,-0.285480,-0.101504,143.500000,54.810001,-74.690002,21.89
2456308,0.872056,-0.242536,-0.087352,164.220001,61.320000,-85.470001,21.90
2456319,0.837896,-0.197152,-0.054168,187.880005,66.709999,-94.430000,21.90
2456330,0.787144,-0.050264,-0.028792,199.850006,67.690002,-103.040001,21.93
2456341,0.751032,-0.095160,0.002440,226.380005,68.669998,-116.760002,21.93
2456352,0.760792,-0.058072,0.020984,248.779999,71.190002,-127.050003,21.94
2456363,0.737368,0.043920,0.058072,279.929993,72.589996,-135.589996,21.88
2456375,0.698816,0.169336,0.105408,303.450012,73.989998,-146.929993,21.88
2456386,0.659776,0.345992,0.143960,316.609985,72.870003,-152.880005,21.90
2456397,0.611464,0.432368,0.172752,329.000000,67.199997,-177.380005,21.90
2456407,0.608048,0.526064,0.206424,329.839996,61.389999,-164.639999,21.95
2456418,0.602192,0.630008,0.098088,318.079987,59.220001,-167.860001,21.92
2456429,0.586576,0.765672,0.119072,329.070007,45.150002,-162.679993,21.92
2456440,0.565104,0.881328,0.054656,342.299988,41.580002,-166.389999,21.95
2456451,0.577792,0.854000,-0.069784,334.739990,39.270000,-160.720001,21.95
2456462,0.574376,0.955992,-0.173240,313.950012,38.919998,-153.160004,21.94
2456473,0.537776,1.223416,-0.262544,262.429993,33.110001,-135.589996,21.93
2456484,0.499224,1.468392,-0.233264,214.270004,25.410000,-112.489998,21.93
2456495,0.492880,1.609424,-0.170800,151.550003,19.250000,-73.150002,21.91
2456506,0.501664,1.629432,-0.157624,103.809998,11.340000,-65.029999,21.91
2456517,0.541192,1.606984,-0.102968,79.239998,2.730000,-51.730000,21.96
2456528,0.591944,1.561112,-0.082472,58.590000,3.430000,-35.700001,21.96
2456539,0.631472,1.512312,-0.054656,42.349998,1.820000,-26.180000,21.93
2456550,0.640744,1.522072,-0.067832,29.330000,3.290000,-18.690001,21.89
2456561,0.654408,1.523048,-0.081496,16.309999,7.210000,-5.460000,21.89
2456573,0.666120,1.436184,-0.081496,11.200000,10.150000,5.810000,21.93
2456584,0.663680,1.392752,-0.080520,3.430000,8.400000,18.900000,21.93
2456595,0.649040,1.391288,-0.074664,-7.770000,5.460000,33.599998,21.94
2456606,0.640744,1.342976,-0.066856,-25.830000,0.630000,44.939999,21.87
2456617,0.636352,1.315648,-0.067344,-42.770000,-3.080000,59.570000,21.87
2456628,0.634888,1.269288,-0.085888,-69.650002,-2.940000,74.410004,21.91
2456639,0.603656,1.237568,-0.109312,-106.050003,-6.860000,84.279999,21.91
2456651,0.596336,1.186328,-0.123464,-144.970001,-9.240000,90.230003,21.89
2456662,0.593896,1.067256,-0.101992,-170.660004,-11.830000,95.059998,21.91
2456673,0.584624,0.984784,-0.041968,-181.160004,-11.900000,94.430000,21.91
2456684,0.549976,0.897432,0.051728,-179.199997,-15.330000,93.870003,21.92
2456695,0.594872,0.798856,0.037576,-169.539993,-15.120000,95.129997,21.92
2456706,0.605120,0.752496,0.030256,-156.029999,-11.900000,95.900002,21.88
2456717,0.613904,0.745176,-0.011224,-147.139999,-13.580000,101.709999,21.92
2456728,0.618784,0.736880,0.013664,-149.029999,-18.969999,104.230003,21.92
2456739,0.639280,0.686128,0.018544,-153.580002,-17.709999,110.320000,21.91
2456750,0.652944,0.667584,0.043432,-164.080002,-19.180000,112.910004,21.91
2456761,0.650504,0.631960,0.053192,-177.520004,-21.840000,116.410004,21.89
2456772,0.622200,0.505080,0.013664,-178.500000,-28.209999,107.730003,21.91
2456783,0.679296,0.473360,0.122488,-189.630005,-30.590000,114.940002,21.91
2456794,0.683200,0.387960,0.164456,-178.710007,-29.330000,110.949997,21.87
2456805,0.693936,0.402600,0.168848,-168.279999,-33.250000,110.459999,21.87
2456816,0.714432,0.410896,0.142984,-165.479996,-33.880001,107.800003,21.93
2456827,0.737368,0.376248,0.122000,-169.190002,-36.049999,103.320000,21.93
2456838,0.799832,0.366976,0.205936,-169.470001,-38.639999,96.599998,21.89
2456849,0.793000,0.126392,0.072224,-175.419998,-34.160000,92.260002,21.89
2456860,0.816424,0.162016,0.069296,-178.919998,-31.709999,87.150002,21.89
2456871,0.832528,0.058072,0.130296,-176.119995,-31.290001,80.570000,21.90
2456883,0.845216,-0.002440,0.171776,-169.190002,-31.010000,76.160004,21.90
2456894,0.848144,-0.052704,0.196176,-152.600006,-31.709999,70.489998,21.89
2456905,0.853024,-0.079544,0.188368,-133.979996,-33.250000,66.080002,21.89
2456916,0.859856,-0.107848,0.181536,-109.339996,-31.920000,55.860001,21.89
2456927,0.887672,-0.129808,0.143472,-101.779999,-33.389999,51.029999,21.95
2456939,0.900360,-0.227896,0.138104,-82.529999,-28.840000,42.980000,21.95
2456950,0.925736,-0.299144,0.121024,-60.970001,-25.549999,32.689999,21.91
2456961,0.945256,-0.348432,0.096624,-36.610001,-18.480000,24.639999,21.89
2456972,0.948672,-0.370880,0.081496,-16.379999,-11.270000,14.070000,21.89
2456983,0.948672,-0.374784,0.058560,0.420000,-3.850000,1.610000,21.91
2456994,0.943304,-0.344040,0.062464,15.400000,2.100000,-10.570000,21.91
2457005,0.924272,-0.340624,0.058072,31.639999,7.770000,-22.260000,21.90
2457016,0.924760,-0.377224,0.057584,52.290001,14.700000,-35.980000,21.86
2457027,0.908656,-0.347456,0.050752,66.290001,19.670000,-48.930000,21.86
2457038,0.895968,-0.343064,0.040016,84.629997,23.660000,-61.459999,21.93
2457050,0.880352,-0.363072,0.005368,112.209999,29.959999,-71.610001,21.93
2457061,0.863272,-0.341112,-0.013664,146.089996,36.540001,-83.720001,21.90
2457072,0.839360,-0.294752,-0.017080,175.279999,43.330002,-96.110001,21.86
2457083,0.813008,-0.147864,0.013664,189.910004,46.549999,-105.769997,21.86
2457094,0.772992,-0.104432,0.054168,209.089996,48.230000,-115.639999,21.89
2457105,0.744688,0.056120,0.076128,214.690002,48.790001,-122.919998,21.89
2457116,0.691496,0.172752,0.089792,220.500000,47.180000,-133.630005,21.90
2457126,0.691984,0.187392,0.085400,233.380005,46.060001,-141.679993,21.88
2457138,0.691008,0.306952,0.049776,241.220001,47.389999,-149.380005,21.88
2457149,0.669536,0.371856,-0.012200,262.920013,46.270000,-159.389999,21.89
2457160,0.667584,0.577792,0.056120,266.070007,45.919998,-155.330002,21.89
2457170,0.600240,0.689056,-0.093208,280.700012,47.040001,-163.380005,21.94
2457181,0.602680,0.827648,-0.112240,270.200012,40.599998,-163.169998,21.94
2457193,0.502640,0.889136,-0.108336,257.109985,38.290001,-159.460007,21.89
2457204,0.557784,0.938912,0.007320,240.380005,32.410000,-154.979996,21.96
2457215,0.529480,0.980392,0.043920,219.029999,23.450001,-152.529999,21.96
2457225,0.519232,1.116544,0.074664,193.970001,17.290001,-143.009995,21.87
2457236,0.496296,1.298568,0.032208,156.449997,15.050000,-128.729996,21.87
2457248,0.502152,1.417640,-0.013664,112.629997,11.130000,-108.290001,21.91
2457259,0.544120,1.522072,-0.050752,82.040001,11.340000,-86.239998,21.88
2457270,0.570472,1.572824,-0.104920,47.040001,13.160000,-64.540001,21.88
2457281,0.572424,1.597224,-0.088328,18.830000,11.550000,-50.540001,21.96
2457293,0.620248,1.576240,-0.051728,-3.500000,14.420000,-34.790001,21.96
2457304,0.629520,1.525488,-0.003416,-19.040001,14.770000,-21.209999,21.91
2457315,0.630496,1.475712,0.044408,-26.530001,12.180000,-9.730000,21.90
2457326,0.623664,1.432280,0.071736,-28.559999,8.260000,5.810000,21.90
2457338,0.625616,1.367864,0.074664,-29.330000,4.410000,19.389999,21.92
2457349,0.633912,1.283928,0.081496,-27.860001,-0.840000,32.619999,21.92
2457361,0.631472,1.281488,0.091744,-31.290001,-3.010000,45.990002,21.93
2457372,0.643672,1.244888,0.105896,-43.540001,-7.350000,55.580002,21.87
2457383,0.644160,1.211216,0.079056,-55.509998,-7.980000,67.129997,21.87
2457394,0.630496,1.208776,0.023424,-74.410004,-6.090000,81.129997,21.93
2457405,0.619272,1.214144,-0.003416,-98.070000,-7.630000,92.330002,21.93
2457416,0.596824,1.185840,0.017080,-126.559998,-8.260000,98.769997,21.88
2457427,0.586576,1.119472,0.068320,-156.520004,-13.790000,107.519997,21.91
2457438,0.583160,1.051152,0.129808,-194.600006,-19.320000,112.000000,21.91
2457449,0.572912,0.984784,0.084912,-177.240005,-23.730000,108.919998,21.87
2457460,0.601704,0.956480,0.153232,-199.360001,-25.270000,115.360001,21.87
2457471,0.620736,0.868152,0.163968,-201.669998,-31.080000,117.110001,21.84
2457482,0.632448,0.773480,0.107848,-194.669998,-31.219999,117.389999,21.87
2457494,0.640256,0.706136,0.105896,-196.699997,-34.299999,121.239998,21.87
2457505,0.672952,0.677344,0.150304,-207.410004,-36.470001,124.250000,21.92
2457516,0.673440,0.600240,0.165432,-219.869995,-39.900002,128.240005,21.92
2457527,0.675880,0.528992,0.179096,-248.779999,-45.709999,132.160004,21.92
2457538,0.646112,0.508984,0.206912,-240.240005,-56.770000,132.300003,21.89
2457549,0.690032,0.485560,0.231312,-267.959991,-61.110001,133.139999,21.89
2457560,0.679784,0.422120,0.239120,-286.440002,-66.919998,130.410004,21.91
2457571,0.686616,0.265960,0.196176,-284.480011,-71.050003,122.779999,21.91
2457582,0.725656,0.141032,0.132736,-267.820007,-69.930000,116.339996,21.88
2457593,0.758840,-0.017080,0.112240,-236.600006,-65.519997,106.610001,21.92
2457604,0.800320,-0.203496,0.100040,-187.250000,-60.410000,94.570000,21.92
2457615,0.818864,-0.271328,0.073200,-148.119995,-52.290001,81.760002,21.93
2457626,0.859856,-0.312808,0.037576,-102.550003,-45.709999,70.559998,21.93
2457637,0.869128,-0.397232,0.016104,-62.650002,-35.279999,63.000000,21.90
2457648,0.858392,-0.438224,-0.000976,-35.279999,-27.510000,49.490002,21.90
2457662,0.867176,-0.437248,-0.026352,-6.930000,-19.320000,36.959999,21.90
2457673,0.870592,-0.438224,-0.035136,1.330000,-15.190000,25.620001,21.89
2457684,0.865224,-0.475800,-0.021960,12.810000,-13.090000,11.480000,21.89
2457696,0.856928,-0.484096,-0.005856,22.190001,-8.820000,-0.350000,21.89
2457707,0.837408,-0.518744,0.014152,38.500000,-3.710000,-17.430000,21.88
2457718,0.827160,-0.492880,0.015616,49.700001,2.730000,-33.599998,21.88
2457729,0.825208,-0.460184,0.010736,58.730000,7.490000,-49.490002,21.88
2457740,0.826184,-0.436760,0.017080,66.430000,16.520000,-61.740002,21.88
2457751,0.812032,-0.407968,0.017080,73.500000,25.969999,-76.019997,21.89
2457762,0.798856,-0.382592,0.008296,94.500000,35.560001,-91.139999,21.85
2457773,0.770552,-0.244000,0.005856,110.879997,44.799999,-100.519997,21.85
2457783,0.741760,-0.148352,0.014152,120.330002,48.160000,-113.260002,21.89
2457795,0.750544,-0.136640,0.031232,138.600006,50.330002,-124.320000,21.89
2457806,0.739320,-0.086864,0.046360,168.490005,52.360001,-133.419998,21.94
2457817,0.695400,0.030744,0.051728,209.229996,53.130001,-140.490005,21.85
2457828,0.650016,0.172264,0.082960,240.520004,53.900002,-146.580002,21.85
2457839,0.638792,0.326960,0.096136,275.239990,50.259998,-149.449997,21.86
2457849,0.633912,0.453352,0.118584,302.190002,45.430000,-152.110001,21.86
2457860,0.628544,0.534360,0.147376,320.179993,41.790001,-155.610001,21.85
2457871,0.615368,0.636352,0.137128,329.700012,40.529999,-157.080002,21.85
2457882,0.627568,0.672952,0.105408,336.489990,34.580002,-159.949997,21.86
2457893,0.639280,0.572424,-0.035624,348.670013,36.750000,-165.339996,21.84
2457904,0.596336,0.654896,-0.203984,361.130005,44.590000,-161.350006,21.84
2457915,0.557296,0.833016,-0.285968,338.170013,41.439999,-156.800003,21.89
2457926,0.522160,1.068720,-0.290360,292.529999,38.220001,-146.789993,21.89
2457937,0.482632,1.291248,-0.271816,245.279999,30.520000,-127.889999,21.90
2457948,0.491904,1.480592,-0.249368,181.160004,22.750000,-106.680000,21.89
2457959,0.534360,1.591856,-0.223992,122.849998,13.020000,-87.010002,21.89
2457970,0.574864,1.622600,-0.158600,67.970001,5.320000,-69.230003,21.91
2457981,0.596336,1.542080,-0.109800,43.959999,4.620000,-55.930000,21.91
2457992,0.626592,1.559648,-0.098088,24.850000,9.240000,-42.770000,21.90
2458003,0.644160,1.605520,-0.082960,11.900000,11.830000,-32.619999,21.86
2458014,0.663680,1.574288,-0.049288,6.370000,13.020000,-20.510000,21.86
2458025,0.681248,1.568432,0.011712,2.380000,16.730000,-9.380000,21.91
2458036,0.677344,1.544520,0.031232,-4.480000,13.580000,3.640000,21.91
2458047,0.691984,1.501088,0.051240,-15.610000,7.000000,20.790001,21.93
2458058,0.690520,1.496208,0.038552,-26.530001,3.290000,38.849998,21.93
2458069,0.682712,1.443504,0.025376,-46.689999,-2.310000,52.500000,21.89
2458080,0.685152,1.377624,0.013664,-62.509998,-3.010000,69.580002,21.87
2458091,0.666608,1.332728,-0.000976,-85.190002,-5.530000,85.120003,21.87
2458102,0.654408,1.136064,-0.033672,-105.980003,-7.910000,94.639999,21.90
2458113,0.647088,1.138016,-0.026352,-124.389999,-7.000000,98.980003,21.90
2458124,0.630008,1.110688,-0.010736,-134.259995,-6.650000,104.440002,21.88
2458135,0.632936,1.077016,-0.031720,-145.880005,-7.140000,104.300003,21.90
2458146,0.641232,1.025288,0.013664,-161.000000,-9.240000,108.989998,21.90
2458157,0.622688,0.947696,0.038552,-173.389999,-10.430000,113.400002,21.90
2458169,0.617320,0.916952,0.051728,-184.729996,-16.100000,118.440002,21.90
2458180,0.621224,0.809104,0.050264,-193.059998,-19.320000,121.660004,21.88
2458191,0.625616,0.709064,0.056120,-199.080002,-22.260000,123.269997,21.88
2458202,0.620736,0.628056,0.061488,-200.899994,-24.430000,124.949997,21.88
2458213,0.635376,0.604144,0.047824,-200.270004,-23.170000,127.050003,21.91
2458224,0.632936,0.542656,0.025864,-195.649994,-23.660000,131.179993,21.91
2458235,0.631960,0.499712,0.054168,-195.020004,-23.590000,132.300003,21.91
2458246,0.646112,0.459208,0.072712,-203.770004,-24.850000,132.720001,21.86
2458257,0.637328,0.396256,0.101504,-212.800003,-31.990000,128.800003,21.86
2458268,0.649040,0.291336,0.155184,-217.630005,-40.250000,125.860001,21.91
2458279,0.672464,0.211792,0.159088,-212.309998,-42.349998,124.110001,21.91
2458290,0.671488,0.144936,0.113216,-201.320007,-47.320000,115.150002,21.89
2458301,0.724192,0.096624,0.138104,-203.490005,-47.669998,111.650002,21.89
2458312,0.770064,-0.001952,0.127856,-201.529999,-45.639999,104.300003,21.89
2458323,0.781288,-0.110776,0.097112,-192.850006,-44.169998,96.739998,21.83
2458334,0.792024,-0.199104,0.069784,-180.740005,-46.900002,87.500000,21.83
2458345,0.854976,-0.240096,0.061488,-166.320007,-35.630001,78.470001,21.92
2458356,0.851560,-0.347456,0.061000,-144.479996,-31.639999,65.519997,21.92
2458367,0.879864,-0.454328,0.105896,-112.629997,-27.790001,52.990002,21.89
2458378,0.882304,-0.539728,0.085400,-77.629997,-18.549999,40.040001,21.85
2458389,0.883280,-0.616832,0.078080,-48.720001,-13.720000,22.750000,21.85
2458400,0.904264,-0.633424,0.065880,-15.820000,-7.210000,9.730000,21.85
2458411,0.899872,-0.594384,0.063440,10.710000,-1.050000,-4.830000,21.85
2458422,0.876936,-0.522648,0.078568,24.150000,3.290000,-20.370001,21.87
2458433,0.870104,-0.507032,0.088328,39.830002,6.860000,-35.560001,21.82
2458444,0.860832,-0.469456,0.096624,50.680000,10.990000,-47.880001,21.82
2458455,0.855952,-0.431392,0.096136,61.320000,17.290001,-63.980000,21.89
2458466,0.842288,-0.361608,0.080520,82.529999,21.840000,-78.540001,21.89
2458477,0.830576,-0.323056,0.062952,110.389999,28.209999,-91.279999,21.89
2458488,0.844728,-0.325008,0.055632,140.279999,35.630001,-105.980003,21.89
2458499,0.842776,-0.299144,0.020008,171.639999,46.130001,-118.790001,21.86
2458510,0.820816,-0.201056,0.002440,202.229996,52.430000,-128.869995,21.84
2458521,0.777872,-0.004392,0.080520,220.779999,55.230000,-134.259995,21.84
2458532,0.732488,0.123464,0.134200,237.229996,54.389999,-141.750000,21.89
2458543,0.717848,0.188368,0.179584,263.549988,52.919998,-147.630005,21.89
2458554,0.680272,0.305000,0.173240,287.910004,51.380001,-152.809998,21.84
2458565,0.661240,0.422120,0.196664,304.290009,46.900002,-158.270004,21.86
2458576,0.644160,0.640256,0.152256,298.619995,47.529999,-157.710007,21.86
2458587,0.622200,0.709552,0.210816,284.130005,36.680000,-159.250000,21.86
2458598,0.656848,0.697840,0.195200,288.890015,31.639999,-161.000000,21.86
2458609,0.609512,0.781288,0.077104,284.200012,32.689999,-163.029999,21.89
2458620,0.598776,0.789096,-0.024400,266.489990,29.820000,-162.820007,21.89
2458631,0.598288,0.953552,-0.133712,228.690002,27.299999,-158.339996,21.89
2458642,0.562664,1.141432,-0.195200,186.830002,27.160000,-141.050003,21.84
2458653,0.550464,1.354688,-0.226432,139.580002,24.430000,-124.110001,21.84
2458664,0.553880,1.400072,-0.183000,92.610001,20.160000,-104.510002,21.88
2458675,0.569008,1.513288,-0.130296,41.860001,12.880000,-83.580002,21.88
2458686,0.580720,1.500600,-0.053680,27.510000,6.300000,-65.940002,21.86
2458697,0.592432,1.455704,0.016592,11.690000,2.730000,-52.080002,21.86
2458708,0.597800,1.478152,0.054656,7.280000,3.570000,-37.099998,21.86
2458718,0.607072,1.480592,0.067832,4.200000,2.520000,-23.940001,21.84
2458729,0.630496,1.453752,0.058072,-0.980000,4.200000,-12.180000,21.84
2458740,0.619272,1.429840,0.046360,-4.410000,3.780000,1.400000,21.84
2458751,0.645136,1.424960,0.038064,-16.450001,4.060000,17.080000,21.86
2458761,0.649040,1.440576,0.067832,-36.610001,1.750000,30.870001,21.86
2458772,0.648552,1.393728,0.090768,-54.740002,-1.540000,48.020000,21.88
2458783,0.644160,1.324432,0.122976,-75.809998,-4.550000,63.490002,21.88
2458794,0.629032,1.225856,0.141032,-87.220001,-8.400000,74.690002,21.83
2458805,0.612440,1.145824,0.129320,-94.360001,-11.830000,85.470001,21.83
2458816,0.611464,1.067744,0.088328,-101.849998,-12.460000,92.889999,21.84
2458827,0.610488,1.028704,0.076616,-114.660004,-16.100000,98.419998,21.84
2458838,0.621712,1.001864,0.076616,-132.649994,-17.920000,105.000000,21.84
2458849,0.620736,0.991616,0.076128,-149.940002,-21.280001,110.180000,21.83
2458860,0.615368,0.986248,0.103456,-175.210007,-25.410000,115.080002,21.83
2458871,0.621224,0.935984,0.080032,-193.899994,-30.590000,116.199997,21.86
2458882,0.626592,0.812032,0.108824,-210.210007,-33.320000,118.300003,21.82
2458893,0.617320,0.682224,0.142008,-219.800003,-37.310001,117.599998,21.82
2458904,0.614880,0.617808,0.190320,-229.809998,-40.810001,118.440002,21.87
2458915,0.618296,0.529968,0.209352,-242.550003,-45.709999,117.320000,21.87
2458926,0.625128,0.457256,0.237168,-251.160004,-52.430000,118.580002,21.87
2458937,0.629520,0.451888,0.224480,-254.100006,-56.700001,118.650002,21.90
2458948,0.621224,0.449448,0.193248,-258.790009,-65.660004,120.120003,21.90
2458959,0.684176,0.407480,0.161528,-270.269989,-69.720001,121.730003,21.92
2458970,0.698816,0.331352,0.139080,-281.679993,-73.989998,118.720001,21.92
2458981,0.718824,0.234728,0.115168,-286.230011,-75.809998,114.800003,21.85
2458992,0.745664,-0.022448,0.124928,-253.679993,-73.849998,107.169998,21.85
2459003,0.777384,-0.179584,0.080032,-214.759995,-68.389999,97.650002,21.90
2459014,0.802760,-0.231312,0.054656,-169.820007,-64.120003,86.940002,21.87
2459026,0.859368,-0.257664,-0.008784,-129.710007,-55.160000,79.239998,21.87
2459037,0.884744,-0.284504,-0.027816,-94.779999,-46.060001,68.949997,21.89
2459048,0.882304,-0.325496,-0.021472,-70.349998,-37.380001,56.910000,21.89
2459059,0.885232,-0.402112,0.014640,-39.900002,-31.080000,43.330002,21.85
2459070,0.910608,-0.465552,0.023912,-11.830000,-23.309999,31.709999,21.86
2459081,0.933544,-0.540704,0.049776,14.700000,-16.450001,17.290001,21.86
2459092,0.939888,-0.525088,0.061976,27.020000,-10.920000,3.780000,21.86
2459103,0.933056,-0.500200,0.077592,39.130001,-4.340000,-7.980000,21.86
2459114,0.920856,-0.471408,0.077104,47.320000,3.290000,-22.680000,21.94
2459125,0.907192,-0.431880,0.076616,50.049999,9.590000,-38.500000,21.85
2459136,0.906704,-0.445056,0.083936,60.130001,16.660000,-56.070000,21.85
2459147,0.895480,-0.412360,0.082472,70.489998,26.250000,-67.690002,21.87
2459157,0.871568,-0.402112,0.077592,86.660004,34.160000,-83.230003,21.87
2459168,0.845704,-0.334768,0.061976,112.839996,41.020000,-95.339996,21.84
2459179,0.793488,-0.208376,0.074176,130.199997,44.660000,-102.480003,21.82
2459190,0.801296,-0.108336,0.074176,145.809998,45.779999,-112.629997,21.82
2459201,0.812520,-0.116144,0.102480,174.649994,47.320000,-122.849998,21.89
2459212,0.785192,0.030744,0.103944,193.410004,54.110001,-128.800003,21.89
2459223,0.719312,0.173240,0.119072,226.169998,54.040001,-135.660004,21.88
2459234,0.716384,0.344040,0.123952,237.089996,56.770000,-140.210007,21.88
2459245,0.670024,0.446032,0.101992,253.889999,58.660000,-144.830002,21.84
2459256,0.638792,0.490928,0.126392,276.149994,55.650002,-151.970001,21.81
2459266,0.643672,0.631960,0.107848,276.570007,53.830002,-152.039993,21.81
2459277,0.610976,0.691984,0.082472,288.470001,51.730000,-154.490005,21.86
2459290,0.627568,0.639768,-0.013664,301.140015,51.939999,-159.110001,21.86
2459301,0.611464,0.584624,-0.117608,308.209991,56.000000,-164.429993,21.86
2459312,0.546072,0.704184,-0.115168,299.880005,55.369999,-157.850006,21.83
2459323,0.489464,1.050664,-0.089792,267.399994,51.799999,-143.779999,21.83
2459334,0.451888,1.234640,-0.079056,218.190002,41.930000,-123.760002,21.87
2459345,0.497760,1.343952,-0.100528,160.369995,33.389999,-106.820000,21.87
2459356,0.525088,1.366888,-0.046360,129.009995,27.299999,-87.290001,21.83
2459367,0.531432,1.447408,-0.007320,92.820000,26.320000,-68.180000,21.87
2459378,0.554368,1.556232,0.029768,62.930000,23.030001,-57.470001,21.87
2459389,0.592432,1.549888,0.058560,39.830002,20.790001,-45.220001,21.89
2459400,0.643672,1.459120,0.068808,32.480000,24.709999,-33.599998,21.89
2459411,0.638304,1.462048,0.086376,19.180000,24.080000,-22.400000,21.83
2459422,0.650504,1.501576,0.157136,-0.210000,19.670000,-13.440000,21.82
2459437,0.646112,1.519144,0.225456,-22.680000,11.340000,7.070000,21.82
2459450,0.656360,1.479616,0.231800,-48.160000,1.400000,23.100000,21.84
2459465,0.660264,1.362008,0.261080,-71.330002,-6.860000,42.630001,21.85
2459478,0.648552,1.303936,0.268400,-92.610001,-13.090000,55.509998,21.81
2459489,0.660264,1.204872,0.253760,-104.160004,-16.450001,66.919998,21.81
2459500,0.649528,1.109224,0.241072,-118.930000,-16.170000,77.699997,21.83
2459511,0.635376,1.059936,0.232288,-131.809998,-21.000000,84.279999,21.83
2459522,0.644648,1.057984,0.206912,-139.369995,-23.309999,89.809998,21.86
2459533,0.650016,1.076040,0.184464,-151.270004,-25.969999,94.639999,21.86
2459544,0.646112,1.058960,0.174216,-164.149994,-30.590000,100.730003,21.82
2459555,0.643184,0.960384,0.158600,-167.580002,-34.090000,99.190002,21.82
2459566,0.651968,0.710528,0.224480,-149.169998,-34.860001,97.160004,21.82
2459578,0.645136,0.655872,0.262544,-131.880005,-33.599998,100.870003,21.82
2459589,0.640744,0.671488,0.233752,-120.330002,-36.259998,100.169998,21.82
2459600,0.688080,0.661728,0.196176,-119.349998,-37.520000,104.930000,21.85
2459611,0.700280,0.651968,0.163480,-122.639999,-35.910000,109.970001,21.83
2459621,0.693936,0.660264,0.122976,-131.250000,-37.939999,113.820000,21.83
2459632,0.713944,0.500688,0.093208,-150.429993,-39.900002,114.379997,21.84
2459643,0.723704,0.561688,0.143472,-180.389999,-43.540001,114.940002,21.84
2459654,0.732976,0.507032,0.257664,-198.940002,-49.070000,112.419998,21.82
2459665,0.707112,0.211792,0.253760,-184.100006,-50.680000,106.190002,21.80
2459676,0.742736,0.113704,0.300608,-161.279999,-50.330002,104.370003,21.80
2459687,0.741272,0.152744,0.296704,-140.979996,-50.119999,101.010002,21.82
2459698,0.766648,0.120536,0.237168,-130.830002,-49.560001,93.379997,21.82
2459709,0.795440,0.062464,0.174216,-123.620003,-48.090000,87.290001,21.88
2459720,0.809592,-0.020496,0.003904,-117.040001,-45.290001,80.570000,21.84
2459731,0.850096,-0.048800,0.139080,-117.949997,-40.599998,71.750000,21.84
2459742,0.852048,-0.119560,0.106872,-112.279999,-17.990000,66.430000,21.84
2459754,0.840336,-0.260104,0.178120,-78.750000,-34.160000,58.730000,21.84
2459765,0.838384,-0.241072,0.201544,-54.180000,-32.270000,54.459999,21.84
2459776,0.836920,-0.201056,0.176656,-37.099998,-32.480000,47.320000,21.84
2459787,0.852536,-0.269864,0.144448,-18.410000,-32.060001,35.980000,21.86
2459798,0.861808,-0.300608,0.108336,-5.040000,-28.209999,23.309999,21.80
2459809,0.854488,-0.291336,0.051728,10.010000,-22.330000,11.200000,21.80
2459820,0.878888,-0.294264,0.026840,20.020000,-14.420000,-4.060000,21.82
2459831,0.869616,-0.313784,0.030744,27.160000,-6.020000,-18.900000,21.82
2459842,0.852536,-0.349408,0.041480,44.520000,0.560000,-34.090000,21.87
2459853,0.840824,-0.352336,0.031232,69.019997,9.380000,-46.060001,21.86
2459864,0.827160,-0.299144,0.017568,89.669998,16.379999,-59.639999,21.86
2459875,0.819352,-0.233752,0.024888,102.550003,20.650000,-70.349998,21.87
2459886,0.805688,-0.177144,0.041480,113.400002,23.799999,-78.120003,21.87
2459897,0.793000,-0.137128,0.042944,127.540001,26.879999,-86.870003,21.82
2459908,0.779336,-0.144936,0.043920,153.300003,30.520000,-96.599998,21.79
2459919,0.769576,0.021472,0.027328,172.339996,32.480000,-101.150002,21.79
2459930,0.746640,0.092232,0.019520,192.639999,31.990000,-112.419998,21.83
2459941,0.777872,0.064416,0.038552,217.139999,38.430000,-121.519997,21.83
2459953,0.735416,0.229848,0.036600,232.960007,41.790001,-130.270004,21.84
2459963,0.701256,0.366488,0.049776,241.570007,41.650002,-137.199997,21.80
2459974,0.708576,0.345992,0.048312,258.230011,39.340000,-146.860001,21.80
2459985,0.728584,0.360144,0.020496,266.140015,44.730000,-152.669998,21.85
2459996,0.681736,0.442128,0.005368,269.500000,44.380001,-157.220001,21.85
2460007,0.617808,0.522160,-0.121512,257.600006,45.849998,-156.029999,21.85
2460018,0.646600,0.705648,-0.019032,252.839996,41.090000,-157.850006,21.85
2460029,0.593408,0.771528,-0.016592,233.520004,40.180000,-153.649994,21.84
2460039,0.578768,0.956968,-0.000976,207.410004,34.020000,-147.699997,21.80
2460050,0.562664,1.090192,-0.000488,180.460007,27.230000,-138.179993,21.80
2460061,0.577304,1.174616,-0.047336,150.639999,25.129999,-109.480003,21.86
2460072,0.577792,1.294176,-0.094184,114.940002,26.040001,-111.580002,21.86
2460083,0.602192,1.434232,-0.091256,82.949997,24.430000,-90.019997,21.83
2460094,0.597312,1.509384,-0.041968,52.919998,20.719999,-74.760002,21.85
2460105,0.593408,1.521584,0.027816,36.259998,17.150000,-63.419998,21.85
2460116,0.610000,1.583560,0.064416,22.889999,13.090000,-47.250000,21.80
2460127,0.621224,1.562088,0.088328,14.980000,9.870000,-33.950001,21.80
2460138,0.640256,1.536224,0.078080,6.510000,7.910000,-21.910000,21.82
2460149,0.646600,1.546472,0.083936,-9.170000,5.320000,-4.130000,21.82
2460160,0.654408,1.550864,0.086376,-26.389999,2.240000,14.630000,21.84
2460171,0.661240,1.532808,0.106872,-55.580002,-2.660000,30.660000,21.79
2460182,0.644160,1.484984,0.129320,-83.370003,-7.980000,47.950001,21.79
2460193,0.642696,1.319064,0.159576,-96.320000,-10.780000,60.060001,21.87
2460204,0.640256,1.218048,0.154208,-101.570000,-10.640000,70.139999,21.87
2460215,0.626104,1.191696,0.149328,-104.160004,-13.020000,77.279999,21.85
2460226,0.629520,1.167296,0.111752,-108.080002,-14.210000,86.029999,21.86
2460237,0.637328,1.101416,0.049776,-116.269997,-15.330000,93.870003,21.86
2460248,0.641720,1.060912,0.036600,-135.029999,-19.740000,102.129997,21.85
2460259,0.627568,1.070672,0.047336,-163.449997,-24.570000,106.889999,21.85
2460270,0.623176,1.038952,0.052704,-186.550003,-27.930000,110.250000,21.81
2460281,0.614880,0.958432,0.081984,-216.509995,-32.060001,113.750000,21.84
2460292,0.601216,0.827160,0.318664,-232.750000,-40.880001,114.519997,21.84
2460303,0.624152,0.696376,0.113704,-230.229996,-34.650002,110.110001,21.80
2460314,0.627080,0.616832,0.139568,-224.770004,-38.220001,109.970001,21.80
2460325,0.641232,0.586088,0.151768,-221.270004,-39.130001,110.599998,21.84
2460336,0.656848,0.554856,0.166896,-225.539993,-42.840000,112.070000,21.84
2460347,0.676368,0.528504,0.171288,-233.520004,-45.430000,113.610001,21.82
2460358,0.686128,0.494344,0.172752,-247.380005,-49.209999,113.540001,21.87
2460369,0.711504,0.438712,0.149816,-262.359985,-52.919998,112.349998,21.87
2460380,0.736880,0.319640,0.109800,-274.750000,-55.509998,109.900002,21.84
2460390,0.762744,0.170312,0.112240,-276.850006,-54.669998,102.690002,21.84
2460401,0.794952,-0.087352,0.162992,-238.070007,-48.230000,96.389999,21.85
2460412,0.769576,-0.099552,0.188856,-204.399994,-43.820000,90.860001,21.82
2460423,0.770064,-0.068320,0.208864,-172.410004,-43.889999,80.639999,21.82
2460434,0.826672,-0.104432,0.169824,-149.940002,-41.369999,76.720001,21.82
2460446,0.831552,-0.185928,0.145912,-131.949997,-35.770000,69.089996,21.82
2460457,0.826672,-0.212280,0.125416,-122.849998,-33.110001,57.470001,21.80
2460468,0.846680,-0.231312,0.100040,-118.370003,-28.840000,46.830002,21.84
2460479,0.867176,-0.283528,0.043920,-110.529999,-20.930000,35.139999,21.84
2460490,0.881328,-0.445056,0.047336,-81.830002,-12.320000,24.639999,21.85
2460501,0.866200,-0.458720,0.061488,-63.419998,-3.990000,12.600000,21.85
2460512,0.846680,-0.489464,0.073688,-35.910000,1.470000,-1.820000,21.85
2460523,0.834968,-0.497760,0.098088,-9.730000,8.750000,-12.810000,21.82
2460534,0.799832,-0.459696,0.099552,11.690000,13.790000,-26.459999,21.82
2460545,0.814472,-0.419680,0.079056,23.030001,17.780001,-38.919998,21.85
2460556,0.818376,-0.424072,0.078568,38.709999,24.219999,-49.070000,21.85
2460567,0.792024,-0.406016,0.076616,56.419998,29.959999,-60.689999,21.83
2460578,0.800320,-0.464576,0.042456,89.040001,38.570000,-74.480003,21.83
2460589,0.797880,-0.388448,0.018544,135.100006,45.709999,-86.239998,21.80
2460600,0.781288,-0.305976,-0.010736,178.710007,52.990002,-98.070000,21.82
2460611,0.788608,-0.291336,-0.023424,211.539993,61.320000,-111.790001,21.82
2460622,0.737368,-0.211304,0.003416,255.919998,66.709999,-125.089996,21.84
2460633,0.701256,-0.171288,0.060512,301.000000,71.050003,-137.130005,21.84
2460644,0.655384,-0.039528,0.123464,333.480011,72.730003,-147.419998,21.84
2460654,0.589016,0.206424,0.145912,353.570007,68.040001,-154.350006,21.79
2460665,0.589992,0.338672,0.151280,367.290009,59.919998,-159.600006,21.79
2460676,0.587064,0.447496,0.120536,380.869995,55.160000,-167.089996,21.80
2460687,0.566568,0.653920,0.177144,374.010010,52.849998,-161.279999,21.80
2460698,0.526064,0.848144,0.030744,361.619995,47.250000,-170.729996,21.86
2460709,0.502640,1.030168,0.014152,339.010010,37.799999,-165.550003,21.86
2460720,0.502152,1.030168,-0.019520,314.299988,33.180000,-166.949997,21.77
2460731,0.500688,0.994056,-0.072224,290.220001,33.669998,-169.190002,21.83
2460742,0.480680,1.130696,-0.113704,241.080002,31.430000,-159.949997,21.83
2460753,0.441640,1.404952,-0.111264,190.259995,25.900000,-144.339996,21.82
2460764,0.464576,1.576240,-0.141520,125.370003,21.490000,-118.370003,21.82
2460775,0.466040,1.765584,-0.127368,64.470001,14.420000,-95.900002,21.80
2460786,0.496784,1.837320,-0.112240,28.980000,11.830000,-71.680000,21.78
2460797,0.531432,1.790960,-0.055632,-0.700000,7.000000,-50.680000,21.78
2460808,0.564616,1.682624,0.015128,-6.020000,10.710000,-34.090000,21.84
2460819,0.589016,1.605520,0.049776,-9.520000,13.160000,-18.900000,21.84
2460830,0.601216,1.611864,0.113216,-16.660000,11.480000,1.400000,21.86
2460841,0.619760,1.629432,0.152744,-31.780001,9.240000,22.330000,21.86
2460852,0.611952,1.547448,0.173728,-44.380001,2.520000,37.590000,21.86
2460863,0.598288,1.506944,0.200568,-53.340000,-3.570000,53.900002,21.83
2460874,0.594872,1.468392,0.171776,-69.510002,-8.190000,68.739998,21.83
2460885,0.584136,1.410808,0.138592,-93.029999,-13.090000,78.750000,21.86
2460896,0.576328,1.329312,0.131272,-115.290001,-15.890000,91.629997,21.86
2460906,0.565104,1.244888,0.147864,-131.110001,-18.549999,102.900002,21.82
2460917,0.553392,1.203408,0.156160,-148.960007,-23.870001,109.480003,21.85
2460928,0.538752,1.048224,0.171288,-152.740005,-25.549999,113.750000,21.85
2460939,0.551440,0.914512,0.171776,-147.910004,-29.610001,116.129997,21.80
2460950,0.573888,0.865224,0.131272,-140.000000,-32.130001,117.110001,21.80
2460961,0.585112,0.814960,0.128832,-140.699997,-32.410000,116.690002,21.80
2460972,0.596824,0.784704,0.128832,-147.559998,-34.439999,116.550003,21.78
2460983,0.605608,0.775432,0.130784,-161.979996,-37.310001,120.470001,21.78
2460994,0.605120,0.744688,0.170800,-179.690002,-41.090000,126.419998,21.82
2461005,0.630496,0.668560,0.207888,-191.169998,-44.660000,127.959999,21.82
2461016,0.609024,0.588040,0.189832,-206.009995,-47.810001,126.070000,21.86
2461027,0.618296,0.497760,0.202032,-217.630005,-53.970001,122.430000,21.77
2461038,0.649040,0.398696,0.213744,-227.500000,-56.560001,118.720001,21.77
2461049,0.644648,0.289384,0.232288,-227.570007,-59.430000,112.139999,21.81
2461060,0.671488,0.190320,0.210328,-221.690002,-61.180000,104.440002,21.81
2461071,0.728096,0.070272,0.223504,-212.240005,-62.650002,101.430000,21.80
2461082,0.752496,0.019520,0.195200,-203.139999,-60.830002,94.989998,21.80
2461093,0.756400,0.025864,0.170800,-197.119995,-60.549999,87.989998,21.80
2461104,0.770552,-0.013664,0.178608,-186.410004,-58.730000,81.480003,21.81
2461115,0.777872,-0.093208,0.180072,-168.630005,-54.250000,71.330002,21.81
2461126,0.786656,-0.166408,0.174216,-155.820007,-52.709999,60.549999,21.83
2461137,0.805688,-0.226432,0.157624,-143.850006,-51.380001,47.810001,21.83
2461148,0.833016,-0.318176,0.133712,-131.179993,-47.529999,37.869999,21.86
2461159,0.851072,-0.439200,0.129808,-108.080002,-42.419998,24.360001,21.77
2461170,0.859368,-0.479216,0.096136,-80.010002,-32.759998,6.370000,21.77
2461181,0.867664,-0.387472,0.042944,-47.880001,-29.680000,0.280000,21.81
2461192,0.858392,-0.345992,0.017080,-21.840000,-16.940001,-7.910000,21.81
2461204,0.860832,-0.371368,-0.016104,8.260000,-7.700000,-22.469999,21.80
2461215,0.854488,-0.362096,-0.014640,30.240000,4.060000,-34.650002,21.72
2461226,0.824720,-0.335744,-0.012200,57.189999,11.060000,-50.259998,21.72
2461237,0.833504,-0.321104,0.002440,81.620003,19.740000,-60.619999,21.82
2461248,0.819352,-0.284992,0.005856,97.160004,27.370001,-74.129997,21.82
2461259,0.815448,-0.239120,0.017568,115.709999,33.320000,-88.269997,21.75
2461270,0.800808,-0.188368,0.015616,130.619995,41.090000,-100.379997,21.81
2461281,0.782264,-0.129808,0.013664,155.399994,48.650002,-109.620003,21.81
2461292,0.738832,0.025864,-0.009272,173.460007,55.230000,-118.160004,21.79
2461303,0.713456,0.056120,-0.005856,223.929993,60.549999,-130.339996,21.79
2461314,0.712968,0.176168,0.023424,260.399994,67.690002,-135.729996,21.80
2461325,0.670512,0.352336,0.068808,281.190002,70.209999,-144.410004,21.80
2461335,0.659288,0.403576,0.113216,298.059998,68.809998,-154.419998,21.82
2461346,0.640256,0.420656,0.220576,310.170013,67.480003,-160.720001,21.86
2461357,0.587552,0.518744,0.121024,314.440002,59.709999,-164.990005,21.86
2461368,0.581208,0.609512,0.128344,312.829987,53.130001,-168.490005,21.81
2461379,0.568032,0.755424,0.117120,300.019989,51.380001,-168.210007,21.81
2461390,0.523624,0.806176,0.066368,292.950012,44.660000,-169.399994,21.81
2461400,0.513376,0.991616,0.029768,257.179993,45.290001,-157.710007,21.82
2461411,0.468968,1.250256,-0.001464,207.479996,35.770000,-145.949997,21.82
2461422,0.504592,1.353224,-0.061976,167.160004,30.240000,-129.500000,21.84
2461433,0.506544,1.456680,-0.118096,119.419998,30.309999,-91.980003,21.84
2461444,0.505080,1.647976,-0.111752,68.669998,27.510000,-83.930000,21.81
2461455,0.515816,1.775344,-0.070272,33.110001,21.980000,-64.820000,21.81
2461466,0.568032,1.756800,0.005368,0.000000,21.280001,-44.169998,21.78
2461477,0.562664,1.689456,0.089792,-19.180000,17.150000,-32.340000,21.75
2461488,0.582672,1.606496,0.193248,-27.719999,11.130000,-16.520000,21.75
2461499,0.608048,1.595760,0.244488,-33.110001,9.240000,-1.120000,21.85
2461510,0.620248,1.588440,0.227408,-43.119999,4.410000,12.040000,21.85
2461521,0.634888,1.533296,0.230336,-60.060001,-0.700000,28.000000,21.85
2461532,0.613904,1.462048,0.244976,-71.330002,-7.420000,45.009998,21.80
2461543,0.625616,1.354200,0.271328,-75.320000,-11.620000,55.650002,21.80
2461554,0.626104,1.273680,0.267912,-77.769997,-14.490000,70.139999,21.79
2461565,0.622200,1.218048,0.232288,-81.620003,-17.080000,82.599998,21.79
2461576,0.614880,1.193648,0.207888,-89.949997,-19.180000,94.779999,21.79
2461586,0.602680,1.193160,0.188368,-104.370003,-22.959999,104.580002,21.82
2461597,0.595360,1.165832,0.183976,-121.379997,-28.350000,113.330002,21.82
2461608,0.607560,1.102392,0.156648,-139.860001,-29.469999,115.290001,21.80
2461619,0.591456,1.017968,0.156160,-157.919998,-31.290001,120.610001,21.80
2461630,0.591944,0.921832,0.168360,-171.990005,-34.020000,119.419998,21.82
2461641,0.615856,0.686616,0.184952,-161.279999,-33.529999,105.419998,21.82
2461652,0.603656,0.601704,0.277184,-142.589996,-35.560001,107.589996,21.77
2461663,0.624640,0.569008,0.276208,-131.389999,-38.570000,106.470001,21.77
2461674,0.642208,0.549488,0.275232,-129.639999,-42.490002,106.260002,21.77
2461685,0.656848,0.520208,0.258640,-133.770004,-45.080002,107.940002,21.81
2461696,0.679296,0.473848,0.215208,-143.850006,-45.150002,109.760002,21.81
2461707,0.690032,0.446032,0.162992,-157.289993,-45.570000,109.129997,21.84
2461718,0.701256,0.395768,0.122488,-174.300003,-47.110001,107.029999,21.79
2461729,0.714920,0.231312,0.131272,-167.160004,-45.639999,102.199997,21.79
2461739,0.688568,0.066856,0.183976,-146.300003,-47.180000,95.480003,21.82
2461750,0.730536,0.092232,0.230336,-131.740005,-43.189999,90.440002,21.82
2461761,0.714920,0.116632,0.245952,-118.580002,-43.889999,84.070000,21.75
2461772,0.736880,0.078080,0.252296,-109.059998,-44.660000,75.459999,21.75
2461783,0.752008,0.034648,0.218624,-99.120003,-44.590000,67.480003,21.77
2461794,0.777384,0.020984,0.195688,-96.320000,-42.980000,60.130001,21.80
2461805,0.815448,0.008296,0.143960,-98.000000,-38.500000,50.540001,21.80
2461816,0.843752,-0.076128,0.150304,-92.050003,-33.669998,38.709999,21.79
2461827,0.856928,-0.174704,0.192272,-72.239998,-29.260000,31.850000,21.79
2461838,0.824720,-0.194712,0.218136,-52.360001,-21.420000,25.270000,21.84
2461849,0.824232,-0.203008,0.224968,-40.740002,-21.350000,15.120000,21.78
2461860,0.835944,-0.220576,0.197152,-26.459999,-18.760000,7.280000,21.78
2461871,0.853024,-0.233752,0.156648,-12.530000,-14.140000,-0.350000,21.79
2461882,0.877424,-0.199104,0.112728,-6.580000,-9.450000,-10.430000,21.79
2461893,0.881816,-0.227408,0.098576,4.550000,-3.010000,-21.840000,21.82
2461904,0.866200,-0.253272,0.094672,23.590000,2.030000,-33.740002,21.80
2461915,0.842288,-0.252784,0.092720,46.689999,7.210000,-43.610001,21.80
2461926,0.841312,-0.281088,0.075152,70.559998,13.440000,-58.799999,21.87
2461937,0.844240,-0.288896,0.061000,100.800003,19.670000,-72.099998,21.87
2461948,0.836432,-0.219600,0.047336,122.779999,24.990000,-81.830002,21.81
2461959,0.821792,-0.147376,0.038552,135.869995,33.040001,-94.360001,21.81
2461970,0.802272,-0.095160,0.033672,150.289993,38.080002,-104.860001,21.83
2461981,0.765184,0.002928,0.040992,158.690002,41.720001,-111.930000,21.82
2461992,0.741760,0.103944,0.055144,167.229996,45.779999,-122.080002,21.82
2462003,0.732000,0.175192,0.078080,175.070007,47.459999,-130.410004,21.82
2462014,0.684664,0.256688,0.094672,181.860001,47.810001,-137.830002,21.82
2462024,0.682224,0.275720,0.092720,199.919998,49.910000,-148.960007,21.80
2462035,0.666608,0.398208,0.157136,223.160004,49.840000,-149.729996,21.79
2462046,0.590968,0.517280,0.103456,244.789993,50.119999,-158.690002,21.79
2462057,0.578768,0.688568,0.069784,250.880005,52.009998,-162.119995,21.79
2462068,0.558272,0.845216,0.058072,247.660004,47.950001,-161.559998,21.79
2462079,0.538264,0.851560,0.068320,242.130005,42.000000,-161.699997,21.81
2462090,0.544608,0.865712,0.115168,241.570007,37.660000,-160.580002,21.81
2462101,0.516792,0.962336,0.018544,227.009995,37.240002,-158.270004,21.81
2462111,0.511912,1.007232,-0.038552,209.789993,34.439999,-150.639999,21.79
2462122,0.473848,1.228296,-0.115656,176.820007,34.580002,-131.600006,21.79
2462133,0.452864,1.423984,-0.142496,133.070007,29.120001,-104.930000,21.79
2462144,0.476776,1.566968,-0.140056,101.220001,25.900000,-84.910004,21.79
2462155,0.454328,1.803648,-0.118584,70.070000,19.250000,-57.259998,21.84
2462166,0.486048,1.816336,-0.046360,45.290001,9.870000,-33.320000,21.79
2462177,0.542168,1.744112,0.041968,28.700001,1.750000,-16.100000,21.79
2462188,0.579256,1.701656,0.111752,25.830000,3.010000,2.870000,21.82
2462199,0.602680,1.702632,0.118096,17.709999,0.770000,22.889999,21.82
2462210,0.630496,1.727520,0.134200,1.680000,-2.240000,37.169998,21.81
2462220,0.630984,1.705560,0.129808,-18.969999,-4.760000,54.599998,21.81
2462231,0.630984,1.625528,0.114192,-48.090000,-8.260000,69.720001,21.82
2462242,0.625616,1.593320,0.075640,-79.589996,-10.920000,81.900002,21.77
2462253,0.618784,1.508896,0.058072,-105.139999,-14.840000,95.620003,21.77
2462264,0.616832,1.342488,0.081984,-125.370003,-18.760000,106.330002,21.77
2462275,0.606096,1.199504,0.101992,-124.529999,-19.950001,112.769997,21.77
2462286,0.595360,1.072136,0.108336,-119.000000,-22.540001,119.559998,21.81
2462297,0.606584,0.985272,0.095648,-114.870003,-23.030001,122.570000,21.81
2462308,0.601704,0.913536,0.041480,-109.059998,-23.870001,126.419998,21.81
2462319,0.591456,0.895480,-0.005368,-106.540001,-22.959999,126.839996,21.80
2462331,0.591456,0.831064,0.001952,-117.669998,-25.200001,131.529999,21.80
2462342,0.610000,0.757376,0.057096,-132.649994,-26.180000,129.779999,21.76
2462353,0.552416,0.658312,0.084424,-141.259995,-30.590000,126.910004,21.80
2462364,0.610488,0.592432,0.101016,-158.199997,-29.610001,128.660004,21.80
2462375,0.617320,0.524600,0.086864,-164.570007,-29.190001,126.349998,21.82
2462385,0.611952,0.491904,0.112728,-173.110001,-31.010000,121.940002,21.82
2462396,0.637816,0.472872,0.091744,-187.039993,-30.590000,120.190002,21.82
2462407,0.606096,0.390888,0.049288,-191.660004,-34.090000,109.059998,21.82
2462418,0.651968,0.312808,0.122976,-199.850006,-35.560001,109.269997,21.76
2462429,0.661728,0.242048,0.128832,-198.660004,-35.419998,104.580002,21.78
2462440,0.637328,0.173240,0.080032,-190.470001,-42.630001,93.660004,21.78
2462451,0.709064,0.119560,0.137616,-194.600006,-39.759998,90.440002,21.75
2462462,0.729560,0.076128,0.129808,-193.830002,-38.990002,85.680000,21.75
2462473,0.746640,0.036600,0.100528,-192.710007,-38.009998,77.489998,21.78
2462484,0.767136,-0.012688,0.094672,-189.279999,-36.889999,69.160004,21.79
2462495,0.787144,-0.125416,0.079544,-179.130005,-34.509998,58.869999,21.79
2462506,0.783240,-0.223016,0.236192,-165.130005,-37.799999,48.299999,21.82
2462517,0.854000,-0.284992,0.066856,-145.039993,-24.010000,37.099998,21.82
2462528,0.856928,-0.407968,0.061488,-117.180000,-17.150000,22.680000,21.79
2462539,0.870104,-0.428464,0.061976,-86.660004,-10.780000,9.940000,21.78
2462550,0.869616,-0.425048,0.074176,-55.650002,-2.730000,0.350000,21.78
2462561,0.846192,-0.400160,0.080032,-31.360001,6.860000,-13.300000,21.79
2462572,0.826184,-0.364048,0.079056,-3.500000,12.530000,-26.320000,21.79
2462583,0.825208,-0.344040,0.066856,17.639999,18.620001,-37.099998,21.80
2462594,0.835944,-0.352824,0.061488,40.669998,25.690001,-52.009998,21.80
2462605,0.823256,-0.324032,0.078080,60.830002,31.290001,-65.940002,21.75
2462616,0.807152,-0.280112,0.059048,87.150002,38.709999,-81.550003,21.77
2462627,0.798856,-0.223504,0.046848,111.860001,46.060001,-92.190002,21.77
2462638,0.776896,-0.145912,0.065392,129.710007,52.009998,-104.300003,21.80
2462648,0.747616,-0.029280,0.103456,146.300003,55.509998,-115.919998,21.80
2462659,0.712480,0.051728,0.145912,162.889999,54.320000,-122.709999,21.82
2462670,0.724680,0.183000,0.171288,176.119995,60.759998,-131.039993,21.78
2462681,0.702720,0.250832,0.195200,202.929993,62.020000,-137.759995,21.78
2462692,0.683200,0.267424,0.198616,236.669998,61.040001,-143.850006,21.79
2462703,0.687592,0.366000,0.225944,260.750000,63.490002,-148.679993,21.79
2462714,0.646112,0.496296,0.213256,277.899994,60.060001,-152.880005,21.81
2462725,0.633912,0.535824,0.176656,302.190002,56.000000,-156.800003,21.80
2462736,0.600240,0.681736,0.203008,312.690002,52.709999,-156.869995,21.80
2462746,0.548512,0.715896,0.175192,327.250000,46.619999,-161.070007,21.73
2462757,0.564616,0.766648,0.118584,332.500000,43.259998,-161.139999,21.73
2462768,0.525576,1.038464,0.081984,305.269989,35.560001,-147.559998,21.79
2462779,0.477264,1.179984,-0.002928,268.869995,27.230000,-137.970001,21.79
2462790,0.528016,1.284416,-0.103944,221.130005,28.209999,-120.750000,21.82
2462801,0.520208,1.484496,-0.264496,172.410004,28.840000,-91.209999,21.74
2462812,0.489952,1.830976,-0.314760,107.029999,23.799999,-65.029999,21.74
2462823,0.526064,1.886120,-0.135176,45.080002,16.870001,-45.709999,21.81
2462834,0.555832,1.831464,-0.118584,3.780000,11.760000,-24.570000,21.81
2462845,0.569008,1.646512,0.025864,-10.570000,7.980000,-10.850000,21.80
2462856,0.586088,1.554768,0.121512,-13.440000,3.570000,-2.940000,21.80
2462867,0.604632,1.494256,0.145912,-9.800000,3.150000,5.880000,21.80
2462878,0.620736,1.476200,0.129320,-11.830000,-16.940001,18.690001,21.84
2462889,0.629032,1.490840,0.105896,-19.950001,-1.330000,33.040001,21.84
2462900,0.625128,1.442528,0.068320,-39.830002,-6.650000,46.970001,21.78
2462911,0.609512,1.402024,0.048800,-61.880001,-11.200000,63.560001,21.78
2462922,0.599264,1.430816,0.059048,-99.330002,-14.560000,81.339996,21.80
2462933,0.604144,1.415200,0.088328,-138.250000,-17.080000,94.430000,21.73
2462944,0.593896,1.267336,0.135664,-168.559998,-24.430000,108.220001,21.73
2462955,0.591944,1.060912,0.184464,-170.800003,-22.190001,109.059998,21.82
2462966,0.584624,0.944280,0.193248,-156.169998,-21.559999,107.660004,21.82
2462977,0.567056,0.916464,0.198128,-140.839996,-22.400000,106.400002,21.81
2462988,0.576816,0.893528,0.194712,-130.619995,-22.820000,103.389999,21.79
2462999,0.584624,0.860344,0.189344,-124.809998,-23.309999,101.779999,21.79
2463010,0.584624,0.788120,0.195688,-124.739998,-26.740000,103.529999,21.79
2463021,0.619272,0.737368,0.167384,-128.380005,-27.160000,101.919998,21.79
2463032,0.661728,0.694912,0.169824,-135.309998,-27.580000,107.870003,21.78
2463043,0.686128,0.688568,0.191296,-143.919998,-32.130001,107.940002,21.77
2463054,0.697840,0.553880,0.206912,-141.820007,-30.590000,111.580002,21.77
2463065,0.712968,0.461648,0.247416,-137.830002,-31.150000,110.180000,21.79
2463076,0.713456,0.402112,0.283528,-126.839996,-31.920000,106.889999,21.79
2463087,0.725656,0.349896,0.283528,-116.339996,-33.740002,103.529999,21.77
2463098,0.750056,0.288408,0.267912,-112.699997,-35.349998,98.070000,21.77
2463108,0.782752,0.221064,0.248392,-114.029999,-36.959999,92.050003,21.73
2463119,0.805200,0.154208,0.242536,-119.139999,-40.110001,87.150002,21.75
2463130,0.835456,0.073688,0.236680,-115.779999,-40.529999,80.360001,21.75
2463141,0.842288,-0.032208,0.241072,-106.260002,-39.619999,72.800003,21.77
2463152,0.834968,-0.055632,0.231312,-87.500000,-39.970001,65.660004,21.77
2463163,0.841312,-0.095648,0.220576,-73.500000,-40.110001,58.450001,21.81
2463174,0.854976,-0.149816,0.182512,-63.700001,-38.990002,49.279999,21.75
2463185,0.863272,-0.202032,0.157136,-51.660000,-38.080002,38.919998,21.75
2463196,0.854000,-0.248880,0.131760,-34.790001,-36.610001,29.400000,21.79
2463207,0.840824,-0.270840,0.112240,-18.830000,-33.389999,17.290001,21.79
2463218,0.817400,-0.266448,0.095648,0.910000,-32.130001,4.480000,21.74
2463229,0.800320,-0.283528,0.050264,26.040001,-28.840000,-9.240000,21.75
2463240,0.811056,-0.340136,0.016104,57.400002,-23.940001,-18.549999,21.75
2463251,0.787144,-0.294752,-0.033672,77.769997,-21.000000,-29.540001,21.76
2463262,0.788120,-0.213744,-0.068320,95.900002,-16.590000,-41.720001,21.76
2463274,0.776896,-0.186416,-0.094184,108.570000,-13.160000,-49.700001,21.80
2463285,0.765184,-0.143472,-0.108336,118.580002,-8.330000,-62.299999,21.73
2463296,0.751520,-0.119072,-0.108824,132.229996,-1.820000,-74.059998,21.73
2463307,0.735416,-0.045384,-0.113216,157.220001,3.360000,-84.489998,21.79
2463318,0.717848,0.122488,-0.116144,156.520004,9.310000,-95.059998,21.79
2463329,0.706136,0.147376,-0.101016,149.029999,7.770000,-105.139999,21.80
2463340,0.723216,0.125416,-0.068320,147.490005,11.130000,-117.250000,21.80
2463351,0.709064,0.168848,-0.038552,143.919998,15.190000,-130.059998,21.72
2463362,0.673928,0.267912,-0.055144,138.669998,15.400000,-137.830002,21.79
2463373,0.644648,0.387472,-0.073688,137.759995,20.719999,-145.039993,21.79
2463384,0.643184,0.500200,-0.100040,134.820007,24.430000,-147.279999,21.79
2463395,0.623176,0.618784,-0.101992,131.179993,25.340000,-147.699997,21.79
2463406,0.615856,0.727120,-0.075640,124.879997,27.650000,-148.679993,21.80
2463417,0.614880,0.772504,-0.043432,116.199997,26.530001,-148.960007,21.77
2463428,0.677832,0.865224,0.017568,96.809998,29.049999,-144.130005,21.77
2463438,0.569496,0.947696,-0.011712,91.349998,31.780001,-142.940002,21.76
2463449,0.580720,1.124840,-0.009272,72.589996,31.219999,-131.110001,21.76
2463460,0.583648,1.246352,-0.025376,51.520000,34.160000,-116.410004,21.76
2463471,0.557784,1.399584,-0.050752,30.240000,36.259998,-98.419998,21.73
2463482,0.568032,1.509872,0.027328,11.550000,28.770000,-81.690002,21.73
2463493,0.604144,1.585024,0.096136,-8.260000,33.740002,-67.550003,21.77
2463504,0.591456,1.647488,0.154208,-29.820000,28.629999,-45.080002,21.77
2463515,0.591944,1.654808,0.236680,-44.799999,25.480000,-31.360001,21.80
2463525,0.633912,1.628944,0.320128,-57.400002,22.120001,-0.350000,21.80
2463536,0.658800,1.561112,0.356728,-64.610001,19.950001,-2.310000,21.79
2463547,0.661240,1.468392,0.393816,-66.150002,16.520000,12.530000,21.74
2463558,0.677832,1.409832,0.401136,-62.650002,12.670000,22.820000,21.74
2463569,0.691008,1.370792,0.405040,-58.590000,6.720000,35.560001,21.77
2463580,0.684176,1.337120,0.391864,-54.180000,1.680000,48.580002,21.77
2463591,0.686616,1.281488,0.351848,-45.849998,-4.270000,58.590000,21.79
2463602,0.682224,1.240496,0.320128,-39.480000,-8.050000,70.419998,21.79
2463612,0.676368,1.182912,0.300608,-38.150002,-11.130000,81.059998,21.73
2463623,0.668072,1.116544,0.319640,-36.889999,-13.580000,86.519997,21.75
2463634,0.644648,1.050176,0.318176,-36.189999,-17.990000,96.949997,21.75
2463645,0.625616,1.009672,0.307928,-37.520000,-21.209999,99.540001,21.79
2463656,0.644648,0.955992,0.283040,-43.119999,-19.879999,103.250000,21.79
2463667,0.628056,0.898408,0.239120,-47.950001,-19.459999,99.400002,21.73
2463678,0.623664,0.843752,0.223016,-53.410000,-19.740000,102.900002,21.78
2463689,0.620736,0.811056,0.216184,-60.830002,-21.209999,103.389999,21.78
2463700,0.622688,0.749080,0.213256,-64.750000,-21.559999,103.739998,21.77
2463711,0.623664,0.646112,0.200080,-67.480003,-23.379999,106.750000,21.77
2463722,0.645624,0.578768,0.171288,-66.220001,-21.700001,108.430000,21.80
2463733,0.649528,0.538752,0.142496,-62.020000,-18.900000,109.269997,21.82
2463744,0.641232,0.468968,0.137616,-61.110001,-19.180000,110.599998,21.82
2463755,0.661240,0.406016,0.163480,-62.930000,-21.559999,109.550003,21.78
2463766,0.667096,0.339648,0.196176,-68.389999,-26.530001,108.150002,21.78
2463777,0.675392,0.269376,0.246928,-77.629997,-30.309999,103.320000,21.79
2463789,0.727608,0.174704,0.269376,-80.430000,-37.450001,97.230003,21.75
2463799,0.743712,0.080520,0.238632,-81.199997,-35.419998,91.839996,21.75
2463810,0.736880,0.064416,0.242536,-86.029999,-36.610001,83.860001,21.77
2463821,0.751520,0.027816,0.218624,-84.910004,-36.889999,76.930000,21.77
2463832,0.743712,-0.035136,0.181536,-65.519997,-42.139999,68.389999,21.77
2463844,0.787144,-0.043432,0.143960,-70.139999,-35.490002,60.759998,21.77
2463855,0.796904,-0.103456,0.107848,-57.610001,-35.070000,49.349998,21.75
2463866,0.813984,-0.175192,0.103456,-46.619999,-33.810001,39.480000,21.74
2463877,0.828136,-0.284504,0.084424,-33.110001,-30.660000,25.969999,21.74
2463888,0.839848,-0.327936,0.045872,-15.820000,-28.629999,13.300000,21.78
2463899,0.843264,-0.327448,0.001464,-1.750000,-26.530001,3.150000,21.78
2463910,0.858880,-0.306952,-0.043432,9.800000,-24.219999,-8.960000,21.78
2463921,0.872056,-0.271816,-0.078568,15.960000,-22.889999,-18.340000,21.75
2463932,0.873032,-0.257664,-0.090280,28.910000,-19.740000,-29.889999,21.75
2463943,0.861320,-0.223992,-0.099552,41.930000,-13.370000,-41.369999,21.75
2463954,0.826672,-0.224480,-0.072224,66.150002,-4.410000,-54.950001,21.75
2463965,0.793488,-0.197152,-0.047336,85.120003,2.100000,-69.019997,21.81
2463976,0.757376,-0.156648,-0.009760,100.660004,7.840000,-86.029999,21.77
2463987,0.745176,-0.110776,0.000000,113.889999,12.530000,-99.260002,21.77
2463998,0.723216,-0.073200,-0.006344,126.769997,18.830000,-115.779999,21.79
2464009,0.731512,-0.081496,-0.017080,140.559998,24.990000,-133.630005,21.79
2464020,0.694912,0.021472,-0.040992,148.610001,31.709999,-146.860001,21.75
2464031,0.652944,0.143472,-0.056120,148.539993,32.340000,-156.869995,21.77
2464042,0.645136,0.221552,-0.062464,147.910004,33.599998,-165.899994,21.77
2464053,0.609512,0.305000,-0.065880,150.919998,35.070000,-173.529999,21.75
2464064,0.563152,0.395768,-0.056608,157.220001,35.349998,-177.520004,21.75
2464075,0.508008,0.621224,-0.046848,157.009995,36.049999,-179.970001,21.75
2464086,0.485072,0.746640,-0.038552,158.410004,18.129999,-177.169998,21.75
2464097,0.490440,0.839360,-0.033184,157.360001,32.130001,-181.020004,21.77
2464108,0.495808,0.847656,-0.026352,158.410004,28.770000,-179.059998,21.75
2464119,0.476776,0.913536,-0.051240,154.839996,29.330000,-175.699997,21.75
2464130,0.461648,1.162904,-0.102480,134.259995,30.240000,-163.240005,21.78
2464141,0.457744,1.393728,-0.104920,99.680000,25.129999,-143.570007,21.78
2464152,0.457744,1.634312,-0.104432,65.379997,19.809999,-120.050003,21.77
2464163,0.448472,1.754360,-0.034648,43.049999,15.120000,-96.809998,21.73
2464174,0.483608,1.803648,0.048800,14.280000,11.270000,-71.540001,21.73
2464185,0.517280,1.820240,0.111264,-2.450000,7.840000,-56.279999,21.77
2464196,0.539240,1.789984,0.162016,-11.900000,4.550000,-34.439999,21.77
2464207,0.565592,1.747040,0.184464,-17.219999,2.800000,-13.020000,21.79
2464218,0.578280,1.718736,0.186416,-19.670000,0.420000,2.870000,21.77
2464229,0.613904,1.691408,0.171288,-23.730000,-2.940000,22.959999,21.77
2464240,0.624640,1.650416,0.165432,-30.730000,-5.180000,40.529999,21.73
2464251,0.621224,1.584048,0.162504,-40.250000,-12.180000,54.389999,21.73
2464261,0.626592,1.501088,0.153720,-48.439999,-16.520000,69.790001,21.77
2464272,0.623176,1.439600,0.119560,-60.830002,-19.740000,83.510002,21.77
2464283,0.612928,1.393240,0.093208,-76.720001,-22.820000,94.220001,21.76
2464294,0.604144,1.294664,0.077592,-91.839996,-25.410000,105.139999,21.76
2464305,0.590480,1.157536,0.070272,-98.769997,-28.000000,110.879997,21.76
2464316,0.586088,1.037488,0.091256,-97.930000,-27.160000,112.910004,21.73
2464327,0.584136,0.949160,0.102968,-92.959999,-25.900000,113.190002,21.73
2464338,0.580232,0.912560,0.096624,-88.339996,-24.219999,114.169998,21.76
2464349,0.582184,0.875472,0.081496,-87.290001,-22.750000,114.449997,21.75
2464361,0.584624,0.822280,0.069296,-88.410004,-22.680000,120.260002,21.75
2464372,0.582184,0.787632,0.064904,-93.940002,-23.520000,119.209999,21.75
2464383,0.585112,0.734440,0.064416,-99.889999,-26.040001,123.620003,21.75
2464394,0.555344,0.685640,0.058560,-106.540001,-31.990000,121.449997,21.75
2464405,0.634888,0.615856,0.081008,-123.059998,-29.049999,122.010002,21.68
2464415,0.604632,0.456768,0.073688,-119.489998,-32.200001,115.849998,21.68
2464426,0.652944,0.381616,0.127368,-117.809998,-29.820000,111.930000,21.75
2464437,0.661728,0.340624,0.129320,-111.510002,-30.799999,109.480003,21.75
2464448,0.671976,0.294264,0.140544,-108.290001,-29.469999,105.139999,21.80
2464459,0.674904,0.265472,0.142496,-107.029999,-31.850000,98.419998,21.80
2464470,0.706624,0.233752,0.117120,-108.639999,-32.689999,92.610001,21.75
2464481,0.719800,0.189832,0.106872,-113.540001,-36.049999,85.610001,21.73
2464492,0.734440,0.117120,0.080520,-111.860001,-33.040001,76.930000,21.73
2464503,0.744688,0.058072,0.079544,-107.449997,-32.689999,67.760002,21.77
2464514,0.754936,-0.016104,0.076128,-96.110001,-30.730000,59.639999,21.77
2464525,0.787144,-0.097112,0.058072,-86.589996,-25.900000,48.650002,21.76
2464536,0.740784,-0.149816,0.030744,-61.810001,-24.290001,34.650002,21.75
2464547,0.824720,-0.156648,0.049288,-65.519997,-20.440001,27.299999,21.75
2464558,0.814960,-0.172752,0.048312,-58.869999,-17.920000,16.240000,21.76
2464569,0.814960,-0.174704,0.057584,-52.570000,-16.660000,3.780000,21.76
2464580,0.818376,-0.208864,0.057584,-35.980000,-13.720000,-7.910000,21.73
2464591,0.818376,-0.214232,0.058560,-16.520000,-9.660000,-17.080000,21.71
2464602,0.818376,-0.205936,0.071248,6.790000,-6.650000,-28.209999,21.71
2464614,0.812032,-0.168360,0.066856,22.750000,-2.520000,-38.849998,21.74
2464625,0.828136,-0.180560,0.065392,48.299999,2.660000,-51.310001,21.74
2464636,0.817888,-0.153232,0.055144,69.440002,9.590000,-62.299999,21.78
2464647,0.797880,-0.099064,0.040016,90.720001,14.910000,-75.320000,21.78
2464658,0.780800,-0.023424,-0.003904,101.290001,18.480000,-87.849998,21.74
2464669,0.789584,-0.021472,-0.049776,113.610001,24.920000,-101.779999,21.75
2464680,0.787632,0.000000,-0.076128,121.589996,30.450001,-111.230003,21.75
2464691,0.747616,0.046360,-0.074176,133.070007,35.419998,-124.040001,21.75
2464702,0.711992,0.157624,-0.057584,147.210007,38.709999,-133.630005,21.75
2464713,0.648552,0.228872,-0.056120,168.699997,38.779999,-142.100006,21.73
2464724,0.624152,0.310368,-0.078568,188.649994,39.340000,-147.770004,21.74
2464735,0.598776,0.500200,-0.058072,198.800003,41.580002,-152.809998,21.74
2464746,0.557296,0.672952,-0.026352,196.630005,38.709999,-154.630005,21.72
2464757,0.569984,0.866688,0.046360,183.050003,39.900002,-153.789993,21.72
2464768,0.512400,1.047248,0.080032,169.889999,27.580000,-149.729996,21.71
2464779,0.514352,1.066768,0.125904,159.809998,20.860001,-144.410004,21.71
2464790,0.553880,0.977464,0.085400,160.860001,24.080000,-148.259995,21.71
2464800,0.567056,1.141920,0.002440,136.220001,24.570000,-136.990005,21.74
2464811,0.556320,1.389824,-0.024400,101.919998,21.980000,-125.790001,21.74
2464822,0.592920,1.446432,-0.044896,63.000000,25.480000,-109.620003,21.72
2464833,0.589504,1.593808,-0.036112,30.870001,27.299999,-82.599998,21.72
2464844,0.522648,1.754848,0.003904,7.770000,19.459999,-58.169998,21.70
2464855,0.567544,1.789984,0.068320,-15.400000,7.700000,-38.290001,21.74
2464866,0.608048,1.693848,0.153720,-22.680000,4.340000,-18.549999,21.74
2464877,0.598776,1.618208,0.205936,-22.190001,0.280000,-1.190000,21.75
2464887,0.631960,1.567944,0.208864,-22.820000,-4.690000,12.390000,21.75
2464898,0.668560,1.480592,0.214232,-20.719999,-1.960000,26.809999,21.71
2464909,0.637816,1.470344,0.195200,-22.120001,-10.290000,37.240002,21.73
2464920,0.671488,1.429840,0.168360,-29.610001,-5.390000,49.000000,21.73
2464931,0.636352,1.358592,0.144936,-38.430000,-10.710000,60.830002,21.76
2464942,0.651968,1.311256,0.117120,-52.639999,-10.220000,72.870003,21.76
2464953,0.626104,1.293200,0.100040,-70.980003,-14.000000,82.879997,21.76
2464964,0.610488,1.244400,0.092720,-93.379997,-22.120001,89.389999,21.70
2464975,0.628056,1.148752,0.098088,-105.699997,-22.610001,96.669998,21.70
2464986,0.613416,1.030656,0.092720,-114.730003,-24.290001,98.910004,21.74
2464997,0.622200,0.944280,0.081984,-115.290001,-24.010000,101.570000,21.74
2465008,0.622688,0.888160,0.054168,-114.449997,-23.170000,101.709999,21.76
2465019,0.617808,0.824720,0.026352,-111.510002,-20.719999,101.989998,21.76
2465030,0.633424,0.760304,0.022936,-111.790001,-20.020000,101.150002,21.79
2465041,0.643672,0.693936,0.055144,-111.790001,-20.650000,103.879997,21.72
2465052,0.648064,0.678808,0.082960,-109.900002,-18.900000,102.760002,21.72
2465063,0.642208,0.637328,0.098576,-112.699997,-20.370001,105.489998,21.73
2465074,0.691984,0.605608,0.150792,-116.339996,-27.930000,104.230003,21.73
2465085,0.693448,0.479216,0.161528,-113.959999,-24.010000,106.470001,21.75
2465096,0.691984,0.421144,0.180072,-111.790001,-25.200001,103.320000,21.77
2465107,0.694912,0.422120,0.191296,-112.279999,-25.480000,99.540001,21.77
2465118,0.671976,0.398208,0.269864,-114.449997,-31.360001,96.809998,21.71
2465129,0.716872,0.351848,0.201544,-115.430000,-27.790001,93.940002,21.71
2465140,0.720776,0.303048,0.186904,-118.510002,-29.049999,88.269997,21.75
2465151,0.742736,0.283040,0.163480,-124.739998,-30.240000,83.720001,21.70
2465162,0.753960,0.241560,0.140056,-129.710007,-31.639999,77.629997,21.70
2465173,0.759816,0.185928,0.130296,-132.860001,-31.290001,71.190002,21.75
2465184,0.693936,0.055144,0.115168,-111.370003,-33.110001,52.430000,21.75
2465201,0.791048,-0.061000,0.142496,-107.660004,-27.510000,51.310001,21.74
2465212,0.788608,-0.121024,0.133712,-86.940002,-23.450001,39.970001,21.74
2465223,0.803736,-0.158600,0.114680,-67.410004,-19.950001,31.990000,21.74
2465234,0.812520,-0.192760,0.076128,-53.060001,-14.980000,21.629999,21.73
2465245,0.825696,-0.217648,0.053680,-35.910000,-11.760000,11.690000,21.72
2465256,0.834968,-0.222528,0.040504,-17.850000,-6.720000,3.500000,21.72
2465267,0.833992,-0.266448,0.035136,5.250000,-0.560000,-7.560000,21.78
2465278,0.835456,-0.248392,0.016104,29.820000,7.000000,-18.200001,21.78
2465289,0.828136,-0.216184,0.011712,51.660000,12.600000,-29.190001,21.72
2465301,0.806664,-0.184952,0.024888,67.410004,17.290001,-41.720001,21.73
2465312,0.778360,-0.159576,0.043432,80.010002,19.809999,-53.340000,21.73
2465323,0.758352,-0.118096,0.071248,86.940002,22.469999,-68.669998,21.71
2465334,0.764696,-0.120048,0.087840,99.610001,28.350000,-84.559998,21.71
2465345,0.748592,-0.110288,0.102480,120.120003,35.000000,-96.389999,21.72
2465355,0.725168,0.002440,0.093208,128.100006,39.130001,-107.519997,21.72
2465366,0.728096,0.099064,0.077592,138.110001,43.400002,-119.349998,21.74
2465377,0.700768,0.178120,0.063928,147.839996,47.250000,-126.699997,21.72
2465388,0.662704,0.260592,0.058560,159.949997,49.419998,-136.429993,21.72
2465399,0.639768,0.397232,0.058560,173.320007,52.500000,-141.820007,21.73
2465410,0.619760,0.508984,0.065392,186.130005,52.990002,-150.149994,21.73
2465421,0.616344,0.518256,0.059536,197.610001,50.119999,-151.270004,21.77
2465431,0.597800,0.624640,0.095648,208.740005,49.840000,-151.759995,21.75
2465442,0.555832,0.649528,0.061000,228.199997,47.529999,-158.970001,21.75
2465454,0.528504,0.714920,-0.000488,246.610001,47.180000,-161.139999,21.71
2465465,0.495320,0.863272,-0.075152,252.490005,46.759998,-157.639999,21.71
2465476,0.544608,1.137528,-0.082472,220.990005,43.610001,-149.100006,21.76
2465488,0.476288,1.242448,-0.120048,195.509995,38.360001,-140.210007,21.73
2465499,0.534360,1.333704,-0.254248,159.039993,41.930000,-125.160004,21.73
2465510,0.512400,1.540616,-0.158112,113.190002,41.580002,-101.570000,21.72
2465521,0.471408,1.591368,-0.162016,87.430000,37.939999,-90.300003,21.72
2465532,0.508984,1.626992,-0.048312,54.880001,38.150002,-65.940002,21.74
2465543,0.489464,1.615280,-0.012200,37.520000,38.290001,-57.889999,21.70
2465553,0.539240,1.626016,0.020008,25.900000,38.709999,-39.759998,21.70
2465564,0.570472,1.650416,0.071248,11.130000,41.090000,-23.730000,21.68
2465575,0.514840,1.672864,0.081496,-8.750000,21.420000,-10.220000,21.68
2465587,0.598776,1.638216,0.167872,-19.600000,25.480000,7.070000,21.74
2465597,0.560224,1.606496,0.222040,-38.430000,17.780001,28.350000,21.74
2465608,0.570472,1.536224,0.252296,-55.369999,12.600000,41.090000,21.73
2465619,0.549976,1.422032,0.287920,-62.230000,5.110000,56.139999,21.70
2465630,0.534848,1.341512,0.305488,-67.690002,-1.540000,67.830002,21.70
2465641,0.551928,1.254160,0.287432,-66.220001,-8.610000,74.129997,21.71
2465652,0.556808,1.185352,0.261080,-63.070000,-11.200000,81.970001,21.71
2465663,0.555832,1.128744,0.209840,-61.320000,-9.170000,87.360001,21.75
2465674,0.563640,1.085312,0.155184,-64.889999,-6.090000,95.760002,21.71
2465685,0.542656,1.079944,0.141520,-79.660004,-7.630000,101.570000,21.71
2465696,0.536312,1.080920,0.141520,-96.459999,-11.830000,107.379997,21.74
2465707,0.528016,1.018456,0.162992,-118.440002,-17.850000,111.650002,21.74
2465718,0.532408,0.966728,0.175192,-140.279999,-26.320000,115.080002,21.74
2465729,0.553880,0.881816,0.172264,-153.440002,-29.049999,114.379997,21.74
2465740,0.557784,0.826672,0.179584,-162.679993,-31.080000,113.959999,21.69
2465751,0.544120,0.723704,0.200080,-159.669998,-36.820000,114.239998,21.71
2465762,0.569008,0.677344,0.194224,-149.380005,-38.220001,112.209999,21.71
2465773,0.595848,0.605120,0.183976,-142.520004,-40.459999,111.230003,21.73
2465785,0.555832,0.575352,0.120048,-126.349998,-49.770000,103.250000,21.73
2465795,0.658800,0.569496,0.179584,-136.710007,-42.980000,112.139999,21.71
2465806,0.640744,0.554368,0.199592,-145.039993,-42.770000,113.540001,21.68
2465817,0.646112,0.517280,0.216184,-151.690002,-47.880001,112.769997,21.68
2465828,0.661728,0.435784,0.243024,-161.490005,-52.990002,111.650002,21.73
2465839,0.680272,0.353800,0.250832,-163.309998,-57.049999,109.269997,21.73
2465850,0.696864,0.238632,0.248880,-154.910004,-60.270000,102.900002,21.75
2465861,0.786656,0.172752,0.299632,-148.119995,-64.610001,93.239998,21.71
2465872,0.770064,0.101992,0.243512,-133.210007,-58.799999,88.900002,21.71
2465884,0.764208,0.063440,0.202032,-120.889999,-57.259998,81.760002,21.71
2465895,0.797880,0.043920,0.157624,-113.400002,-54.389999,73.709999,21.71
2465906,0.812520,0.017568,0.115168,-109.690002,-50.259998,65.800003,21.73
2465917,0.827648,-0.036600,0.091744,-101.150002,-47.040001,55.580002,21.67
2465928,0.841800,-0.099064,0.083936,-91.000000,-42.560001,47.389999,21.67
2465939,0.856440,-0.176656,0.057096,-80.010002,-36.959999,35.279999,21.64
2465950,0.871080,-0.278648,0.044896,-54.389999,-30.799999,22.260000,21.64
2465961,0.864248,-0.286456,0.024888,-28.420000,-23.799999,14.210000,21.71
2465972,0.854488,-0.245464,0.021960,-8.890000,-17.219999,2.870000,21.70
2465983,0.856440,-0.225456,0.011712,2.870000,-10.570000,-8.470000,21.70
2465994,0.835456,-0.197152,0.019520,14.630000,-6.370000,-19.320000,21.67
2466005,0.814472,-0.165432,0.037088,23.520000,-3.850000,-30.450001,21.67
2466016,0.811544,-0.146400,0.038552,32.410000,-0.070000,-39.270000,21.72
2466027,0.809592,-0.155184,0.042456,41.439999,6.020000,-49.770000,21.72
2466038,0.816424,-0.158600,0.048800,58.169998,12.810000,-61.599998,21.68
2466049,0.812520,-0.136640,0.049288,76.370003,20.510000,-70.559998,21.69
2466060,0.793976,-0.032208,0.050264,89.110001,28.070000,-81.620003,21.69
2466071,0.795440,0.013664,0.036112,95.550003,30.660000,-90.440002,21.75
2466082,0.806664,0.042456,0.045872,107.029999,36.470001,-98.139999,21.75
2466093,0.775432,0.179096,0.068808,112.209999,42.630001,-105.559998,21.70
2466103,0.756400,0.196176,0.089304,122.010002,42.279999,-113.889999,21.72
2466114,0.762256,0.163480,0.103944,142.240005,45.430000,-119.419998,21.72
2466125,0.737368,0.259616,0.111264,150.009995,46.270000,-124.320000,21.69
2466136,0.724192,0.336232,0.119560,165.619995,45.290001,-131.880005,21.69
2466147,0.724192,0.297680,0.141032,198.729996,47.110001,-136.919998,21.70
2466157,0.686616,0.482632,0.144448,210.350006,47.040001,-137.059998,21.70
2466168,0.646600,0.549976,0.143960,224.839996,41.369999,-139.509995,21.71
2466179,0.671976,0.622688,0.155672,228.830002,39.759998,-142.800003,21.70
2466190,0.630008,0.726144,0.153232,224.070007,36.259998,-143.289993,21.70
2466201,0.599752,0.732000,0.130296,222.250000,29.820000,-144.690002,21.71
2466212,0.594872,0.839360,0.081496,211.119995,27.790001,-140.279999,21.71
2466222,0.523136,1.019920,-0.025864,186.410004,30.730000,-128.589996,21.69
2466233,0.540704,1.079944,-0.042944,155.050003,21.840000,-122.430000,21.70
2466244,0.521672,1.207312,-0.129320,131.039993,22.820000,-103.949997,21.70
2466255,0.525088,1.308816,-0.119072,111.440002,20.790001,-90.019997,21.75
2466266,0.514840,1.374696,-0.080520,92.120003,14.560000,-80.010002,21.75
2466277,0.539728,1.448384,-0.073200,80.290001,12.250000,-64.750000,21.69
2466289,0.560224,1.372744,-0.037088,82.739998,10.850000,-52.639999,21.68
2466301,0.563640,1.444480,-0.023424,82.809998,10.220000,-38.500000,21.68
2466312,0.581208,1.486448,-0.013176,76.580002,6.930000,-22.120001,21.68
2466323,0.597312,1.514264,0.005368,67.269997,7.420000,-7.350000,21.68
2466334,0.593408,1.516704,-0.006344,53.759998,7.630000,5.460000,21.73
2466345,0.601704,1.504992,-0.024400,20.160000,5.040000,21.070000,21.73
2466356,0.616344,1.494256,-0.032208,13.440000,3.920000,35.279999,21.70
2466366,0.611464,1.471808,-0.039528,-15.680000,3.920000,46.340000,21.71
2466377,0.620736,1.412760,-0.040992,-42.209999,1.680000,59.009998,21.71
2466388,0.620248,1.320528,-0.039528,-69.440002,0.700000,68.739998,21.72
2466399,0.596336,1.269288,-0.023912,-93.800003,-2.870000,75.180000,21.72
2466411,0.599264,1.191208,-0.007320,-111.019997,-5.530000,80.989998,21.72
2466421,0.589504,1.112152,0.010248,-123.059998,-9.170000,85.610001,21.75
2466432,0.587552,1.059448,0.027816,-137.199997,-11.970000,90.019997,21.75
2466443,0.599752,1.000400,0.039528,-154.070007,-16.030001,92.959999,21.72
2466454,0.606584,0.897432,0.051240,-159.529999,-16.730000,95.970001,21.72
2466465,0.607560,0.854000,0.056120,-157.919998,-16.870001,97.650002,21.68
2466476,0.598776,0.825208,0.066856,-156.029999,-17.290001,100.589996,21.68
2466487,0.620248,0.779824,0.077592,-155.610001,-18.690001,102.269997,21.68
2466499,0.637816,0.665632,0.095648,-150.990005,-17.780001,103.669998,21.70
2466510,0.651480,0.573400,0.130296,-143.080002,-17.430000,103.250000,21.70
2466521,0.668560,0.533384,0.149816,-136.080002,-16.520000,101.849998,21.68
2466532,0.687592,0.527040,0.161040,-137.690002,-16.309999,100.239998,21.68
2466543,0.698328,0.516792,0.153232,-160.300003,-17.920000,98.629997,21.68
2466554,0.699792,0.479216,0.165432,-152.110001,-20.090000,95.269997,21.68
2466565,0.691008,0.472384,0.190320,-168.350006,-25.760000,93.239998,21.68
2466576,0.697352,0.437736,0.202032,-179.759995,-30.240000,89.949997,21.71
2466587,0.715408,0.357216,0.216672,-186.479996,-31.920000,83.930000,21.71
2466599,0.744200,0.213256,0.216672,-176.330002,-33.459999,76.860001,21.70
2466611,0.784704,0.095648,0.281088,-151.130005,-36.259998,65.519997,21.70
2466622,0.813984,0.072712,0.223504,-135.729996,-27.860001,64.540001,21.70
2466633,0.784704,0.103944,0.231312,-124.599998,-29.750000,57.259998,21.69
2466644,0.801784,0.103944,0.231312,-119.349998,-29.610001,52.919998,21.69
2466655,0.807640,0.071736,0.239120,-115.919998,-28.280001,49.000000,21.69
2466666,0.811056,0.061976,0.229848,-116.339996,-28.980000,41.580002,21.71
2466678,0.832528,-0.016104,0.223992,-108.919998,-27.299999,32.549999,21.71
2466689,0.842776,-0.119072,0.201544,-90.650002,-24.430000,22.750000,21.77
2466700,0.853024,-0.179096,0.176656,-58.520000,-18.549999,14.420000,21.70
2466711,0.856928,-0.177144,0.160064,-27.020000,-11.060000,4.900000,21.70
2466722,0.846192,-0.161528,0.140056,-4.620000,-6.790000,-5.950000,21.70
2466733,0.852536,-0.149328,0.134688,16.100000,-3.010000,-15.470000,21.70
2466745,0.836432,-0.119560,0.153720,32.689999,1.190000,-25.059999,21.68
2466756,0.832040,-0.061000,0.174216,39.759998,4.410000,-32.270000,21.68
2466767,0.813008,-0.048312,0.185440,47.320000,7.280000,-40.459999,21.68
2466778,0.799832,-0.007808,0.183488,57.400002,8.050000,-48.230000,21.71
2466789,0.791536,0.014640,0.178608,66.709999,10.010000,-56.209999,21.71
2466800,0.803248,-0.005856,0.162504,83.089996,13.860000,-66.919998,21.71
2466811,0.796904,0.082472,0.143472,91.629997,17.290001,-75.599998,21.71
2466821,0.796904,0.134688,0.139080,98.839996,22.680000,-84.699997,21.69
2466832,0.799344,0.105896,0.145912,109.760002,26.740000,-93.800003,21.70
2466843,0.769576,0.123952,0.146888,119.980003,28.350000,-101.360001,21.70
2466854,0.754936,0.171776,0.146400,135.240005,31.219999,-107.589996,21.69
2466865,0.723216,0.244976,0.141520,153.369995,32.900002,-111.790001,21.69
2466876,0.701744,0.382104,0.106384,161.210007,34.299999,-113.190002,21.73
2466887,0.702232,0.428952,0.096136,178.570007,35.980000,-117.320000,21.66
2466898,0.690032,0.462136,0.084424,198.240005,36.330002,-117.180000,21.66
2466909,0.652944,0.630008,0.095160,199.220001,36.889999,-119.279999,21.68
2466920,0.634400,0.687592,0.069784,197.470001,33.529999,-121.519997,21.68
2466931,0.640256,0.680760,0.042944,201.880005,30.870001,-121.379997,21.74
2466941,0.634888,0.717360,0.014152,205.589996,34.509998,-120.610001,21.74
2466952,0.625128,0.843264,-0.046848,203.139999,34.790001,-116.480003,21.68
2466963,0.647088,1.001376,-0.085400,191.240005,41.439999,-108.150002,21.73
2466974,0.593408,1.142896,-0.086864,167.509995,29.610001,-97.019997,21.73
2466985,0.613416,1.238544,-0.046360,142.100006,31.010000,-86.589996,21.70
2466996,0.607560,1.302960,-0.040992,116.830002,27.370001,-74.690002,21.70
2467007,0.605608,1.358592,-0.007808,100.099998,29.190001,-64.540001,21.68
2467018,0.598776,1.428376,0.024400,70.839996,25.200001,-53.970001,21.67
2467029,0.626592,1.444480,0.061488,46.340000,26.459999,-42.560001,21.67
2467040,0.621712,1.450336,0.098088,36.400002,27.160000,-27.650000,21.69
2467051,0.610976,1.478152,0.121024,21.000000,24.709999,-13.020000,21.69
2467062,0.623176,1.472784,0.177632,5.250000,21.139999,-2.100000,21.70
2467073,0.619760,1.457656,0.205448,-10.920000,15.120000,11.410000,21.70
2467084,0.625128,1.428864,0.228872,-24.500000,8.820000,24.780001,21.70
2467096,0.641232,1.391776,0.224968,-47.740002,3.570000,37.869999,21.72
2467108,0.631960,1.324920,0.200080,-66.220001,-0.630000,50.959999,21.72
2467121,0.623664,1.270752,0.180560,-89.320000,-3.710000,63.910000,21.71
2467135,0.606584,1.121912,0.162016,-108.500000,-7.560000,71.470001,21.69
2467146,0.605608,1.014064,0.201544,-108.849998,-9.310000,75.809998,21.69
2467157,0.608048,0.999912,0.227408,-105.699997,-12.180000,78.889999,21.70
2467171,0.611952,0.970144,0.230336,-101.500000,-15.050000,83.650002,21.70
2467183,0.613416,0.918416,0.218624,-98.139999,-17.570000,90.860001,21.70
2467195,0.601704,0.883280,0.195688,-99.190002,-19.740000,92.889999,21.70
2467206,0.607560,0.878888,0.174216,-108.500000,-22.190001,96.809998,21.66
2467219,0.607072,0.817888,0.146400,-120.050003,-24.219999,99.680000,21.66
2467230,0.640256,0.695400,0.180072,-123.129997,-24.639999,100.519997,21.65
2467242,0.638792,0.647576,0.182024,-123.900002,-21.840000,99.750000,21.69
2467255,0.640256,0.607072,0.212280,-130.130005,-23.590000,99.470001,21.69
2467266,0.665144,0.578280,0.229848,-137.339996,-25.340000,98.070000,21.71
2467277,0.676368,0.515816,0.244976,-142.380005,-26.950001,95.900002,21.71
2467288,0.676856,0.477264,0.247904,-151.690002,-32.060001,93.029999,21.69
2467300,0.688080,0.448472,0.240096,-164.500000,-36.400002,91.139999,21.71
2467311,0.712480,0.388448,0.214232,-172.479996,-37.380001,86.800003,21.71
2467322,0.778848,0.223016,0.465064,-156.169998,-45.990002,76.370003,21.70
2467333,0.772504,0.157136,0.282064,-142.729996,-39.130001,81.129997,21.70
2467344,0.741760,0.182024,0.303536,-128.449997,-41.439999,75.879997,21.67
2467355,0.767624,0.208376,0.292312,-122.779999,-43.750000,72.870003,21.62
2467366,0.785192,0.158600,0.261568,-118.790001,-43.820000,70.209999,21.62
2467378,0.799832,0.122488,0.225456,-114.029999,-43.330002,64.330002,21.67
2467389,0.820328,0.122000,0.216672,-117.320000,-42.000000,56.980000,21.67
2467400,0.831552,0.085888,0.216184,-121.029999,-40.950001,48.650002,21.68
2467411,0.841312,-0.010736,0.209352,-113.470001,-38.500000,41.090000,21.64
2467422,0.855952,-0.143472,0.210328,-89.529999,-34.299999,30.660000,21.64
2467433,0.932568,-0.204472,0.229360,-66.919998,-32.340000,19.389999,21.65
2467445,0.894992,-0.230336,0.143472,-36.400002,-23.940001,10.710000,21.65
2467456,0.886696,-0.223016,0.121512,-10.920000,-18.270000,2.030000,21.68
2467467,0.883280,-0.195200,0.098576,5.460000,-12.110000,-5.950000,21.70
2467478,0.879376,-0.168360,0.085888,21.490000,-5.670000,-14.140000,21.70
2467489,0.869616,-0.142496,0.090768,31.290001,-2.240000,-22.540001,21.72
2467501,0.849608,-0.116632,0.093208,36.680000,2.100000,-29.820000,21.72
2467513,0.843264,-0.114680,0.111264,42.700001,4.340000,-39.970001,21.67
2467524,0.845216,-0.091744,0.121024,45.990002,6.930000,-49.279999,21.69
2467536,0.825208,-0.070760,0.122976,50.189999,10.290000,-60.549999,21.69
2467548,0.821792,-0.068808,0.124440,62.580002,14.490000,-70.839996,21.69
2467559,0.810568,-0.012200,0.105896,74.830002,21.350000,-78.610001,21.65
2467569,0.817400,0.002440,0.084912,94.919998,29.820000,-87.989998,21.65
2467580,0.793488,0.095648,0.077104,112.629997,35.840000,-93.660004,21.66
2467591,0.757864,0.172264,0.077104,131.740005,40.459999,-99.540001,21.66
2467602,0.766648,0.223504,0.068320,149.660004,44.520000,-107.239998,21.68
2467614,0.738832,0.277672,0.062952,178.500000,47.810001,-112.769997,21.68
2467624,0.729072,0.320616,0.053192,173.320007,48.720001,-119.629997,21.73
2467636,0.712968,0.377224,0.044896,184.100006,49.560001,-122.779999,21.66
2467647,0.686616,0.452376,0.040992,191.449997,49.910000,-125.440002,21.66
2467658,0.732000,0.603168,0.103944,196.979996,48.439999,-115.010002,21.71
2467669,0.663680,0.509472,-0.016592,224.350006,49.840000,-127.540001,21.71
2467679,0.667096,0.635376,-0.037576,240.029999,53.340000,-126.349998,21.70
2467690,0.633424,0.745664,-0.043432,248.009995,52.080002,-122.779999,21.68
2467701,0.614880,0.850096,-0.029768,242.619995,50.470001,-115.919998,21.68
2467712,0.590968,0.992592,-0.026840,229.389999,48.860001,-108.430000,21.73
2467723,0.573888,1.095560,0.024888,213.220001,41.160000,-98.419998,21.73
2467734,0.595848,1.227808,0.108824,180.389999,38.990002,-80.570000,21.71
2467744,0.570960,1.285392,0.066368,166.669998,34.720001,-76.230003,21.71
2467755,0.607072,1.302472,0.087840,144.339996,33.669998,-68.669998,21.71
2467766,0.602680,1.337120,0.065880,122.080002,36.680000,-57.540001,21.67
2467777,0.632936,1.410808,0.061976,98.699997,31.990000,-49.560001,21.67
2467788,0.640744,1.479128,0.094184,69.300003,29.120001,-38.500000,21.70
2467798,0.640744,1.485472,0.136152,40.599998,25.129999,-28.700001,21.70
2467809,0.650992,1.455704,0.163480,22.049999,20.090000,-17.290001,21.69
2467820,0.638304,1.389824,0.213256,11.760000,15.960000,-8.120000,21.70
2467830,0.632936,1.374696,0.228384,7.420000,12.740000,3.780000,21.70
2467841,0.626592,1.368352,0.219112,-0.630000,7.770000,16.590000,21.69
2467852,0.630008,1.345416,0.207888,-11.970000,2.380000,26.950001,21.69
2467862,0.628056,1.321504,0.183000,-23.030001,-1.120000,40.459999,21.73
2467873,0.624640,1.289784,0.162992,-42.000000,-5.670000,49.770000,21.73
2467884,0.617320,1.264408,0.141520,-65.589996,-7.000000,60.340000,21.71
2467896,0.589504,1.263432,0.108824,-95.199997,-9.800000,69.440002,21.66
2467908,0.582184,1.214144,0.101016,-124.739998,-13.370000,75.949997,21.66
2467919,0.587064,1.056520,0.113704,-137.479996,-14.420000,78.330002,21.69
2467930,0.572912,0.981856,0.140544,-141.610001,-15.050000,79.800003,21.69
2467941,0.588040,0.955504,0.135176,-143.919998,-20.790001,83.860001,21.66
2467952,0.594384,0.891088,0.118584,-138.809998,-21.350000,83.160004,21.64
2467963,0.588528,0.867664,0.119560,-136.080002,-25.549999,88.550003,21.64
2467974,0.601216,0.847168,0.116632,-136.429993,-27.719999,94.360001,21.69
2467985,0.636840,0.772992,0.112728,-139.300003,-26.180000,97.019997,21.69
2467996,0.639768,0.730536,0.116632,-141.539993,-24.920000,100.800003,21.65
2468007,0.632448,0.707600,0.139080,-149.800003,-27.440001,104.720001,21.66
2468018,0.648064,0.679784,0.139080,-157.289993,-28.980000,106.120003,21.66
2468029,0.649528,0.672464,0.164944,-166.110001,-30.520000,107.800003,21.69
2468040,0.641232,0.641720,0.183976,-179.899994,-36.049999,108.570000,21.69
2468051,0.679296,0.594872,0.183000,-192.220001,-37.520000,106.400002,21.71
2468061,0.684664,0.519232,0.202032,-202.789993,-37.590000,102.830002,21.71
2468072,0.692472,0.431392,0.209840,-215.740005,-40.669998,98.279999,21.68
2468083,0.710528,0.345016,0.215208,-222.460007,-43.889999,93.239998,21.64
2468094,0.762744,0.302072,0.366000,-221.550003,-49.980000,83.230003,21.64
2468105,0.779824,0.220088,0.187392,-221.479996,-46.759998,86.660004,21.68
2468116,0.766648,0.172264,0.173728,-216.089996,-46.270000,84.139999,21.68
2468127,0.780800,0.042944,0.190808,-181.649994,-45.150002,77.910004,21.71
2468138,0.797880,-0.036600,0.192760,-175.279999,-42.209999,72.589996,21.67
2468149,0.804224,-0.063928,0.164456,-151.690002,-39.200001,67.199997,21.67
2468160,0.827648,-0.102480,0.149328,-133.139999,-36.540001,58.520000,21.65
2468171,0.842288,-0.146888,0.123952,-119.910004,-33.669998,50.889999,21.65
2468182,0.849608,-0.166896,0.109800,-107.239998,-31.850000,42.490002,21.69
2468193,0.862296,-0.202032,0.107848,-98.489998,-29.400000,34.580002,21.68
2468204,0.879376,-0.281576,0.101016,-88.129997,-24.430000,23.170000,21.68
2468215,0.881328,-0.372344,0.085888,-63.070000,-18.340000,9.800000,21.69
2468225,0.893040,-0.394792,0.080520,-33.599998,-9.940000,1.050000,21.69
2468236,0.893040,-0.345992,0.063440,-13.790000,-1.260000,-11.690000,21.66
2468247,0.887672,-0.339648,0.059048,8.120000,5.460000,-23.660000,21.66
2468258,0.883768,-0.348920,0.063928,31.500000,15.120000,-33.250000,21.69
2468269,0.875960,-0.329400,0.084912,51.029999,24.360001,-44.799999,21.68
2468280,0.864736,-0.284016,0.103456,66.500000,30.870001,-55.720001,21.68
2468290,0.845704,-0.257664,0.116632,81.059998,35.490002,-63.910000,21.70
2468301,0.829112,-0.255224,0.111752,100.589996,40.599998,-75.180000,21.70
2468312,0.796416,-0.185928,0.105408,122.080002,42.630001,-82.529999,21.65
2468323,0.777872,-0.092720,0.091256,143.919998,45.779999,-91.980003,21.65
2468336,0.780312,-0.041480,0.084912,163.660004,49.279999,-101.570000,21.60
2468347,0.767136,0.071248,0.094184,180.389999,52.360001,-109.339996,21.67
2468357,0.734440,0.119560,0.153720,194.809998,53.759998,-119.699997,21.67
2468368,0.711992,0.169336,0.203496,212.309998,56.070000,-126.629997,21.71
2468379,0.684664,0.231800,0.248880,248.289993,56.070000,-136.009995,21.71
2468390,0.671000,0.215208,0.268400,262.429993,55.160000,-144.830002,21.65
2468400,0.650016,0.329400,0.245952,290.149994,56.840000,-148.190002,21.64
2468411,0.600240,0.450912,0.187880,313.809998,52.360001,-150.639999,21.64
2468422,0.614880,0.560712,0.110288,320.880005,48.790001,-151.619995,21.65
2468432,0.605608,0.698816,0.036600,321.440002,47.880001,-154.279999,21.65
2468443,0.609024,0.673928,-0.141032,313.600006,46.970001,-153.020004,21.68
2468458,0.568520,0.955016,-0.081496,266.000000,42.560001,-140.910004,21.63
2468469,0.505080,1.247816,-0.098576,214.690002,24.850000,-122.709999,21.63
2468480,0.537288,1.301008,-0.069784,158.059998,14.350000,-104.930000,21.67
2468491,0.514840,1.397632,-0.039528,118.089996,6.930000,-87.570000,21.67
2468501,0.492880,1.491816,-0.001464,81.550003,5.390000,-73.779999,21.63
2468512,0.519720,1.499624,0.056608,59.639999,-3.010000,-58.590000,21.65
2468523,0.554856,1.462048,0.076128,58.939999,2.450000,-55.439999,21.65
2468534,0.575840,1.504016,0.071736,52.639999,4.620000,-46.970001,21.69
2468545,0.604144,1.550864,0.070272,44.799999,6.440000,-33.599998,21.69
2468555,0.618784,1.579168,0.064416,38.009998,9.450000,-19.530001,21.68
2468567,0.624640,1.553792,0.062464,24.920000,11.200000,-3.500000,21.62
2468578,0.612928,1.533784,0.089792,10.010000,9.450000,9.170000,21.62
2468589,0.626592,1.530368,0.119560,-9.450000,5.040000,26.950001,21.69
2468600,0.612440,1.482544,0.133712,-25.340000,-0.700000,43.540001,21.69
2468611,0.619760,1.393240,0.150792,-43.189999,-5.110000,54.250000,21.70
2468621,0.610976,1.267336,0.160064,-53.130001,-7.280000,65.099998,21.70
2468632,0.604144,1.199992,0.139080,-58.590000,-6.860000,71.820000,21.64
2468643,0.599752,1.148752,0.111752,-66.989998,-6.650000,74.269997,21.66
2468654,0.584624,1.098976,0.099064,-74.760002,-9.030000,77.070000,21.66
2468665,0.603168,1.044320,0.100040,-86.169998,-7.700000,80.639999,21.66
2468676,0.607560,1.023824,0.106872,-100.449997,-8.680000,83.720001,21.66
2468686,0.604144,1.025776,0.121024,-115.220001,-10.220000,87.709999,21.67
2468697,0.596336,1.022848,0.118096,-135.240005,-13.090000,97.089996,21.66
2468708,0.585600,0.990640,0.103944,-151.690002,-15.400000,99.260002,21.66
2468719,0.592432,0.889136,0.100528,-163.729996,-19.040001,102.129997,21.66
2468730,0.591456,0.778848,0.113216,-171.429993,-20.580000,102.269997,21.66
2468741,0.610488,0.670024,0.126880,-174.020004,-21.490000,101.779999,21.68
2468752,0.619272,0.666608,0.169824,-179.619995,-22.610001,101.290001,21.66
2468764,0.610000,0.667584,0.188856,-184.240005,-26.110001,102.620003,21.66
2468775,0.615368,0.619272,0.209352,-191.240005,-30.730000,102.830002,21.69
2468787,0.635376,0.547048,0.202032,-195.720001,-32.900002,102.410004,21.69
2468798,0.648064,0.488976,0.202032,-202.789993,-42.070000,100.239998,21.68
2468809,0.661240,0.434320,0.212768,-207.550003,-41.160000,100.730003,21.66
2468820,0.652944,0.334280,0.172752,-208.740005,-46.689999,94.430000,21.66
2468831,0.687592,0.270352,0.189832,-210.419998,-49.070000,92.540001,21.68
2468842,0.727120,0.229848,0.214232,-214.550003,-50.259998,93.099998,21.68
2468852,0.747128,0.158600,0.206424,-211.889999,-50.259998,88.059998,21.64
2468864,0.768112,0.038552,0.212280,-202.789993,-49.700001,80.080002,21.64
2468875,0.757864,-0.109800,0.122488,-161.490005,-45.849998,63.770000,21.64
2468886,0.834480,-0.146888,0.201544,-149.729996,-44.029999,63.630001,21.64
2468897,0.831552,-0.196664,0.189344,-108.430000,-38.080002,53.900002,21.64
2468908,0.831064,-0.209352,0.171776,-100.449997,-34.790001,43.889999,21.71
2468919,0.853024,-0.230824,0.152256,-80.500000,-29.750000,18.480000,21.71
2468930,0.870592,-0.322080,0.139568,-50.610001,-23.379999,25.760000,21.68
2468941,0.882792,-0.312808,0.106384,-31.500000,-17.219999,15.400000,21.63
2468952,0.889136,-0.271328,0.096624,-15.400000,-12.880000,4.550000,21.63
2468963,0.885720,-0.262544,0.097112,-1.190000,-6.650000,-4.480000,21.67
2468974,0.864736,-0.256200,0.111752,10.850000,-2.030000,-15.960000,21.67
2468985,0.853024,-0.268400,0.118584,24.010000,1.960000,-28.980000,21.66
2468995,0.849608,-0.269864,0.121512,42.349998,6.860000,-38.779999,21.64
2469006,0.839848,-0.236680,0.120048,54.740002,12.180000,-51.590000,21.64
2469017,0.843264,-0.215696,0.123464,70.769997,19.459999,-63.279999,21.68
2469028,0.832528,-0.156648,0.121024,82.739998,26.180000,-70.070000,21.68
2469039,0.804224,-0.117120,0.109312,92.260002,32.340000,-80.500000,21.70
2469050,0.803248,-0.098088,0.101992,110.459999,38.919998,-90.580002,21.70
2469060,0.777384,-0.015128,0.093208,125.860001,46.549999,-97.019997,21.68
2469071,0.746640,0.080032,0.083448,141.050003,50.330002,-104.860001,21.66
2469082,0.717360,0.173728,0.099552,159.389999,53.830002,-110.040001,21.66
2469092,0.703696,0.192760,0.115656,177.449997,56.560001,-118.160004,21.66
2469103,0.685152,0.243512,0.139080,199.570007,58.169998,-125.089996,21.66
2469114,0.661240,0.295240,0.164944,230.649994,60.060001,-130.619995,21.65
2469125,0.653920,0.388448,0.154696,251.860001,60.619999,-134.539993,21.65
2469135,0.612928,0.545584,0.136640,275.170013,61.110001,-135.800003,21.67
2469146,0.593896,0.702232,0.104920,285.739990,57.889999,-133.490005,21.68
2469157,0.607560,0.752984,0.116144,281.329987,56.700001,-134.679993,21.68
2469168,0.576328,0.752008,0.110776,281.190002,51.099998,-137.550003,21.64
2469178,0.581208,0.777872,0.085888,272.019989,51.590000,-137.410004,21.64
2469189,0.558760,0.896944,0.009272,248.149994,53.689999,-129.919998,21.68
2469200,0.526064,1.102880,-0.008296,215.320007,43.610001,-118.370003,21.68
2469210,0.568032,1.367376,-0.024888,168.139999,41.369999,-100.379997,21.64
2469221,0.531920,1.447408,0.007320,127.959999,34.369999,-87.849998,21.66
2469232,0.519720,1.493280,0.052704,105.559998,24.360001,-69.650002,21.66
2469243,0.543144,1.518168,0.150792,74.690002,16.590000,-62.299999,21.63
2469253,0.616832,1.477176,0.217648,57.400002,13.440000,-45.150002,21.63
2469264,0.580720,1.384456,0.254248,48.650002,11.270000,-43.189999,21.68
2469275,0.598288,1.414224,0.261568,40.180000,6.930000,-33.810001,21.68
2469285,0.627080,1.459608,0.234240,33.110001,7.490000,-20.440001,21.62
2469296,0.642208,1.420080,0.197640,24.360001,7.630000,-10.150000,21.62
2469307,0.632936,1.427400,0.164944,14.980000,3.360000,3.920000,21.62
2469318,0.641232,1.455216,0.168848,-2.100000,-0.980000,18.690001,21.65
2469328,0.643184,1.423496,0.193736,-21.980000,-7.350000,28.629999,21.65
2469339,0.650016,1.303936,0.209840,-31.570000,-10.150000,41.020000,21.67
2469350,0.643672,1.256600,0.205936,-40.950001,-12.180000,49.279999,21.61
2469361,0.639768,1.157536,0.179584,-45.709999,-13.650000,55.369999,21.61
2469372,0.626592,1.096048,0.144936,-49.279999,-15.400000,60.689999,21.66
2469382,0.621712,1.083848,0.113704,-53.689999,-12.740000,64.050003,21.66
2469393,0.609024,1.082872,0.089304,-61.669998,-13.790000,67.480003,21.67
2469404,0.608048,1.072624,0.079544,-78.260002,-12.950000,70.699997,21.67
2469415,0.600240,1.040416,0.078080,-100.309998,-12.950000,74.480003,21.69
2469425,0.597800,0.985272,0.073688,-116.480003,-14.700000,78.610001,21.68
2469436,0.600728,0.960872,0.100040,-136.360001,-15.680000,82.040001,21.68
2469447,0.582672,0.939888,0.123952,-148.610001,-19.040001,87.639999,21.67
2469457,0.588040,0.895968,0.115656,-158.339996,-22.680000,92.120003,21.67
2469468,0.591456,0.822768,0.127368,-161.979996,-25.340000,97.089996,21.66
2469479,0.598288,0.765672,0.147864,-162.050003,-27.440001,98.769997,21.66
2469490,0.621712,0.704184,0.151280,-159.320007,-27.790001,99.540001,21.66
2469501,0.643184,0.632936,0.160064,-158.759995,-26.040001,99.540001,21.65
2469512,0.644648,0.626592,0.244000,-163.660004,-31.639999,97.019997,21.65
2469523,0.666608,0.590968,0.177632,-162.050003,-27.790001,101.500000,21.64
2469534,0.671488,0.543632,0.178608,-166.809998,-28.000000,101.570000,21.64
2469545,0.679784,0.483120,0.184464,-170.380005,-29.750000,100.589996,21.64
2469555,0.699304,0.434320,0.226920,-169.679993,-34.020000,99.400002,21.64
2469566,0.696376,0.319640,0.240584,-160.300003,-34.439999,96.529999,21.64
2469577,0.708576,0.288896,0.284016,-151.550003,-37.520000,95.900002,21.61
2469589,0.741272,0.269376,0.304024,-146.649994,-42.000000,93.099998,21.61
2469599,0.760304,0.266448,0.295728,-147.770004,-42.700001,92.190002,21.64
2469610,0.769576,0.237656,0.282064,-151.059998,-43.400002,88.690002,21.64
2469621,0.775432,0.193736,0.264496,-158.970001,-43.820000,82.459999,21.63
2469632,0.796416,0.075640,0.252784,-156.520004,-42.279999,75.529999,21.63
2469643,0.842776,-0.108824,0.269376,-139.720001,-39.340000,63.700001,21.63
2469654,0.862784,-0.226432,0.229848,-104.230003,-33.320000,55.860001,21.63
2469665,0.841800,-0.199592,0.228872,-76.089996,-28.490000,47.880001,21.63
2469676,0.853512,-0.251808,0.232776,-48.790001,-24.010000,36.330002,21.63
2469687,0.864736,-0.330864,0.250832,-30.520000,-19.809999,27.580000,21.66
2469698,0.862296,-0.353312,0.251808,-7.000000,-18.410000,1.260000,21.66
2469709,0.875960,-0.328424,0.240584,9.940000,-15.540000,8.190000,21.67
2469720,0.881328,-0.319640,0.213744,24.430000,-10.920000,-2.870000,21.67
2469730,0.863272,-0.277184,0.197152,33.320000,-8.330000,-10.430000,21.69
