timestamp_ms,ax,ay,az,gx,gy,gz,tempC
822273,0.461160,0.512400,1.039928,46.759998,-41.230000,25.760000,19.64
822284,0.467992,0.507032,1.030656,38.500000,-45.709999,29.330000,19.63
822295,0.503128,0.481168,1.014552,26.950001,-48.160000,32.830002,19.63
822306,0.499224,0.488488,0.999424,13.370000,-51.450001,35.840000,19.65
822318,0.516792,0.497760,0.973560,-0.350000,-53.549999,39.410000,19.57
822329,0.530456,0.466040,0.954040,-9.800000,-54.389999,42.279999,19.57
822340,0.563640,0.398208,0.915976,-10.920000,-53.970001,44.029999,19.66
822352,0.595360,0.389424,0.898408,-9.310000,-52.500000,44.450001,19.66
822363,0.610488,0.342576,0.888648,-5.670000,-50.540001,44.730000,19.62
822374,0.635376,0.356728,0.884256,-4.760000,-46.689999,44.029999,19.62
822385,0.633424,0.360144,0.876448,-9.240000,-44.310001,43.750000,19.62
822397,0.612928,0.347944,0.867176,-13.580000,-44.660000,45.570000,19.64
822408,0.623176,0.354776,0.853512,-15.960000,-42.980000,46.549999,19.64
822419,0.597800,0.338184,0.829112,-19.389999,-46.549999,50.049999,19.66
822430,0.619760,0.328424,0.830576,-21.629999,-49.279999,53.340000,19.66
822442,0.601704,0.340136,0.835456,-24.080000,-52.709999,54.669998,19.66
822453,0.631960,0.341600,0.828136,-28.350000,-51.240002,56.419998,19.61
822464,0.618784,0.305976,0.835944,-31.360001,-50.259998,57.400002,19.61
822475,0.601704,0.297192,0.819840,-30.100000,-50.820000,59.709999,19.60
822487,0.586088,0.301096,0.804224,-31.500000,-52.570000,61.320000,19.58
822498,0.602680,0.260104,0.770552,-33.740002,-52.709999,62.160000,19.58
822509,0.594384,0.256200,0.775920,-36.400002,-53.619999,62.439999,19.61
822521,0.587064,0.263032,0.790560,-42.630001,-54.529999,62.160000,19.62
822532,0.584624,0.223016,0.797392,-49.630001,-55.580002,61.810001,19.62
822544,0.607072,0.180560,0.782264,-51.450001,-55.860001,70.910004,19.62
822555,0.544608,0.154696,0.738344,-46.619999,-57.750000,63.279999,19.62
822566,0.577792,0.157136,0.719800,-42.630001,-58.169998,63.490002,19.63
822577,0.599264,0.114192,0.692472,-38.009998,-58.099998,62.509998,19.63
822589,0.608536,0.109312,0.686616,-35.770000,-57.680000,62.230000,19.63
822600,0.610976,0.120048,0.689544,-33.950001,-57.610001,60.970001,19.62
822611,0.631960,0.101504,0.696864,-31.500000,-57.259998,59.360001,19.62
822622,0.628544,0.098576,0.695888,-29.120001,-58.450001,59.990002,19.64
822634,0.664656,0.075152,0.693448,-28.770000,-59.849998,61.810001,19.59
822645,0.688080,0.080032,0.691984,-28.420000,-59.570000,62.580002,19.59
822656,0.692960,0.042944,0.688568,-26.110001,-59.709999,63.700001,19.61
822667,0.717848,0.054656,0.689544,-25.129999,-60.270000,65.309998,19.61
822679,0.800808,0.076128,0.664656,-28.629999,-61.459999,88.339996,19.62
822690,0.639280,0.070760,0.665144,-30.590000,-61.529999,64.400002,19.62
822701,0.738344,0.033184,0.663192,-36.680000,-61.040001,67.830002,19.62
822712,0.725168,0.076128,0.666608,-42.000000,-62.230000,68.949997,19.60
822724,0.736392,0.059048,0.659776,-47.180000,-64.889999,70.209999,19.60
822735,0.763720,0.011712,0.629032,-46.619999,-65.940002,71.050003,19.61
822746,0.763232,0.031232,0.610000,-48.230000,-67.620003,73.779999,19.60
822758,0.777872,-0.042944,0.589016,-44.660000,-68.739998,75.180000,19.60
822769,0.777384,-0.036600,0.578768,-44.169998,-69.089996,75.180000,19.59
822781,0.772992,-0.046360,0.561688,-51.380001,-70.070000,75.320000,19.59
822792,0.751520,-0.065392,0.520696,-55.930000,-71.120003,74.970001,19.61
822803,0.761280,-0.124440,0.536312,-58.869999,-73.639999,74.690002,19.61
822815,0.737856,-0.131272,0.525088,-50.750000,-76.230003,74.410004,19.61
822826,0.743224,-0.131272,0.509472,-45.779999,-81.900002,76.580002,19.61
822838,0.772504,-0.116632,0.493368,-46.060001,-86.099998,78.260002,19.62
822850,0.779824,-0.139568,0.470920,-45.360001,-89.389999,78.820000,19.62
822861,0.793976,-0.184952,0.447496,-42.980000,-91.349998,78.750000,19.62
822872,0.787144,-0.188856,0.419680,-40.529999,-93.309998,78.330002,19.62
822883,0.774944,-0.185928,0.382104,-39.200001,-95.690002,79.589996,19.66
822895,0.756888,-0.142496,0.339648,-37.590000,-97.160004,81.480003,19.59
822906,0.767136,-0.209352,0.277184,-32.130001,-98.209999,83.019997,19.59
822918,0.785680,-0.284016,0.225456,-21.280001,-97.230003,86.099998,19.65
822930,0.773480,-0.309392,0.184952,-10.570000,-96.809998,88.550003,19.65
822941,0.781288,-0.298656,0.145424,-6.020000,-96.180000,90.720001,19.63
822953,0.772016,-0.292800,0.126392,-9.380000,-92.889999,91.769997,19.62
822964,0.740296,-0.331352,0.122488,-13.790000,-89.529999,92.680000,19.62
822975,0.715408,-0.397232,0.114192,-17.010000,-86.449997,93.099998,19.62
822987,0.701256,-0.438712,0.098576,-19.670000,-84.279999,92.610001,19.62
822999,0.692472,-0.480192,0.052704,-21.350000,-81.410004,91.279999,19.59
823010,0.699304,-0.505080,0.013664,-21.000000,-76.930000,89.459999,19.64
823021,0.705160,-0.593408,-0.060512,-15.540000,-70.980003,85.959999,19.64
823033,0.700768,-0.648064,-0.095160,-7.490000,-67.620003,81.970001,19.65
823044,0.691008,-0.669536,-0.101016,-3.710000,-62.230000,77.629997,19.63
823056,0.681248,-0.680760,-0.098088,-2.100000,-57.470001,73.290001,19.63
823068,0.680272,-0.709552,-0.093208,-3.500000,-53.549999,67.550003,19.63
823079,0.664656,-0.751520,-0.063440,-7.980000,-50.259998,61.180000,19.63
823091,0.657336,-0.815448,-0.051240,-11.690000,-48.020000,53.830002,19.58
823102,0.658312,-0.828136,-0.062952,-17.780001,-44.730000,45.080002,19.64
823114,0.670024,-0.904752,-0.077104,-24.639999,-40.599998,35.000000,19.64
823126,0.653432,-1.002352,-0.097112,-28.490000,-39.200001,23.590000,19.61
823137,0.674904,-1.055544,-0.138592,-30.799999,-37.520000,10.990000,19.63
823149,0.671976,-1.085800,-0.186416,-30.030001,-33.880001,-3.990000,19.63
823161,0.660752,-1.168760,-0.199592,-24.430000,-28.770000,-21.350000,19.62
823175,0.641720,-1.181448,-0.231800,-7.840000,-25.480000,-43.330002,19.61
823186,0.620736,-1.207800,-0.268888,9.100000,-20.860001,-60.970001,19.61
823198,0.613904,-1.241472,-0.317688,26.530001,-12.250000,-85.470001,19.62
823209,0.538752,-1.315160,-0.356728,48.930000,-13.580000,-110.320000,19.62
823221,0.574376,-1.318576,-0.450912,77.349998,-5.880000,-140.210007,19.64
823232,0.477264,-1.358104,-0.593408,128.100006,7.630000,-181.929993,19.62
823244,0.485560,-1.335656,-0.763232,183.610001,9.800000,-223.020004,19.62
823255,0.296216,-1.401536,-0.957944,248.850006,28.559999,-300.649994,19.64
823266,0.584624,-1.435208,-1.195600,312.619995,24.290001,-273.559998,19.64
823278,0.341112,-1.361520,-1.382504,403.970001,39.200001,-332.989990,19.61
823289,0.403576,-1.428376,-1.564528,503.649994,45.150002,-328.089996,19.55
823300,0.166408,-1.312720,-1.888560,623.280029,61.389999,-411.809998,19.55
823312,0.304512,-1.301496,-1.920768,698.809998,49.770000,-367.220001,19.64
823324,0.028792,-1.171688,-1.997384,780.080017,62.650002,-429.799988,19.59
823336,0.045872,-1.071160,-1.857816,798.419983,67.480003,-433.579987,19.59
823348,-0.379664,-0.839848,-1.382016,815.289978,82.180000,-491.609985,19.64
823359,-0.880840,-0.970144,-0.741760,825.719971,60.970001,-557.270020,19.64
823371,-1.132648,-1.288320,-0.258152,821.729980,29.260000,-624.679993,19.65
823383,-1.504992,-1.677744,-0.702720,909.859985,-5.670000,-681.380005,19.65
823395,-1.652368,0.469456,-2.077904,728.140015,-15.960000,-686.349976,19.65
823406,-2.295552,2.612752,-3.285216,418.529999,-200.199997,-445.619995,19.62
823418,-2.838208,2.452200,-3.545808,-62.230000,-306.320007,-748.510010,19.62
823429,-1.759240,2.247240,-3.091968,-392.070007,-14.840000,-615.159973,19.62
823441,-2.914824,2.185264,-1.984208,-148.119995,-2.450000,-427.070007,19.64
823452,-2.039352,4.810216,-0.484584,-128.100006,10.080000,-391.369995,19.64
823465,-0.940376,2.944592,-0.359168,-219.729996,56.770000,-310.309998,19.61
823476,-0.763232,2.625440,-0.309880,-96.180000,86.449997,-226.729996,19.61
823488,-0.711992,3.085624,0.090768,-108.150002,69.300003,-156.240005,19.61
823499,-0.486048,2.310680,0.298656,-122.150002,59.990002,-92.050003,19.63
823511,-0.339648,1.765584,0.446520,-62.790001,53.619999,-52.779999,19.60
823522,-0.386496,1.850496,0.490440,-12.670000,34.790001,-16.100000,19.60
823534,-0.403576,1.875384,0.585112,-13.090000,14.630000,2.450000,19.66
823545,-0.381128,1.549400,0.515816,-6.790000,4.900000,34.790001,19.66
823557,-0.445544,1.446432,0.407480,20.790001,-3.150000,33.740002,19.63
823569,-0.435784,1.527440,0.452376,22.820000,-7.630000,43.119999,19.62
823580,-0.398696,1.427888,0.404552,20.790001,-9.870000,55.020000,19.62
823591,-0.415288,1.406416,0.258640,27.790001,-12.180000,63.000000,19.62
823603,-0.325984,1.432768,0.076616,23.309999,-5.670000,75.669998,19.62
823614,-0.416752,1.371768,-0.110776,21.770000,-5.040000,76.650002,19.62
823626,-0.393328,1.506456,-0.181536,7.000000,-5.880000,81.620003,19.65
823638,-0.351360,1.519144,-0.167384,-2.730000,2.380000,95.339996,19.65
823650,-0.385520,1.562576,-0.096136,-6.650000,0.980000,103.040001,19.61
823662,-0.325008,1.652856,0.004880,-16.730000,1.820000,116.480003,19.61
823673,-0.275720,1.691896,-0.029280,-32.619999,2.030000,135.589996,19.61
823685,-0.264496,1.695800,-0.109312,-54.320000,-1.820000,152.039993,19.64
823697,-0.225944,1.650904,-0.156160,-79.099998,-1.260000,170.100006,19.61
823710,-0.204960,1.587952,-0.187392,-102.620003,-4.340000,188.300003,19.61
823721,-0.164944,1.562576,-0.235216,-131.039993,-5.740000,206.080002,19.63
823733,-0.140544,1.594296,-0.178608,-167.160004,-13.300000,217.910004,19.63
823745,-0.109312,1.586488,-0.157136,-195.720001,-18.059999,231.699997,19.59
823757,-0.060512,1.451312,-0.245952,-226.729996,-21.840000,242.270004,19.68
823768,-0.014640,1.289296,-0.182024,-240.520004,-28.490000,253.050003,19.68
823780,0.012200,1.348832,-0.128832,-273.559998,-33.810001,268.660004,19.63
823791,0.039040,1.362984,-0.077592,-296.380005,-39.130001,278.739990,19.66
823802,0.065392,1.200480,-0.085400,-318.779999,-42.980000,284.829987,19.66
823814,0.073688,1.164856,-0.032208,-340.059998,-51.799999,291.410004,19.64
823826,0.096624,1.097024,-0.005368,-347.200012,-63.419998,298.549988,19.64
823838,0.120048,0.866200,0.021472,-370.579987,-72.870003,302.470001,19.62
823850,0.198128,0.562176,-0.024400,-359.730011,-77.070000,304.079987,19.64
823862,0.209840,0.520208,-0.075640,-353.429993,-81.410004,302.470001,19.64
823874,0.208376,0.585600,-0.185440,-342.649994,-84.629997,301.140015,19.63
823885,0.208376,0.513864,-0.230336,-346.779999,-86.660004,298.059998,19.59
823896,0.341112,0.247904,-0.176168,-351.470001,-75.599998,291.059998,19.59
823908,0.257176,-0.020008,-0.169824,-340.200012,-80.919998,280.839996,19.65
823920,0.307440,-0.170312,-0.199104,-324.869995,-84.559998,271.529999,19.65
823931,0.371856,-0.249368,-0.292312,-320.880005,-87.220001,263.200012,19.60
823943,0.384544,-0.324032,-0.333304,-320.250000,-88.059998,254.660004,19.61
823955,0.390888,-0.409920,-0.331352,-317.450012,-83.510002,240.660004,19.61
823967,0.370880,-0.587064,-0.287432,-308.209991,-82.809998,226.169998,19.62
823979,0.366000,-0.728096,-0.365024,-300.440002,-80.430000,210.350006,19.63
823990,0.390400,-0.910120,-0.442616,-274.190002,-82.110001,196.979996,19.63
824002,0.455792,-1.082384,-0.611952,-244.440002,-77.489998,177.729996,19.65
824014,0.513864,-1.161928,-0.658312,-216.160004,-68.669998,154.839996,19.66
824025,0.553880,-1.402512,-0.657824,-178.779999,-62.090000,132.300003,19.66
824036,0.569984,-1.504992,-0.669048,-144.479996,-54.389999,104.230003,19.65
824048,0.507032,-1.601128,-0.581208,-108.779999,-42.700001,79.800003,19.65
824060,0.604632,-1.658712,-0.510936,-71.190002,-33.040001,51.869999,19.66
824071,0.626592,-1.710440,-0.447496,-38.500000,-23.730000,26.389999,19.61
824083,0.582184,-1.687504,-0.351848,-26.670000,-16.030001,-3.080000,19.61
824094,0.612928,-1.753384,-0.255712,-13.510000,-5.180000,-31.709999,19.65
824107,0.609024,-1.680672,-0.229360,10.500000,10.990000,-62.580002,19.65
824118,0.617320,-1.540616,-0.289872,39.689999,23.100000,-91.000000,19.64
824130,0.639768,-1.484008,-0.395768,74.830002,35.490002,-117.809998,19.69
824142,0.619272,-1.500600,-0.494344,139.160004,45.849998,-145.110001,19.69
824154,0.606096,-1.474736,-0.557296,191.660004,50.400002,-167.440002,19.68
824165,0.581696,-1.396656,-0.547536,237.020004,51.029999,-189.210007,19.64
824177,0.546072,-1.209264,-0.523624,277.200012,50.889999,-217.559998,19.64
824189,0.536312,-1.074576,-0.500200,312.339996,50.330002,-234.639999,19.59
824200,0.478728,-0.970144,-0.503616,343.559998,49.770000,-248.289993,19.60
824212,0.433832,-0.855952,-0.547536,376.250000,49.209999,-265.230011,19.60
824224,0.409432,-0.798856,-0.638304,416.010010,50.400002,-280.000000,19.68
824236,0.365024,-0.671976,-0.736880,468.440002,54.110001,-293.649994,19.68
824248,0.290360,-0.577304,-0.830088,543.059998,54.880001,-307.160004,19.65
824259,0.198128,-0.474824,-0.868640,628.669983,51.520000,-320.179993,19.61
824271,0.032208,-0.374296,-0.784704,698.530029,38.080002,-372.470001,19.61
824282,-0.007808,-0.303536,-0.688080,737.799988,14.700000,-388.220001,19.63
824294,0.004392,-0.368440,-0.514352,761.739990,18.480000,-406.279999,19.62
824306,-0.547048,-0.446520,-0.553392,778.469971,-28.840000,-420.279999,19.62
824317,-0.702232,-0.257664,-0.841312,776.859985,-52.290001,-455.209991,19.65
824329,-0.367464,0.475312,-0.894016,674.169983,-23.170000,-440.230011,19.65
824341,-1.074088,1.036024,-0.947696,427.910004,-101.779999,-452.339996,19.64
824352,-1.044320,1.323944,-1.444480,209.929993,-196.070007,-455.769989,19.67
824365,-0.673440,1.069208,-1.779736,-59.430000,-152.600006,-455.910004,19.67
824377,-1.076040,1.008208,-1.931992,-175.839996,-80.849998,-451.500000,19.67
824388,-1.515728,1.499136,-1.542568,-119.139999,-55.299999,-397.600006,19.60
824400,-1.465952,2.492704,-0.966728,-58.520000,-43.400002,-357.070007,19.60
824412,-1.054080,2.815760,-0.485560,-92.050003,-18.270000,-317.100006,19.61
824425,-0.937936,2.610312,-0.095160,-136.850006,3.080000,-262.359985,19.59
824436,-0.819352,2.318000,-0.017568,-123.620003,8.470000,-197.470001,19.59
824447,-0.622200,2.211616,-0.089304,-74.269997,11.830000,-138.389999,19.68
824459,-0.501664,2.219912,0.065392,-61.040001,8.610000,-109.620003,19.68
824471,-0.476776,1.948584,0.211304,-44.660000,-0.560000,-75.180000,19.64
824483,-0.515328,2.007632,0.417728,-15.260000,-9.940000,-41.860001,19.63
824495,-0.521672,2.051552,0.515816,-6.090000,-16.870001,-17.360001,19.63
824506,-0.572912,1.876360,0.386496,11.760000,-21.070000,5.740000,19.66
824518,-0.628544,1.918816,0.208376,21.770000,-24.850000,32.900002,19.61
824530,-0.613904,1.832928,-0.004880,27.160000,-20.370001,54.669998,19.61
824541,-0.643672,1.761680,-0.133224,30.730000,-15.820000,73.779999,19.64
824554,-0.593408,1.748504,-0.126392,21.280001,-8.750000,84.910004,19.64
824565,-0.545584,1.599664,-0.171776,12.250000,-1.470000,104.230003,19.63
824577,-0.498248,1.634312,-0.155672,-0.210000,-0.840000,110.459999,19.63
824589,-0.404552,1.455704,-0.158600,-10.080000,8.260000,123.199997,19.63
824601,-0.418704,1.419592,-0.223504,-9.170000,9.170000,131.809998,19.60
824612,-0.373808,1.544520,-0.332328,-24.990000,10.080000,141.190002,19.63
824624,-0.346968,1.599176,-0.357704,-59.709999,10.850000,151.550003,19.63
824636,-0.306464,1.546960,-0.311344,-93.239998,13.790000,158.830002,19.64
824647,-0.277184,1.385920,-0.282064,-108.570000,15.540000,172.619995,19.64
824659,-0.251320,1.388360,-0.241072,-110.949997,14.210000,186.899994,19.60
824671,-0.231312,1.548912,-0.171288,-140.279999,9.940000,200.970001,19.65
824682,-0.179584,1.633824,-0.133712,-151.199997,6.930000,216.789993,19.65
824694,-0.163480,1.561600,-0.141032,-205.169998,-0.560000,226.660004,19.59
824706,-0.109800,1.470832,-0.139080,-242.830002,-9.170000,241.500000,19.60
824718,-0.050752,1.322480,-0.066856,-283.500000,-18.900000,250.110001,19.60
824729,0.021472,1.240008,0.044896,-310.380005,-31.430000,259.630005,19.64
824741,0.058560,1.169736,0.044408,-330.750000,-40.459999,266.489990,19.64
824752,0.046848,1.018944,-0.025864,-347.480011,-48.230000,265.160004,19.61
824764,0.095648,0.857416,-0.083936,-351.609985,-57.820000,264.600006,19.61
824775,0.158112,0.651968,-0.042456,-333.410004,-63.490002,263.410004,19.61
824786,0.224968,0.483120,0.043920,-311.920013,-67.760002,259.070007,19.62
824798,0.274256,0.384056,0.046360,-289.029999,-70.980003,257.109985,19.61
824809,0.364048,0.430904,0.023912,-295.540009,-84.209999,296.519989,19.61
824820,0.250832,0.280600,-0.022936,-281.190002,-77.139999,244.089996,19.65
824832,0.484096,0.223504,0.024400,-293.369995,-73.500000,237.020004,19.65
824844,0.424072,0.173240,-0.003904,-309.820007,-72.379997,235.199997,19.67
824856,0.373808,0.006344,0.005368,-310.309998,-84.629997,224.490005,19.63
824868,0.483120,-0.134200,0.000976,-305.480011,-86.589996,217.699997,19.63
824879,0.479216,-0.242048,-0.014640,-296.799988,-91.629997,212.589996,19.62
824891,0.520696,-0.346480,0.007808,-289.170013,-96.110001,203.630005,19.64
824903,0.553880,-0.474824,-0.004880,-278.040009,-95.129997,193.130005,19.64
824914,0.557296,-0.579744,-0.069784,-257.950012,-94.220001,180.039993,19.66
824926,0.571936,-0.624152,-0.123464,-240.660004,-94.500000,163.449997,19.66
824938,0.597312,-0.704184,-0.190320,-224.419998,-94.220001,150.710007,19.62
824950,0.662704,-0.948184,-0.249856,-212.240005,-93.519997,126.000000,19.60
824962,0.707112,-1.351760,-0.319152,-193.619995,-85.470001,100.940002,19.60
824973,0.724680,-1.311256,-0.386984,-175.139999,-81.059998,80.989998,19.61
824985,0.771040,-1.534272,-0.421144,-125.160004,-73.570000,51.450001,19.65
824996,0.814960,-1.707512,-0.404552,-56.770000,-59.919998,20.650000,19.65
825008,0.808128,-1.718248,-0.428952,12.110000,-46.060001,-13.090000,19.67
825020,0.782752,-1.744112,-0.423096,65.309998,-35.490002,-50.189999,19.67
825032,0.753960,-1.653832,-0.338184,91.279999,-28.350000,-84.769997,19.64
825043,0.755424,-1.544520,-0.293288,98.279999,-20.510000,-115.709999,19.64
825055,0.723704,-1.371768,-0.227896,95.970001,-16.240000,-143.639999,19.64
825067,0.683200,-1.300032,-0.182512,105.910004,-11.620000,-171.149994,19.64
825079,0.660752,-1.154608,-0.202032,124.739998,-0.910000,-193.550003,19.60
825091,0.634400,-1.164368,-0.299144,191.800003,11.900000,-212.520004,19.60
825102,0.577792,-1.135088,-0.412360,270.829987,23.520000,-229.250000,19.62
825114,0.442128,-0.896456,-0.506544,369.040009,28.629999,-247.520004,19.62
825126,0.327936,-0.669048,-0.582672,418.950012,26.809999,-265.790009,19.62
825138,0.285480,-0.546072,-0.816424,479.079987,20.370001,-280.420013,19.64
825155,0.270840,-0.462136,-1.062376,537.109985,27.299999,-319.899994,19.61
825167,0.303048,-0.547048,-1.024800,590.940002,26.320000,-337.540009,19.61
825178,0.049776,-0.424072,-0.996008,627.479980,36.889999,-366.589996,19.66
825190,-0.306952,-0.489464,-0.717360,685.440002,11.760000,-401.799988,19.55
825202,-0.390888,-0.458720,-0.375272,698.390015,21.000000,-479.640015,19.55
825214,-0.536312,-0.746640,-0.357704,772.450012,23.799999,-505.540009,19.63
825226,-1.231712,-0.026352,-0.756888,691.109985,-17.150000,-501.480011,19.63
825238,-1.434232,0.905240,-1.374696,395.989990,-121.309998,-472.570007,19.62
825249,-0.883280,2.257976,-1.929552,158.270004,-174.860001,-490.559998,19.62
825261,-0.819840,1.796816,-2.226256,-228.270004,-87.989998,-498.470001,19.62
825274,-1.436184,1.235616,-1.919304,-251.369995,-32.340000,-449.540009,19.59
825287,-1.794376,1.547448,-0.956968,-92.610001,-15.120000,-387.660004,19.61
825300,-1.413248,3.130520,-0.019520,-83.160004,-17.010000,-314.369995,19.61
825312,-0.807640,3.157848,0.195688,-205.240005,-6.860000,-270.339996,19.61
825324,-0.790560,2.164280,0.162504,-170.940002,4.130000,-211.470001,19.60
825336,-0.739808,2.154032,0.226432,-54.529999,3.360000,-153.160004,19.60
825347,-0.664656,2.386808,0.294752,-50.889999,-8.470000,-112.910004,19.65
825359,-0.614880,2.136464,0.319640,-43.540001,-15.400000,-69.440002,19.64
825371,-0.610976,2.073512,0.366000,-17.920000,-23.170000,-34.930000,19.64
825382,-0.572912,2.119872,0.415288,-6.300000,-27.230000,-6.300000,19.64
825394,-0.640744,2.131096,0.337208,0.210000,-28.770000,15.120000,19.64
825405,-0.649040,2.053016,0.151280,3.430000,-23.520000,43.610001,19.63
825417,-0.691008,1.843664,0.005368,12.950000,-19.389999,62.720001,19.64
825428,-0.640744,1.773880,-0.130296,26.110001,-8.260000,84.209999,19.64
825440,-0.567544,1.846592,-0.251808,22.820000,2.170000,100.239998,19.67
825451,-0.514840,1.863672,-0.283528,-5.950000,6.440000,111.160004,19.66
825463,-0.456768,1.842688,-0.290848,-42.560001,10.150000,125.440002,19.66
825475,-0.416264,1.840736,-0.213744,-77.279999,8.610000,134.610001,19.64
825486,-0.375760,1.698240,-0.153720,-105.769997,2.170000,146.720001,19.64
825498,-0.317688,1.583560,-0.121512,-125.089996,-2.590000,159.669998,19.59
825510,-0.286456,1.417640,-0.131272,-131.600006,-3.290000,172.690002,19.61
825522,-0.256200,1.454240,-0.157624,-146.160004,-5.180000,189.210007,19.61
825534,-0.254248,1.622112,-0.123464,-170.100006,-12.320000,207.199997,19.59
825545,-0.238144,1.549400,-0.072712,-204.820007,-22.260000,221.199997,19.56
825557,-0.176656,1.432280,-0.081496,-222.460007,-28.629999,235.899994,19.56
825569,-0.113216,1.343952,-0.117608,-242.619995,-32.549999,248.710007,19.64
825581,-0.111264,1.297592,-0.102480,-264.529999,-40.320000,257.529999,19.60
825593,-0.062464,1.197064,-0.011712,-276.149994,-44.169998,285.739990,19.60
825605,-0.029768,0.988688,0.043432,-277.899994,-49.000000,273.140015,19.64
825617,0.021472,0.944768,0.047336,-285.600006,-54.810001,291.899994,19.64
825629,0.076616,0.915976,0.018056,-289.309998,-56.840000,312.899994,19.62
825640,0.027328,0.904264,-0.048312,-295.750000,-66.570000,296.029999,19.58
825652,0.090768,0.732000,-0.025864,-312.760010,-77.769997,292.950012,19.58
825663,0.249368,0.527040,0.033672,-317.239990,-71.889999,287.279999,19.62
825675,0.184952,0.322080,0.011712,-305.130005,-71.610001,287.910004,19.60
825686,0.172264,0.174704,0.001464,-293.019989,-79.589996,282.589996,19.60
825698,0.169824,0.175192,-0.018544,-287.070007,-88.199997,271.250000,19.61
825709,0.158112,0.191784,-0.037088,-290.290009,-90.440002,268.589996,19.61
825721,0.212280,0.044896,-0.076616,-298.200012,-95.269997,263.130005,19.62
825733,0.301096,-0.142008,-0.107848,-289.940002,-102.339996,247.869995,19.59
825744,0.339160,-0.255224,-0.061488,-281.260010,-105.070000,239.820007,19.59
825755,0.361608,-0.352824,-0.056120,-269.920013,-110.529999,231.979996,19.61
825767,0.408944,-0.379176,-0.082472,-251.369995,-110.250000,223.860001,19.61
825780,0.420656,-0.485560,-0.178608,-224.699997,-109.620003,212.309998,19.62
825791,0.512888,-0.648064,-0.218624,-194.880005,-103.180000,200.619995,19.63
825803,0.545096,-0.791536,-0.188368,-162.050003,-93.870003,186.970001,19.63
825815,0.575352,-0.841800,-0.163480,-140.630005,-84.699997,175.910004,19.61
825831,0.684176,-0.985272,-0.184464,-102.970001,-70.349998,154.699997,19.58
825843,0.616832,-1.152656,-0.222040,-70.769997,-71.330002,143.220001,19.61
825855,0.689544,-1.130208,-0.204960,-49.980000,-65.379997,128.100006,19.61
825867,0.713944,-1.282952,-0.183976,-37.310001,-59.570000,110.110001,19.62
825878,0.808616,-1.564528,-0.082472,-13.930000,-42.070000,90.860001,19.62
825890,0.661728,-1.625040,-0.021472,10.290000,-37.450001,60.130001,19.68
825902,0.647088,-1.662128,-0.021472,28.840000,-32.759998,28.840000,19.63
825914,0.721264,-1.833416,-0.027816,54.599998,-23.170000,-8.820000,19.63
825926,0.662216,-1.781200,-0.026840,76.510002,-16.240000,-47.250000,19.62
825938,0.670024,-1.730936,-0.018544,84.559998,-6.580000,-85.540001,19.60
825949,0.640744,-1.796816,-0.056120,109.620003,-3.080000,-115.010002,19.60
825961,0.631472,-1.696776,-0.083936,143.220001,0.490000,-142.589996,19.59
825972,0.626104,-1.686040,-0.159576,196.699997,7.350000,-174.300003,19.59
825984,0.566568,-1.463024,-0.198616,217.070007,14.140000,-201.039993,19.59
825996,0.484584,-1.276120,-0.232288,236.179993,13.090000,-226.729996,19.61
826008,0.482144,-1.234152,-0.285480,290.989990,16.100000,-250.600006,19.61
826020,0.365512,-1.146312,-0.364536,347.619995,14.210000,-269.149994,19.57
826032,0.298168,-1.057008,-0.473360,412.929993,14.000000,-318.220001,19.57
826044,0.392352,-0.892064,-0.509472,462.279999,17.920000,-309.959991,19.57
826055,0.221552,-0.742248,-0.582184,495.950012,22.469999,-322.559998,19.54
826067,0.153720,-0.733464,-0.665632,554.049988,15.330000,-341.529999,19.60
826079,0.140544,-0.716384,-0.724680,625.169983,16.799999,-368.970001,19.60
826091,-0.066368,-0.538264,-0.774944,661.570007,19.250000,-397.109985,19.63
826103,-0.373320,-0.452376,-0.634400,723.869995,-2.240000,-452.200012,19.63
826115,-0.166408,-0.581696,-0.398208,735.210022,9.660000,-481.459991,19.57
826127,-0.494832,-0.641720,-0.421632,763.349976,2.450000,-431.899994,19.60
826138,-1.491328,0.205936,-0.610976,664.719971,-102.900002,-482.160004,19.60
826150,-0.904264,1.240496,-1.106784,347.970001,-167.929993,-468.089996,19.62
826162,-0.853024,1.468880,-1.688480,45.150002,-186.899994,-468.929993,19.55
826174,-0.867664,1.321016,-2.054968,-156.100006,-131.179993,-461.929993,19.55
826187,-1.506944,1.138504,-1.672864,-189.210007,-100.309998,-434.769989,19.58
826199,-1.403488,1.545008,-1.200480,-49.490002,-60.340000,-388.640015,19.59
826212,-1.207800,2.638616,-0.601704,-29.469999,-43.959999,-306.109985,19.59
826223,-1.153632,3.045608,-0.330376,-131.039993,-34.650002,-291.760010,19.61
826235,-0.946232,2.380952,-0.411872,-159.460007,-18.900000,-219.589996,19.60
826247,-0.808128,2.172088,-0.419192,-73.500000,-3.150000,-150.220001,19.60
826259,-0.760792,2.489288,-0.173240,-44.799999,-5.390000,-103.250000,19.54
826271,-0.669536,2.282864,0.089792,-52.290001,-14.630000,-61.529999,19.54
826283,-0.591944,1.966152,0.235216,-18.410000,-19.670000,-24.639999,19.57
826295,-0.549000,1.963712,0.229848,7.980000,-20.440001,0.210000,19.62
826306,-0.542168,2.018856,0.224480,9.100000,-23.730000,22.260000,19.62
826318,-0.564128,1.920768,0.242048,-3.640000,-28.070000,38.849998,19.57
826330,-0.518744,1.667008,0.172264,1.470000,-26.040001,53.200001,19.61
826341,-0.473360,1.617232,0.039528,12.530000,-21.490000,65.379997,19.61
826353,-0.467504,1.570872,-0.133712,11.690000,-18.830000,76.160004,19.61
826365,-0.409432,1.530368,-0.232776,4.480000,-13.720000,85.680000,19.61
826376,-0.363560,1.600152,-0.290360,-11.620000,-6.370000,94.919998,19.59
826388,-0.443104,1.714832,-0.250832,-37.240002,-8.540000,99.400002,19.59
826400,-0.375272,1.693360,-0.166408,-71.820000,-7.630000,107.870003,19.59
826411,-0.391864,1.502552,-0.111264,-87.010002,-9.520000,118.089996,19.61
826423,-0.326960,1.414712,-0.076616,-83.510002,-7.630000,129.009995,19.58
826435,-0.284504,1.371768,-0.293288,-78.680000,-3.920000,144.550003,19.58
826447,-0.285968,1.425448,-0.351360,-88.269997,-1.610000,155.820007,19.59
826458,-0.226920,1.613816,-0.328912,-118.440002,1.540000,171.149994,19.59
826470,-0.230336,1.552328,-0.328912,-142.800003,2.380000,185.850006,19.59
826482,-0.239120,1.443016,-0.236192,-146.229996,2.870000,197.610001,19.59
826493,-0.222528,1.405440,-0.155672,-140.559998,5.110000,210.350006,19.59
826504,-0.176656,1.336144,-0.097600,-135.520004,6.230000,219.100006,19.58
826516,-0.108824,1.168760,-0.122488,-136.149994,9.870000,228.550003,19.58
826527,-0.074664,1.097512,-0.167872,-144.830002,11.270000,237.440002,19.58
826539,0.001464,1.164856,-0.134200,-180.110001,12.180000,248.710007,19.61
826551,0.001464,1.216096,-0.080520,-236.949997,10.290000,259.839996,19.61
826562,0.027816,1.208776,-0.058072,-285.809998,-1.960000,298.690002,19.59
826573,-0.031232,0.955992,-0.024888,-328.019989,-6.510000,271.739990,19.55
826585,0.094184,0.736392,-0.019032,-339.149994,-21.770000,268.799988,19.55
826596,0.172752,0.526064,-0.045872,-328.720001,-23.170000,273.910004,19.63
826607,0.175680,0.491416,-0.040504,-326.130005,-26.670000,287.209991,19.63
826619,0.184464,0.395280,0.010736,-319.200012,-27.930000,284.130005,19.53
826631,0.192272,0.295728,0.036600,-326.619995,-30.170000,281.679993,19.59
826643,0.237168,0.113216,0.026840,-321.720001,-35.700001,276.850006,19.59
826654,0.236192,0.024400,0.041968,-324.660004,-44.520000,261.589996,19.59
826666,0.309392,0.004392,0.065880,-333.339996,-52.150002,257.670013,19.57
826678,0.313784,-0.038064,-0.014640,-349.510010,-58.169998,241.990005,19.57
826691,0.349408,-0.202520,-0.025864,-364.769989,-67.410004,229.949997,19.60
826702,0.341112,-0.392840,-0.032208,-363.299988,-74.339996,219.800003,19.62
826714,0.350384,-0.531920,0.005856,-354.339996,-81.059998,211.820007,19.62
826725,0.386496,-0.654896,-0.032208,-335.790009,-86.660004,203.699997,19.60
826737,0.431392,-0.813496,-0.071736,-302.119995,-92.470001,188.089996,19.60
826749,0.489464,-0.823256,-0.066856,-271.739990,-92.330002,170.729996,19.62
826761,0.522648,-0.957944,-0.144448,-264.809998,-96.599998,149.380005,19.63
826773,0.613416,-1.220488,-0.167384,-248.710007,-94.220001,122.989998,19.63
826784,0.697352,-1.541592,-0.192272,-246.330002,-82.879997,92.330002,19.56
826796,0.629520,-1.739232,-0.207888,-238.139999,-91.279999,60.200001,19.55
826808,0.765184,-1.912472,-0.194224,-199.080002,-82.389999,35.279999,19.55
826820,0.739808,-2.077416,-0.262544,-152.809998,-73.080002,5.670000,19.57
826832,0.724680,-1.818288,-0.323056,-118.370003,-57.959999,-42.209999,19.62
826844,0.739808,-2.038376,-0.369904,-79.730003,-34.860001,-82.320000,19.62
826857,0.773968,-1.985184,-0.409920,-15.050000,-8.400000,-120.680000,19.58
826868,0.763720,-1.774368,-0.450424,30.450001,14.350000,-153.720001,19.58
826879,0.777872,-1.533784,-0.446520,86.589996,42.560001,-182.419998,19.57
826891,0.644160,-1.422520,-0.443104,135.100006,41.509998,-188.929993,19.58
826903,0.662216,-1.266848,-0.429440,202.720001,48.439999,-206.500000,19.58
826915,0.597312,-1.036512,-0.433344,243.110001,61.599998,-217.279999,19.57
826927,0.543144,-0.855464,-0.488488,276.640015,70.489998,-230.509995,19.53
826938,0.512888,-0.708576,-0.554368,304.850006,76.720001,-239.119995,19.53
826950,0.474336,-0.624152,-0.605120,339.290009,80.080002,-250.179993,19.57
826962,0.465552,-0.695400,-0.659288,389.549988,85.610001,-264.670013,19.57
826973,0.409432,-0.564128,-0.734440,424.829987,92.330002,-279.160004,19.58
826985,0.274256,-0.531920,-0.905240,513.729980,98.209999,-323.890015,19.59
826997,0.277184,-0.378688,-0.984296,581.559998,89.739998,-315.910004,19.59
827009,0.102968,-0.374784,-1.017968,663.950012,88.830002,-326.549988,19.57
827021,-0.102480,-0.209840,-0.895968,708.820007,70.559998,-368.130005,19.56
827033,-0.269864,-0.122976,-0.705160,753.340027,53.759998,-420.489990,19.56
827044,-0.703696,-0.354288,-0.474336,776.719971,15.890000,-466.410004,19.61
827056,-0.022936,-0.413336,-0.296216,767.690002,89.250000,-517.229980,19.61
827067,-0.945744,-0.793000,-0.794464,805.419983,4.270000,-406.559998,19.61
827080,-1.463512,0.993080,-1.116544,613.690002,-84.559998,-496.440002,19.58
827091,-0.940376,1.868064,-1.507432,261.380005,-161.419998,-484.470001,19.58
827103,-1.009184,1.085800,-1.992016,-114.940002,-151.830002,-461.510010,19.63
827115,-1.304912,1.229272,-2.081320,-217.559998,-75.110001,-448.559998,19.56
827127,-1.765584,1.655784,-1.563064,-174.789993,-58.660000,-390.390015,19.56
827139,-1.570384,2.135000,-0.971120,-94.779999,-35.139999,-356.230011,19.60
827151,-1.213656,2.720600,-0.284016,-102.199997,2.940000,-311.570007,19.54
827164,-1.110688,2.648376,-0.122000,-136.500000,7.350000,-240.100006,19.54
827175,-0.982344,2.506368,-0.057584,-129.360001,16.660000,-163.029999,19.59
827187,-0.938912,2.468304,0.118096,-91.139999,24.150000,-113.120003,19.56
827199,-0.843264,2.260416,0.184464,-82.459999,19.670000,-80.709999,19.56
827211,-0.750056,2.140368,0.342088,-68.809998,16.870001,-42.770000,19.57
827223,-0.766160,2.088152,0.419192,-44.450001,10.710000,-10.990000,19.57
827235,-0.763232,1.985184,0.449936,-12.110000,9.100000,15.470000,19.57
827246,-0.786168,1.922720,0.498736,8.050000,6.160000,41.299999,19.57
827258,-0.782752,1.833416,0.476288,17.709999,3.710000,63.139999,19.57
827270,-0.733464,1.756800,0.371856,20.930000,2.170000,81.900002,19.57
827281,-0.659776,1.698728,0.210328,0.070000,-1.680000,95.480003,19.57
827292,-0.577304,1.625528,0.130296,4.900000,0.420000,105.699997,19.57
827304,-0.561688,1.619184,0.033184,-16.030001,-1.890000,116.199997,19.59
827315,-0.552904,1.636264,0.010248,-44.799999,-3.780000,120.680000,19.59
827327,-0.563152,1.485960,-0.042456,-68.669998,-11.480000,134.750000,19.57
827339,-0.509472,1.487912,-0.097112,-85.889999,-14.630000,140.070007,19.58
827351,-0.435784,1.403000,-0.097600,-102.269997,-14.490000,152.460007,19.58
827362,-0.436272,1.373232,-0.083448,-108.639999,-15.820000,161.699997,19.59
827374,-0.407480,1.510360,-0.027328,-122.080002,-12.740000,175.910004,19.52
827385,-0.414312,1.501576,-0.039040,-144.479996,-15.470000,186.130005,19.52
827397,-0.319152,1.494256,-0.109800,-173.809998,-17.780001,198.729996,19.55
827409,-0.274744,1.526952,-0.141032,-220.080002,-19.740000,212.100006,19.55
827422,-0.137128,1.462536,-0.017080,-257.600006,-24.290001,259.279999,19.49
827434,-0.271328,1.367864,-0.006832,-286.510010,-29.540001,240.449997,19.57
827445,-0.160064,1.397632,0.085400,-311.359985,-41.160000,247.449997,19.57
827457,-0.103456,1.333704,0.117608,-329.489990,-52.430000,263.200012,19.54
827468,-0.102968,1.247816,0.044408,-346.570007,-61.180000,261.380005,19.56
827480,0.000488,1.079944,-0.051728,-354.339996,-66.360001,266.489990,19.56
827491,0.056608,0.964288,-0.029280,-350.070007,-70.279999,279.649994,19.63
827503,0.067344,0.800320,0.067344,-333.269989,-76.720001,282.239990,19.56
827515,0.118096,0.738832,0.163480,-321.299988,-81.690002,281.049988,19.56
827527,0.208864,0.691496,0.110288,-318.850006,-83.580002,301.350006,19.58
827539,0.149816,0.541192,0.099552,-321.720001,-82.599998,283.220001,19.58
827551,0.141520,0.425048,0.012688,-335.440002,-94.360001,266.000000,19.58
827562,0.237168,0.196176,0.017080,-344.190002,-103.459999,260.679993,19.53
827574,0.247904,0.124440,-0.021472,-359.170013,-109.480003,274.260010,19.53
827585,0.198128,0.041480,-0.143960,-362.950012,-115.639999,251.160004,19.58
827597,0.250832,-0.148352,-0.219112,-354.760010,-126.419998,243.039993,19.54
827609,0.306952,-0.381616,-0.257664,-325.290009,-126.419998,237.860001,19.54
827620,0.317200,-0.550464,-0.298656,-289.239990,-122.360001,224.279999,19.57
827632,0.323544,-0.635864,-0.296216,-255.220001,-121.519997,213.289993,19.57
827643,0.367952,-0.767624,-0.317688,-226.940002,-115.500000,198.940002,19.53
827654,0.374784,-0.869128,-0.376736,-203.279999,-114.379997,183.399994,19.55
827667,0.424072,-0.983808,-0.609512,-185.080002,-112.980003,165.059998,19.55
827678,0.500200,-1.191696,-0.500200,-166.809998,-107.449997,145.389999,19.55
827690,0.512400,-1.430328,-0.490928,-149.240005,-103.599998,122.010002,19.55
827702,0.565592,-1.601128,-0.440176,-136.360001,-93.660004,99.470001,19.55
827714,0.580232,-1.771928,-0.418704,-120.750000,-82.250000,65.730003,19.55
827726,0.618296,-1.819264,-0.414312,-101.849998,-61.669998,28.000000,19.55
827738,0.537288,-1.976400,-0.528504,-75.389999,-51.939999,-10.850000,19.58
827749,0.629032,-1.997384,-0.640256,-43.330002,-31.500000,-52.919998,19.55
827761,0.679784,-1.953464,-0.709064,-6.580000,-7.140000,-88.830002,19.55
827772,0.691496,-1.793888,-0.701744,36.889999,19.250000,-124.389999,19.52
827784,0.631472,-1.730936,-0.712968,99.750000,36.680000,-145.320007,19.56
827795,0.612440,-1.664568,-0.654896,167.649994,50.470001,-177.800003,19.56
827807,0.596824,-1.572336,-0.608536,231.279999,65.449997,-199.779999,19.54
827819,0.536312,-1.338584,-0.599264,274.890015,78.400002,-221.899994,19.54
827831,0.364048,-1.147776,-0.537288,316.049988,69.160004,-237.860001,19.57
827843,0.406504,-0.861808,-0.513376,336.070007,76.300003,-255.289993,19.56
827855,0.409920,-0.841312,-0.495808,389.829987,89.529999,-276.220001,19.56
827866,0.263520,-0.642208,-0.489952,407.399994,91.839996,-289.380005,19.54
827878,0.224968,-0.624152,-0.538752,464.940002,88.410004,-309.540009,19.52
827890,0.175680,-0.516304,-0.611952,545.859985,89.949997,-331.519989,19.52
827901,0.102968,-0.307928,-0.694912,621.739990,85.889999,-349.649994,19.60
827912,0.020008,-0.312808,-0.703208,731.429993,69.230003,-372.540009,19.60
827924,-0.142984,-0.097112,-0.680272,823.619995,57.750000,-394.170013,19.54
827937,-0.376736,-0.088328,-0.596336,927.500000,27.930000,-425.880005,19.56
827949,-0.447496,-0.153720,-0.467504,950.950012,17.920000,-480.200012,19.56
827960,-0.851560,-0.357704,-0.736392,961.520020,-63.209999,-439.109985,19.57
827972,-0.192760,1.118496,-0.792512,657.090027,-12.320000,-416.220001,19.55
827984,-1.891976,1.251720,-1.233664,361.339996,-213.429993,-337.609985,19.55
827995,-0.955016,1.913936,-1.466928,-76.790001,-195.789993,-440.230011,19.57
828007,-1.050664,1.564528,-2.140368,-302.820007,-155.960007,-364.279999,19.54
828019,-1.268800,0.968680,-1.805600,-212.169998,-108.080002,-358.609985,19.54
828031,-1.188280,1.602592,-1.212680,-47.389999,-67.690002,-321.299988,19.56
828043,-1.233664,2.509784,-0.887184,16.590000,-46.060001,-288.750000,19.56
828055,-0.802760,2.953864,-0.576328,-53.060001,-38.639999,-236.880005,19.58
828067,-0.773968,2.484408,-0.537288,-108.709999,-12.320000,-160.300003,19.58
828078,-0.774944,2.408280,-0.403088,-59.360001,-4.060000,-98.349998,19.58
828090,-0.731024,2.627392,-0.093696,-32.130001,5.880000,-55.580002,19.54
828102,-0.513864,2.480016,0.068320,-39.270000,3.640000,-28.350000,19.56
828113,-0.570472,2.316536,0.078080,-45.500000,5.390000,3.990000,19.56
828125,-0.557296,2.173552,0.026840,-32.900002,7.000000,29.120001,19.55
828136,-0.550464,1.999336,0.022448,-16.520000,13.230000,49.349998,19.55
828147,-0.579744,1.942728,0.062952,-5.040000,17.360001,63.980000,19.56
828159,-0.562176,1.820240,0.097112,-5.250000,19.389999,79.449997,19.51
828170,-0.516792,1.765584,0.108824,-19.809999,18.410000,93.029999,19.51
828182,-0.408456,1.837808,0.126392,-48.790001,19.809999,101.989998,19.56
828193,-0.431880,1.698240,0.079056,-67.970001,9.100000,117.529999,19.56
828205,-0.377224,1.619672,0.053680,-81.760002,4.060000,126.559998,19.56
828217,-0.289872,1.400560,0.009272,-84.489998,4.060000,137.759995,19.56
828228,-0.256688,1.318088,-0.076128,-82.739998,0.350000,146.089996,19.56
828240,-0.227408,1.554280,-0.089304,-99.540001,-4.830000,156.729996,19.53
828252,-0.213744,1.684576,-0.064416,-149.589996,-11.830000,164.429993,19.50
828263,-0.235704,1.612352,-0.056608,-199.850006,-16.030001,172.899994,19.50
828275,-0.239608,1.505480,-0.027328,-231.070007,-21.350000,183.470001,19.53
828286,-0.231800,1.384944,-0.006832,-258.160004,-31.150000,193.830002,19.53
828298,-0.148352,1.267824,0.054656,-276.429993,-34.439999,202.860001,19.48
828310,-0.134200,1.237080,0.056120,-289.100006,-44.660000,210.490005,19.50
828321,-0.097600,1.258064,0.086864,-307.790009,-50.820000,219.240005,19.50
828333,-0.172752,1.185352,0.244976,-330.959991,-57.680000,234.289993,19.55
828345,-0.066856,1.159488,0.102480,-343.559998,-77.349998,222.809998,19.56
828356,0.102480,0.915488,-0.017568,-341.459991,-81.269997,227.710007,19.56
828368,0.193736,0.681248,-0.065880,-328.859985,-78.680000,228.410004,19.53
828379,0.268400,0.691008,-0.024400,-313.320007,-80.919998,264.739990,19.53
828391,0.215208,0.584136,0.165432,-296.450012,-74.690002,254.800003,19.53
828403,0.162992,0.667584,0.183976,-290.359985,-83.580002,225.399994,19.54
828414,0.253760,0.602192,0.178120,-296.309998,-84.349998,225.050003,19.54
828426,0.325496,0.398208,0.070272,-302.609985,-91.419998,222.039993,19.52
828437,0.377224,0.292312,-0.007320,-305.549988,-99.400002,223.440002,19.53
828449,0.419680,0.230824,-0.040992,-309.470001,-104.790001,225.889999,19.53
828461,0.393816,0.155672,-0.022936,-312.760010,-110.180000,217.979996,19.55
828472,0.471896,-0.047336,-0.010736,-299.529999,-109.760002,206.990005,19.55
828484,0.453352,-0.134200,-0.026840,-277.829987,-109.059998,200.759995,19.54
828496,0.417728,-0.232288,-0.086376,-244.580002,-112.769997,194.600006,19.55
828507,0.466040,-0.232288,-0.121512,-227.639999,-114.449997,191.029999,19.55
828519,0.508008,-0.250832,-0.186416,-219.729996,-113.050003,184.100006,19.55
828531,0.540216,-0.389424,-0.182024,-203.070007,-105.070000,177.100006,19.49
828543,0.514840,-0.490440,-0.130784,-183.190002,-99.190002,169.960007,19.49
828555,0.531432,-0.586576,-0.084912,-164.429993,-93.660004,161.910004,19.52
828567,0.534848,-0.668072,-0.132248,-146.089996,-89.389999,155.470001,19.52
828579,0.593408,-0.825208,-0.141520,-128.520004,-80.500000,142.449997,19.51
828591,0.563152,-1.044320,-0.167384,-110.180000,-76.720001,134.190002,19.55
828604,0.613416,-1.152656,-0.180072,-99.889999,-74.129997,119.070000,19.55
828615,0.627080,-1.319064,-0.235704,-96.879997,-70.349998,98.769997,19.52
828626,0.667096,-1.471320,-0.338184,-88.410004,-63.560001,74.129997,19.53
828638,0.715408,-1.526952,-0.441640,-89.529999,-47.740002,48.369999,19.53
828650,0.652944,-1.671400,-0.532408,-80.500000,-41.439999,10.290000,19.57
828662,0.695888,-1.830000,-0.578768,-65.519997,-21.490000,-27.370001,19.53
828674,0.689544,-1.985672,-0.566080,-31.570000,-5.110000,-65.099998,19.53
828686,0.704184,-1.900272,-0.510448,29.120001,20.020000,-102.339996,19.53
828698,0.612928,-1.721176,-0.518744,79.660004,36.259998,-132.160004,19.52
828710,0.639280,-1.737768,-0.538752,137.479996,55.720001,-165.899994,19.52
828721,0.588040,-1.623576,-0.533384,193.059998,71.540001,-188.089996,19.50
828733,0.526064,-1.220976,-0.526064,205.100006,81.760002,-230.789993,19.50
828744,0.510448,-1.039440,-0.482144,202.020004,91.699997,-237.509995,19.56
828756,0.371368,-0.955992,-0.416264,205.729996,88.480003,-250.880005,19.54
828768,0.388936,-0.812032,-0.365512,210.070007,93.940002,-271.600006,19.54
828779,0.397232,-0.764208,-0.424560,229.320007,105.209999,-279.649994,19.53
828791,0.369904,-0.857416,-0.523136,296.450012,115.290001,-285.529999,19.49
828803,0.247904,-0.686616,-0.632936,390.880005,120.330002,-295.119995,19.49
828814,0.155672,-0.472872,-0.736392,480.760010,118.720001,-311.290009,19.50
828826,0.036600,-0.316224,-0.816912,556.849976,111.930000,-342.299988,19.50
828838,-0.043920,-0.265472,-0.952576,651.700012,99.820000,-374.779999,19.57
828850,-0.232776,-0.116632,-1.180472,748.929993,78.190002,-404.109985,19.52
828862,-0.589992,-0.010736,-1.104832,859.390015,19.600000,-415.100006,19.52
828874,0.190808,0.118096,-0.967704,898.659973,46.340000,-398.230011,19.52
828886,-0.985760,-0.285480,-0.519720,990.570007,0.700000,-508.200012,19.52
828897,-1.260992,-0.289872,-0.960872,1041.599976,-84.070000,-487.269989,19.52
828909,-1.480592,1.893928,-1.230736,731.359985,-178.080002,-478.170013,19.54
828921,-1.167784,2.858704,-1.643096,241.009995,-226.309998,-480.899994,19.54
828933,-1.459120,2.482944,-2.440000,-351.399994,-148.960007,-459.200012,19.53
828944,-1.771928,1.756312,-2.555656,-483.910004,-72.660004,-395.779999,19.54
828956,-2.055944,1.118984,-1.716784,-221.130005,-64.610001,-364.209991,19.54
828968,-1.475712,2.348256,-0.817400,0.140000,7.140000,-294.910004,19.52
828979,-1.322968,3.289608,-0.378200,-61.950001,3.920000,-244.720001,19.52
828991,-0.955992,3.023648,-0.122976,-180.389999,29.889999,-172.130005,19.52
829003,-1.045784,2.497584,0.033672,-159.250000,30.799999,-89.739998,19.58
829014,-0.916952,2.266760,0.321104,-90.720001,33.110001,-43.889999,19.58
829026,-0.761768,1.925648,0.359656,-48.650002,31.780001,-23.379999,19.53
829038,-0.678320,2.007144,0.353800,-36.750000,33.180000,4.550000,19.51
829050,-0.722240,2.067168,0.444568,-46.480000,23.799999,29.120001,19.51
829061,-0.643672,1.815360,0.507520,-40.740002,18.200001,46.970001,19.56
829072,-0.618784,1.637728,0.509472,-26.180000,10.640000,63.560001,19.44
829084,-0.569984,1.530856,0.446520,-16.030001,3.850000,74.690002,19.44
829095,-0.533872,1.525000,0.348432,-18.340000,2.310000,79.589996,19.51
829107,-0.516792,1.311256,0.195200,-16.730000,-5.810000,93.099998,19.51
829119,-0.500688,1.378112,0.042456,-12.390000,-8.120000,95.410004,19.51
829130,-0.446520,1.463512,-0.045872,-31.570000,-4.900000,107.099998,19.53
829142,-0.524600,1.527440,-0.034648,-64.889999,-7.980000,111.300003,19.53
829155,-0.496784,1.439600,0.008296,-96.739998,-12.600000,115.220001,19.51
829168,-0.366488,1.353712,-0.083936,-101.080002,-6.160000,126.070000,19.52
829180,-0.395280,1.428864,-0.206912,-100.449997,-4.060000,138.110001,19.52
829191,-0.386984,1.597712,-0.214232,-115.570000,-0.070000,148.539993,19.50
829205,-0.360632,1.629920,-0.061000,-157.149994,-0.140000,161.000000,19.50
829216,-0.328424,1.691896,0.014152,-200.830002,-4.340000,174.580002,19.50
829228,-0.329888,1.690920,0.042944,-241.990005,-13.300000,189.210007,19.51
829239,-0.271328,1.685064,0.011712,-286.299988,-19.250000,206.429993,19.52
829251,-0.271816,1.558184,-0.071736,-309.190002,-25.270000,217.350006,19.52
829263,-0.162992,1.271240,-0.014640,-320.320007,-35.840000,226.169998,19.50
829274,-0.109312,1.286856,0.128832,-323.329987,-50.119999,235.830002,19.50
829286,0.079544,1.288320,0.160064,-329.489990,-59.360001,266.209991,19.53
829297,0.040016,1.197552,0.155184,-339.920013,-61.669998,266.910004,19.46
829309,0.025864,1.087752,0.147864,-353.290009,-76.860001,258.579987,19.46
829321,0.109800,0.883768,0.139080,-356.859985,-85.120003,261.799988,19.52
829332,0.206912,0.684176,0.186416,-349.299988,-83.580002,270.970001,19.53
829343,0.196664,0.613904,0.178120,-334.250000,-84.699997,273.420013,19.53
829355,0.203984,0.551928,0.128832,-326.200012,-93.519997,260.399994,19.52
829366,0.268400,0.530944,0.047824,-327.390015,-96.739998,263.549988,19.52
829377,0.257176,0.467992,0.011712,-343.769989,-102.339996,265.440002,19.55
829389,0.285968,0.184952,-0.032696,-357.910004,-106.889999,260.470001,19.54
829400,0.285968,0.095160,-0.104432,-359.239990,-111.230003,248.990005,19.54
829412,0.308416,-0.002440,-0.139080,-354.549988,-116.339996,243.600006,19.48
829424,0.261080,-0.070272,-0.123464,-349.369995,-119.839996,238.770004,19.48
829435,0.238632,-0.077104,-0.247904,-348.040009,-121.519997,234.360001,19.49
829446,0.248880,-0.331840,-0.210328,-325.079987,-122.570000,225.960007,19.48
829459,0.259128,-0.518744,-0.270840,-291.970001,-119.419998,216.020004,19.48
829471,0.266936,-0.719800,-0.330864,-252.770004,-117.110001,206.009995,19.52
829483,0.308904,-0.712480,-0.446520,-235.199997,-113.260002,197.050003,19.50
829495,0.330864,-0.935984,-0.528992,-213.429993,-107.099998,183.330002,19.50
829506,0.360632,-1.183888,-0.503128,-181.580002,-98.559998,168.139999,19.54
829518,0.413824,-1.388360,-0.481656,-143.919998,-89.599998,149.869995,19.54
829530,0.449936,-1.559648,-0.568032,-117.739998,-77.980003,130.479996,19.51
829542,0.472384,-1.737280,-0.618784,-91.419998,-70.559998,104.860001,19.55
829553,0.527528,-1.865624,-0.586576,-72.239998,-58.240002,76.089996,19.55
829565,0.482144,-1.891000,-0.484096,-62.930000,-47.250000,39.410000,19.51
829576,0.451400,-1.871968,-0.353312,-56.070000,-35.490002,-0.910000,19.52
829588,0.453352,-1.771440,-0.281088,-46.200001,-22.610001,-39.200001,19.52
829599,0.519232,-1.734352,-0.313784,-31.709999,-5.530000,-74.199997,19.52
829611,0.540216,-1.730448,-0.414800,0.560000,14.140000,-107.940002,19.52
829623,0.550952,-1.726544,-0.501664,50.119999,28.139999,-134.470001,19.49
829634,0.562176,-1.552328,-0.581208,70.000000,36.750000,-153.369995,19.48
829646,0.551928,-1.403976,-0.574376,110.389999,40.040001,-171.919998,19.48
829657,0.529968,-1.177544,-0.569984,146.789993,45.430000,-189.630005,19.54
829671,0.505080,-1.169248,-0.579256,193.619995,53.900002,-210.559998,19.52
829682,0.467504,-1.182912,-0.586576,243.389999,56.840000,-228.410004,19.52
829694,0.454816,-1.080432,-0.596824,291.339996,57.959999,-243.460007,19.46
829705,0.405040,-0.938424,-0.588528,334.600006,57.750000,-260.399994,19.49
829717,0.336720,-0.767136,-0.651968,373.309998,59.639999,-276.850006,19.49
829729,0.345016,-0.601216,-0.758352,378.559998,54.529999,-303.100006,19.51
829740,0.386008,-0.520208,-0.935496,403.549988,64.330002,-297.920013,19.51
829752,0.369904,-0.635376,-1.025288,479.079987,78.750000,-306.179993,19.52
829764,0.246928,-0.658800,-1.127768,616.770020,91.000000,-321.790009,19.56
829775,0.008296,-0.433832,-1.141432,751.380005,87.779999,-340.130005,19.56
829787,-0.256200,-0.094184,-1.187304,842.030029,56.980000,-389.059998,19.52
829799,-0.218136,-0.043920,-0.972096,926.169983,14.490000,-406.700012,19.47
829810,-0.563152,0.118096,-0.678320,960.679993,-22.120001,-414.890015,19.47
829822,-1.277096,0.099064,-0.694912,986.229980,-98.279999,-433.089996,19.48
829833,-0.183976,0.133224,-0.739808,957.109985,14.000000,-510.160004,19.48
829845,-1.774368,0.888160,-1.209752,706.369995,-96.529999,-478.799988,19.49
829856,-1.335168,2.210640,-1.800720,323.049988,-228.059998,-452.339996,19.48
829868,-1.267824,2.018856,-1.923696,-101.570000,-221.550003,-444.850006,19.48
829880,-1.159488,1.995920,-2.321904,-340.690002,-77.629997,-424.410004,19.49
829892,-2.154520,1.115080,-2.078880,-263.339996,-66.080002,-370.160004,19.49
829903,-1.828536,1.722152,-1.405440,-50.680000,-49.419998,-326.899994,19.48
829915,-1.403488,3.566304,-0.689544,-37.660000,-5.110000,-264.040009,19.51
829927,-1.063840,3.343776,-0.285480,-142.169998,-4.760000,-217.070007,19.51
829939,-0.893528,2.327760,-0.079056,-140.630005,2.240000,-136.850006,19.48
829951,-0.697840,2.177456,0.043432,-80.989998,37.520000,-52.779999,19.51
829963,-0.850096,2.470256,0.272304,-57.119999,5.040000,-37.799999,19.51
829975,-0.548024,2.089128,0.278648,-65.519997,5.810000,-16.520000,19.51
829986,-0.548512,1.840736,0.302072,-48.020000,-0.210000,-2.870000,19.50
829998,-0.528504,1.731424,0.330864,-19.950001,2.450000,14.420000,19.50
830009,-0.592920,1.738256,0.319152,4.900000,1.960000,29.820000,19.52
830020,-0.623176,1.719224,0.259616,10.990000,0.420000,46.549999,19.52
830032,-0.643184,1.713368,0.195200,9.100000,-2.660000,59.639999,19.48
830043,-0.613416,1.698728,0.087352,-0.980000,-2.240000,72.029999,19.48
830054,-0.545096,1.701168,0.027816,-14.350000,8.610000,73.360001,19.48
830067,-0.606584,1.689944,-0.107360,-40.459999,4.690000,97.440002,19.50
830078,-0.510936,1.633336,-0.164944,-59.919998,7.000000,102.970001,19.50
830090,-0.478240,1.530856,-0.183000,-65.309998,13.300000,121.099998,19.49
830102,-0.520208,1.649928,-0.220576,-76.930000,10.430000,132.440002,19.49
830114,-0.468968,1.697752,-0.264008,-110.320000,9.450000,143.570007,19.49
830125,-0.462136,1.602592,-0.360632,-143.850006,4.200000,154.559998,19.50
830136,-0.358192,1.551352,-0.344040,-181.020004,9.660000,166.039993,19.44
830148,-0.383568,1.534272,-0.317688,-219.589996,11.200000,178.289993,19.44
830160,-0.342576,1.498160,-0.291824,-257.670013,5.110000,186.830002,19.46
830171,-0.257664,1.524512,-0.254736,-291.059998,0.770000,201.740005,19.46
830183,-0.212280,1.549888,-0.203984,-332.220001,-1.890000,213.009995,19.45
830194,-0.214232,1.447408,-0.129320,-354.970001,-11.060000,224.770004,19.46
830206,-0.159088,1.334192,-0.054656,-377.649994,-19.110001,234.779999,19.46
830218,-0.129320,1.143872,0.035624,-386.890015,-24.219999,263.200012,19.48
830230,-0.040992,1.053592,0.047336,-391.790009,-38.709999,272.720001,19.43
830241,0.100528,0.958920,0.107848,-388.709991,-38.430000,276.010010,19.43
830253,0.108336,0.865224,0.119072,-381.500000,-47.880001,266.700012,19.50
830264,0.226432,0.765184,0.065880,-376.529999,-49.560001,269.709991,19.50
830276,0.186904,0.748104,0.078080,-381.779999,-54.389999,278.109985,19.52
830288,0.135664,0.633424,0.078568,-396.899994,-66.430000,269.220001,19.46
830300,0.176168,0.438712,0.034648,-399.700012,-75.110001,265.369995,19.46
830311,0.224480,0.153232,0.022448,-390.390015,-77.279999,264.670013,19.50
830323,0.226432,-0.024400,-0.060024,-362.320007,-80.290001,250.179993,19.51
830335,0.254736,-0.120048,-0.063440,-343.980011,-85.680000,247.240005,19.51
830347,0.261568,-0.075640,-0.085400,-342.299988,-89.180000,244.509995,19.51
830359,0.216672,-0.084424,-0.122000,-337.260010,-89.949997,234.990005,19.48
830371,0.244976,-0.346968,-0.165432,-318.850006,-93.239998,227.289993,19.48
830382,0.297192,-0.564616,-0.183488,-293.510010,-91.699997,217.770004,19.48
830394,0.284504,-0.795928,-0.212768,-261.589996,-90.860001,207.830002,19.48
830406,0.313784,-0.966728,-0.278648,-229.880005,-90.019997,194.460007,19.52
830417,0.343552,-1.158024,-0.366000,-203.279999,-86.800003,178.779999,19.50
830429,0.371856,-1.403976,-0.427000,-174.929993,-82.040001,160.020004,19.50
830441,0.420168,-1.595760,-0.434320,-158.619995,-78.400002,134.119995,19.53
830453,0.437248,-1.740208,-0.406504,-157.639999,-72.870003,105.000000,19.43
830465,0.435784,-1.863184,-0.384056,-155.190002,-65.099998,68.879997,19.43
830477,0.395768,-1.953952,-0.375272,-150.570007,-56.840000,27.510000,19.50
830488,0.410896,-2.077416,-0.410408,-124.250000,-46.270000,-16.940001,19.50
830500,0.461648,-2.083760,-0.463600,-81.690002,-31.639999,-57.540001,19.49
830512,0.487024,-1.926624,-0.521672,-40.810001,-14.700000,-96.599998,19.45
830524,0.521672,-1.754848,-0.528504,26.250000,5.880000,-128.800003,19.45
830535,0.486048,-1.681648,-0.550952,93.029999,21.280001,-154.910004,19.47
830547,0.433832,-1.583072,-0.565592,157.080002,29.190001,-179.479996,19.51
830558,0.403088,-1.442528,-0.550464,199.360001,31.500000,-198.800003,19.51
830570,0.360144,-1.311744,-0.515816,222.600006,30.799999,-219.449997,19.49
830582,0.363560,-1.166808,-0.494344,241.570007,25.270000,-241.429993,19.49
830594,0.410408,-1.054568,-0.654408,271.880005,23.030001,-269.290009,19.47
830605,0.479216,-1.054568,-0.774944,313.109985,31.780001,-284.059998,19.43
830617,0.513376,-1.022360,-0.830576,374.570007,49.139999,-283.010010,19.43
830629,0.432856,-0.971608,-0.849120,444.779999,57.820000,-296.170013,19.45
830640,0.310368,-0.903288,-0.887184,533.609985,64.820000,-325.640015,19.49
830652,0.203984,-0.689544,-0.882792,616.489990,67.900002,-331.799988,19.49
830664,0.065392,-0.516792,-0.882304,680.750000,60.900002,-349.019989,19.54
830676,-0.036600,-0.335256,-0.987712,725.200012,45.500000,-371.980011,19.46
830687,-0.084424,-0.391864,-1.001376,772.659973,33.810001,-399.209991,19.46
830700,-0.383568,-0.367464,-0.924272,827.049988,15.050000,-437.779999,19.47
830711,-0.796416,-0.269864,-0.782752,866.950012,-27.299999,-466.200012,19.47
830723,-1.070184,-0.204472,-0.878888,879.830017,-73.570000,-487.760010,19.51
830735,-2.137928,0.432368,-1.354200,837.690002,-184.589996,-460.670013,19.47
830747,-0.870592,2.656184,-1.091656,464.239990,-107.099998,-457.450012,19.47
830759,-1.840248,2.393152,-1.632360,167.789993,-175.559998,-386.470001,19.48
830770,-1.796328,1.855376,-2.700592,-151.130005,-184.449997,-450.660004,19.49
830782,-1.612352,1.838784,-2.551752,-322.279999,-101.290001,-398.019989,19.49
830794,-1.533296,2.180872,-1.785592,-283.429993,-24.570000,-347.760010,19.45
830805,-1.504016,2.315560,-0.900848,-156.309998,26.250000,-307.369995,19.45
830817,-1.565992,2.804048,-0.508984,-30.590000,36.610001,-199.429993,19.46
830829,-0.948184,3.180784,-0.154208,-57.330002,41.720001,-154.630005,19.47
830840,-0.814960,2.626904,0.055632,-128.800003,45.360001,-89.669998,19.47
830852,-0.787632,2.201856,0.277672,-96.529999,45.360001,-33.599998,19.46
830864,-0.600240,2.118408,0.252784,-89.459999,40.110001,-6.090000,19.44
830876,-0.540704,1.902224,0.257664,-79.940002,34.930000,3.080000,19.44
830888,-0.540216,1.469856,0.314760,-37.939999,31.010000,13.860000,19.47
830900,-0.530944,1.419592,0.503128,5.390000,28.700001,18.760000,19.49
830911,-0.559736,1.528904,0.650016,11.410000,18.760000,25.830000,19.49
830922,-0.569496,1.523536,0.655384,11.690000,7.560000,36.330002,19.46
830934,-0.556320,1.458632,0.540704,10.430000,-0.630000,43.119999,19.46
830946,-0.519232,1.454728,0.358680,9.870000,-3.710000,49.490002,19.48
830956,-0.495320,1.495232,0.089304,5.180000,-2.100000,51.169998,19.44
830968,-0.531920,1.423984,-0.109312,-2.100000,3.570000,64.889999,19.44
830980,-0.525576,1.575264,-0.156160,-5.180000,11.060000,70.000000,19.47
830991,-0.553392,1.777296,-0.112240,-25.200001,17.570000,90.720001,19.47
831003,-0.663192,1.940776,-0.024888,-59.360001,9.800000,106.610001,19.45
831014,-0.591944,1.830976,0.024888,-88.059998,5.180000,118.860001,19.47
831025,-0.490440,1.583072,-0.049776,-102.970001,7.280000,137.619995,19.47
831037,-0.465552,1.621624,-0.166896,-116.129997,7.980000,156.589996,19.50
831048,-0.421144,1.851472,-0.209352,-143.080002,7.980000,175.699997,19.50
831060,-0.399672,1.917840,-0.266448,-189.910004,7.420000,195.440002,19.44
831071,-0.424072,1.933944,-0.234240,-230.580002,-1.610000,212.940002,19.42
831083,-0.353312,1.885144,-0.183000,-264.809998,-5.250000,235.690002,19.42
831095,-0.338184,1.746064,-0.183976,-299.529999,-8.750000,250.110001,19.47
831107,-0.323056,1.571848,-0.095160,-311.850006,-21.000000,267.329987,19.45
831119,-0.191296,1.364448,0.119072,-338.309998,-22.889999,282.100006,19.45
831130,-0.190320,1.301984,0.118096,-358.049988,-31.709999,292.880005,19.46
831142,-0.187880,1.401048,0.021960,-399.559998,-38.220001,345.940002,19.43
831153,-0.142496,1.134112,-0.177144,-402.500000,-54.950001,310.660004,19.43
831165,-0.025864,0.944280,-0.154208,-405.859985,-66.010002,310.100006,19.43
831177,0.013176,0.769088,-0.171288,-401.519989,-66.639999,316.329987,19.43
831189,0.034648,0.543632,-0.113704,-383.040009,-70.559998,317.450012,19.48
831200,0.152744,0.231800,-0.111752,-354.970001,-69.510002,322.559998,19.45
831212,-0.030256,0.293288,-0.158600,-339.290009,-75.320000,302.820007,19.45
831224,0.057584,0.101504,-0.165432,-327.880005,-79.660004,299.390015,19.45
831236,0.048800,-0.096136,-0.188856,-320.880005,-81.410004,295.470001,19.45
831247,0.098576,-0.092720,-0.251808,-323.049988,-90.230003,272.929993,19.45
831259,0.140544,-0.124928,-0.315736,-338.799988,-92.470001,266.350006,19.43
831271,0.126392,-0.332816,-0.314272,-346.429993,-92.400002,251.860001,19.43
831282,0.143960,-0.611952,-0.303536,-335.929993,-89.739998,239.679993,19.46
831294,0.125416,-0.736392,-0.328424,-327.809998,-92.260002,229.389999,19.48
831305,0.171288,-0.928176,-0.379176,-305.059998,-93.379997,216.369995,19.48
831317,0.219112,-1.128744,-0.385032,-277.410004,-94.849998,199.360001,19.41
831328,0.277672,-1.304912,-0.438712,-248.149994,-91.070000,177.589996,19.41
831340,0.309392,-1.558184,-0.495320,-221.830002,-85.260002,148.259995,19.45
831353,0.386008,-1.690432,-0.548024,-187.460007,-69.370003,107.449997,19.46
831365,0.367464,-1.833904,-0.605120,-160.229996,-59.990002,67.900002,19.46
831376,0.376736,-1.966640,-0.568032,-126.000000,-49.630001,27.160000,19.43
831388,0.421144,-2.043256,-0.535336,-86.449997,-37.099998,-8.540000,19.45
831399,0.467504,-2.076440,-0.488000,-47.110001,-22.610001,-50.400002,19.45
831411,0.427488,-2.005680,-0.484096,-12.180000,-9.170000,-84.139999,19.46
831423,0.435784,-1.861720,-0.444080,19.600000,5.600000,-123.410004,19.43
831435,0.426512,-1.691408,-0.441152,50.470001,17.920000,-164.080002,19.43
831447,0.466040,-1.618208,-0.434808,85.820000,23.309999,-183.960007,19.46
831459,0.420656,-1.558672,-0.463112,132.580002,35.419998,-221.339996,19.46
831470,0.465064,-1.460096,-0.545096,167.089996,48.650002,-249.339996,19.47
831482,0.517280,-1.375672,-0.632448,207.479996,51.660000,-236.600006,19.47
831494,0.395768,-1.300032,-0.671488,248.919998,59.220001,-251.720001,19.47
831505,0.333304,-1.113616,-0.718336,295.890015,64.120003,-266.350006,19.46
831517,0.294752,-1.022848,-0.703696,343.839996,65.730003,-310.799988,19.41
831529,0.318664,-0.836920,-0.820328,419.299988,84.070000,-292.950012,19.41
831541,0.258152,-0.862296,-0.856928,499.519989,96.669998,-303.799988,19.46
831552,0.125904,-0.696864,-0.857904,576.169983,102.480003,-329.279999,19.45
831564,-0.031720,-0.450912,-0.827648,639.450012,91.699997,-350.559998,19.45
831576,-0.221552,-0.358680,-0.819840,702.030029,74.550003,-401.869995,19.45
831587,-0.289384,-0.130296,-0.778848,747.179993,39.759998,-415.869995,19.45
831599,-0.468480,0.059048,-0.723216,790.159973,10.850000,-429.309998,19.46
831611,-0.721752,-0.012688,-0.513864,859.530029,-30.799999,-483.839996,19.40
831623,-0.928176,-0.502640,-0.594872,899.989990,-69.790001,-506.589996,19.40
831635,-1.652368,-0.355264,-1.214632,918.119995,-147.490005,-512.539978,19.50
831647,-0.990640,2.341912,-1.338584,630.630005,-91.489998,-561.469971,19.48
831658,-1.751432,2.779160,-1.596248,196.070007,-183.190002,-401.519989,19.48
831670,-1.959320,1.728496,-2.198440,-179.410004,-193.830002,-388.359985,19.48
831682,-1.765584,1.862696,-2.424384,-297.570007,-109.269997,-355.390015,19.48
831694,-1.721664,3.008520,-1.670912,-254.100006,-48.090000,-362.670013,19.47
831706,-1.768512,2.789408,-1.079456,-95.129997,-38.009998,-257.250000,19.41
831718,-1.112152,3.294000,-0.501176,-24.709999,11.410000,-202.789993,19.41
831730,-0.997472,3.145160,-0.286456,-86.099998,20.860001,-107.029999,19.46
831742,-0.985272,2.916776,-0.031232,-72.519997,7.140000,-25.340000,19.41
831753,-0.698816,2.811856,0.072224,-64.050003,28.070000,26.670000,19.41
831764,-0.663680,2.373144,0.153232,-68.040001,32.270000,49.770000,19.45
831776,-0.540216,1.982744,0.220576,-67.339996,29.330000,60.480000,19.45
831787,-0.486536,1.736792,0.210328,-57.049999,24.850000,71.680000,19.45
831799,-0.412848,1.591856,0.244488,-49.490002,26.250000,75.669998,19.45
831810,-0.402112,1.433744,0.240096,-30.730000,25.480000,78.680000,19.45
831822,-0.376736,1.463024,0.265472,-18.900000,20.370001,80.500000,19.45
831834,-0.303048,1.544032,0.315248,-33.389999,19.670000,72.870003,19.43
831845,-0.385520,1.369816,0.285968,-49.770000,5.600000,80.570000,19.43
831857,-0.267912,1.336144,0.192272,-57.959999,0.490000,84.419998,19.44
831868,-0.219112,1.346880,0.087840,-70.139999,-3.920000,88.620003,19.44
831880,-0.193248,1.341024,-0.033672,-78.050003,-8.120000,94.989998,19.45
831892,-0.140544,1.288808,-0.076128,-76.580002,-6.020000,101.500000,19.46
831904,-0.183488,1.482056,-0.050264,-70.209999,-6.790000,116.480003,19.46
831916,-0.191784,1.627968,-0.039528,-74.059998,-8.120000,126.000000,19.43
831928,-0.211792,1.645048,-0.132736,-96.599998,-6.720000,140.770004,19.44
831940,-0.231312,1.617720,-0.162992,-128.029999,-8.820000,153.929993,19.44
831951,-0.218136,1.539152,-0.183000,-155.750000,-8.120000,171.009995,19.45
831963,-0.207888,1.498160,-0.204960,-179.830002,-6.790000,191.449997,19.40
831975,-0.182024,1.481080,-0.002928,-205.029999,-10.360000,209.369995,19.40
831987,-0.120536,1.461072,0.022936,-222.600006,-13.230000,222.740005,19.43
831998,-0.122976,1.443992,0.064416,-241.570007,-18.270000,234.220001,19.43
832009,-0.109312,1.382992,0.064904,-271.320007,-24.709999,242.690002,19.45
832022,-0.074664,1.242936,-0.071248,-305.690002,-33.529999,248.220001,19.42
832033,0.037088,1.037976,-0.163968,-315.279999,-37.099998,263.200012,19.42
832045,0.105896,0.798368,-0.075640,-325.640015,-40.950001,267.540009,19.47
832056,0.143960,0.734928,0.091256,-329.630005,-42.139999,271.739990,19.44
832068,0.158112,0.685640,0.187880,-332.850006,-47.529999,271.739990,19.44
832080,0.150304,0.617320,0.214720,-338.450012,-50.259998,274.959991,19.49
832091,0.201544,0.539240,0.041480,-350.350006,-56.279999,282.100006,19.49
832103,0.152256,0.510936,-0.068320,-370.089996,-69.370003,269.920013,19.43
832115,0.293288,0.292312,-0.162504,-380.239990,-71.050003,266.839996,19.40
832126,0.266448,0.134688,-0.190808,-392.209991,-71.820000,262.570007,19.40
832138,0.314272,-0.134688,-0.174704,-382.410004,-79.029999,252.559998,19.48
832150,0.311344,-0.253272,-0.106872,-367.290009,-82.389999,252.559998,19.38
832162,0.293288,-0.130296,-0.202032,-356.440002,-89.250000,247.800003,19.38
832173,0.311832,-0.186416,-0.248392,-340.480011,-91.769997,240.309998,19.41
832185,0.304512,-0.358680,-0.236192,-319.619995,-88.269997,232.610001,19.41
832197,0.279136,-0.430904,-0.275720,-311.010010,-86.449997,221.059998,19.43
832209,0.281576,-0.609024,-0.329888,-295.540009,-84.910004,210.279999,19.41
832221,0.321104,-1.000888,-0.384056,-256.829987,-83.720001,199.500000,19.41
832232,0.371368,-1.181448,-0.440176,-209.440002,-82.739998,188.929993,19.43
832244,0.421632,-1.272704,-0.475800,-180.320007,-76.019997,172.690002,19.43
832255,0.409432,-1.399096,-0.505080,-165.479996,-68.180000,151.619995,19.43
832267,0.406016,-1.628456,-0.535336,-156.240005,-61.599998,114.800003,19.41
832278,0.420168,-1.857816,-0.538264,-146.509995,-54.040001,84.489998,19.41
832290,0.467504,-2.212104,-0.526064,-127.680000,-45.009998,36.750000,19.43
832302,0.477752,-2.371680,-0.506544,-88.620003,-31.850000,-7.490000,19.45
832314,0.494344,-2.191120,-0.459208,-48.650002,-12.950000,-43.049999,19.45
832326,0.477752,-2.039840,-0.445544,-6.860000,2.660000,-90.510002,19.40
832338,0.499712,-1.902712,-0.451888,38.919998,21.350000,-125.510002,19.39
832349,0.525576,-1.891000,-0.467504,93.800003,51.869999,-153.300003,19.39
832360,0.522160,-1.667984,-0.476776,142.729996,44.240002,-174.580002,19.41
832372,0.502640,-1.502552,-0.449936,185.220001,48.650002,-193.199997,19.41
832383,0.432368,-1.270752,-0.441152,215.809998,49.349998,-225.330002,19.43
832395,0.539728,-1.167784,-0.419680,232.679993,41.860001,-226.029999,19.36
832407,0.482144,-1.067744,-0.443104,244.369995,41.860001,-242.339996,19.36
832418,0.486048,-1.006744,-0.421632,266.140015,38.919998,-254.869995,19.38
832429,0.458232,-0.914512,-0.425048,288.820007,39.759998,-267.959991,19.38
832441,0.434808,-0.864248,-0.508008,337.750000,37.099998,-284.410004,19.43
832453,0.413336,-0.773480,-0.692472,420.489990,40.459999,-288.399994,19.45
832464,0.414312,-0.671000,-0.957944,508.760010,44.450001,-283.709991,19.45
832476,0.344528,-0.565592,-1.056032,593.739990,43.119999,-291.899994,19.43
832487,0.251808,-0.388448,-1.126304,680.820007,40.320000,-306.179993,19.43
832499,0.113704,-0.307440,-1.175592,760.130005,30.590000,-326.269989,19.43
832510,-0.173728,-0.358192,-1.196576,839.650024,16.520000,-407.820007,19.45
832522,-0.107360,-0.260104,-0.967216,878.640015,-9.520000,-390.390015,19.45
832534,-0.665144,-0.192272,-0.713456,878.710022,-52.639999,-433.019989,19.39
832546,-0.602680,-0.225456,-0.488976,839.580017,-77.839996,-478.589996,19.41
832558,-0.630984,0.405040,-0.506056,683.059998,-53.970001,-410.130005,19.41
832569,-2.044232,1.259528,-0.716384,464.100006,-167.020004,-489.790009,19.45
832581,-0.931592,1.892952,-1.677256,112.279999,-216.720001,-434.140015,19.44
832593,-1.285392,1.027240,-2.002264,-111.300003,-200.059998,-450.660004,19.44
832605,-1.209752,1.325896,-2.073024,-220.990005,-102.900002,-429.309998,19.41
832617,-2.049600,1.757776,-1.605520,-211.610001,-80.360001,-386.750000,19.40
832628,-1.998848,2.513688,-0.853512,-132.860001,-89.320000,-348.179993,19.40
832640,-1.232200,2.859680,-0.313784,-132.089996,-42.630001,-286.649994,19.41
832652,-1.136064,2.468792,-0.146400,-150.779999,-22.889999,-223.860001,19.41
832664,-1.085312,2.421456,0.049288,-145.949997,-16.240000,-157.360001,19.42
832676,-0.933544,2.393640,0.150792,-129.500000,-8.330000,-103.320000,19.38
832688,-0.853024,2.144272,0.199104,-98.980003,-3.570000,-72.099998,19.38
832700,-0.781288,1.959320,0.308904,-41.930000,-1.750000,-48.230000,19.45
832712,-0.759328,2.037400,0.332328,-13.160000,3.780000,-20.440001,19.39
832723,-0.763232,1.938824,0.247904,-4.200000,2.590000,5.670000,19.39
832734,-0.736392,1.898320,0.218136,-2.800000,5.810000,34.230000,19.44
832746,-0.738832,1.907592,0.246440,-4.970000,5.880000,53.270000,19.44
832758,-0.682712,1.722640,0.247904,-4.970000,5.740000,69.089996,19.38
832769,-0.619760,1.768512,0.177632,-2.660000,6.510000,84.209999,19.37
832781,-0.581696,1.830488,0.095648,-17.780001,11.340000,89.949997,19.37
832792,-0.528992,1.768512,0.009272,-51.730000,10.920000,112.070000,19.42
832804,-0.573400,1.803160,-0.037088,-87.989998,3.360000,117.320000,19.42
832816,-0.451888,1.727520,0.023912,-129.779999,3.640000,130.899994,19.42
832827,-0.514352,1.657248,0.075640,-144.479996,-0.910000,147.839996,19.42
832838,-0.488976,1.664568,0.099552,-142.380005,-5.530000,165.550003,19.42
832852,-0.434320,1.578192,0.032208,-137.199997,-5.740000,181.229996,19.43
832864,-0.419192,1.605032,-0.110288,-137.830002,-7.070000,198.380005,19.43
832876,-0.334280,1.720200,-0.111264,-167.160004,-9.520000,211.610001,19.43
832887,-0.278160,1.749480,-0.057096,-215.039993,-13.580000,228.479996,19.43
832899,-0.290360,1.743136,-0.075640,-264.529999,-21.490000,242.759995,19.42
832911,-0.320616,1.641144,-0.081008,-291.200012,-25.760000,273.279999,19.42
832922,-0.366000,1.562088,-0.090768,-321.089996,-38.570000,272.649994,19.45
832934,-0.301096,1.275632,-0.124440,-343.350006,-57.470001,276.220001,19.43
832946,-0.112728,1.187304,-0.112728,-361.410004,-66.150002,293.019989,19.43
832957,-0.098576,1.105320,-0.042944,-365.329987,-72.519997,310.589996,19.42
832969,-0.110288,1.106296,0.038064,-368.200012,-84.000000,309.190002,19.42
832981,-0.041480,1.001864,0.002440,-370.720001,-86.800003,317.660004,19.42
832992,-0.009760,0.854000,-0.075640,-383.880005,-87.570000,343.209991,19.40
833004,0.023912,0.673440,-0.183000,-372.190002,-93.589996,316.329987,19.40
833015,0.078080,0.506056,-0.365024,-361.970001,-98.209999,311.149994,19.44
833027,0.105896,0.288408,-0.295240,-349.160004,-100.519997,306.109985,19.39
833039,0.124928,0.091256,-0.302560,-335.160004,-102.129997,301.980011,19.39
833051,0.134200,-0.009272,-0.331840,-330.470001,-100.239998,295.609985,19.40
833062,0.121024,-0.141520,-0.345992,-313.109985,-100.449997,288.260010,19.40
833074,0.121024,-0.206912,-0.370880,-294.839996,-97.160004,284.619995,19.40
833086,0.089304,-0.418216,-0.374784,-266.980011,-98.279999,273.769989,19.42
833097,0.094672,-0.661728,-0.351848,-239.679993,-100.730003,265.929993,19.42
833109,0.156160,-0.875472,-0.373808,-228.479996,-95.760002,251.649994,19.41
833121,0.152256,-1.129720,-0.434808,-220.360001,-95.830002,235.270004,19.37
833132,0.182024,-1.304912,-0.469944,-207.410004,-99.959999,216.580002,19.37
833144,0.279136,-1.390312,-0.499712,-198.800003,-89.040001,187.110001,19.43
833156,0.286456,-1.604544,-0.523136,-188.509995,-78.750000,160.720001,19.43
833167,0.364536,-1.896368,-0.515328,-168.910004,-67.199997,123.199997,19.41
833178,0.393816,-2.237968,-0.547048,-124.949997,-56.419998,83.510002,19.36
833190,0.422608,-2.492216,-0.579744,-56.070000,-51.869999,44.939999,19.36
833202,0.486048,-2.412672,-0.505080,-3.570000,-33.320000,-3.150000,19.42
833214,0.442616,-2.419016,-0.448960,43.049999,-14.630000,-56.000000,19.44
833225,0.419192,-2.225768,-0.348432,68.879997,-2.800000,-107.449997,19.44
833237,0.430416,-1.992504,-0.290360,80.779999,6.580000,-159.460007,19.38
833249,0.434808,-1.837320,-0.315248,96.320000,15.190000,-187.389999,19.38
833261,0.374784,-1.680672,-0.351848,130.970001,15.540000,-224.770004,19.41
833272,0.423096,-1.561600,-0.400160,189.839996,15.680000,-272.089996,19.39
833284,0.373320,-1.350296,-0.378688,243.460007,18.410000,-274.959991,19.39
833295,0.327936,-1.118984,-0.413824,288.190002,23.450001,-284.970001,19.37
833306,0.354776,-1.018456,-0.477752,333.130005,20.230000,-298.059998,19.37
833319,0.368440,-0.897920,-0.594872,376.040009,20.650000,-292.390015,19.38
833330,0.308416,-0.827160,-0.751032,423.640015,23.240000,-299.320007,19.38
833342,0.284016,-0.693448,-0.844728,465.570007,22.400000,-308.420013,19.38
833354,0.264496,-0.623664,-0.924272,524.020020,23.730000,-318.989990,19.38
833365,0.235704,-0.583160,-0.910120,593.809998,20.790001,-332.220001,19.37
833377,0.100528,-0.424560,-0.753960,650.020020,11.340000,-352.940002,19.37
833388,-0.142008,-0.332816,-0.838384,707.349976,-7.000000,-386.190002,19.39
833400,-0.314272,-0.207400,-0.733952,751.380005,-43.049999,-412.510010,19.39
833411,-0.411384,-0.212280,-0.664168,789.250000,-63.490002,-443.940002,19.40
833423,-0.494832,-0.194712,-0.519232,790.859985,-66.570000,-454.440002,19.32
833434,-1.349808,-0.167384,-0.835944,812.700012,-132.229996,-467.320007,19.32
833447,-0.674904,1.137040,-1.110200,582.539978,-55.439999,-507.429993,19.39
833458,-1.873920,1.936384,-1.530368,278.670013,-190.750000,-417.200012,19.37
833470,-1.575264,2.086200,-1.995432,36.680000,-264.529999,-410.410004,19.37
833482,-0.892064,1.638216,-1.860256,-185.990005,-166.809998,-436.940002,19.41
833493,-1.457656,1.595760,-1.503040,-291.269989,-113.330002,-405.369995,19.35
833505,-1.620160,1.718736,-0.914512,-248.500000,-71.750000,-388.640015,19.35
833517,-1.539640,2.144760,-0.701256,-124.599998,-58.240002,-254.729996,19.41
833529,-1.187792,3.175904,-0.472384,-101.919998,-34.369999,-228.479996,19.41
833541,-0.958920,2.782576,-0.528504,-132.300003,-51.450001,-171.850006,19.43
833553,-0.742248,2.230648,-0.149816,-115.430000,0.840000,-89.320000,19.36
833565,-0.921344,2.120360,0.172752,-52.849998,-6.790000,-52.500000,19.36
833577,-0.659288,2.123776,0.265960,-27.510000,10.220000,-13.930000,19.39
833589,-0.675880,2.215520,0.246928,-24.430000,2.240000,4.620000,19.39
833600,-0.606584,2.095960,0.232288,-23.450001,8.400000,22.469999,19.39
833611,-0.634400,1.910520,0.225456,-11.690000,10.920000,38.709999,19.38
833623,-0.614880,1.738256,0.236192,5.950000,13.860000,56.349998,19.38
833634,-0.565104,1.748992,0.223504,18.340000,11.410000,71.120003,19.35
833646,-0.486536,1.735816,0.180560,12.950000,10.570000,84.070000,19.39
833657,-0.404064,1.652856,0.071736,2.380000,8.470000,95.269997,19.39
833669,-0.388448,1.755824,-0.011712,-14.980000,10.360000,119.699997,19.35
833680,-0.457256,1.832928,-0.060512,-41.230000,6.300000,127.330002,19.39
833692,-0.363072,1.829024,-0.099552,-75.320000,4.130000,132.580002,19.39
833703,-0.381616,1.598200,-0.183488,-98.419998,2.870000,148.750000,19.38
833715,-0.393328,1.389824,-0.214720,-97.160004,-0.770000,160.160004,19.38
833727,-0.304024,1.398608,-0.266448,-93.099998,3.850000,173.389999,19.40
833738,-0.283040,1.572336,-0.340136,-107.940002,8.960000,194.669998,19.39
833749,-0.293776,1.621624,-0.311344,-138.320007,9.800000,210.070007,19.39
833761,-0.257176,1.639680,-0.222528,-148.679993,5.250000,226.100006,19.39
833773,-0.190808,1.620160,-0.200080,-183.889999,4.130000,238.490005,19.39
833784,-0.167384,1.500600,-0.251808,-226.100006,-1.120000,250.389999,19.37
833796,-0.059048,1.314672,-0.414800,-240.380005,5.250000,268.309998,19.39
833807,-0.119560,1.334192,-0.411872,-229.949997,6.650000,284.619995,19.39
833819,-0.142496,1.374208,-0.369416,-208.669998,10.570000,295.470001,19.33
833831,-0.132248,1.412272,-0.311344,-199.149994,14.490000,303.519989,19.40
833842,-0.059048,1.243424,-0.233752,-201.320007,17.990000,304.220001,19.40
833854,0.025376,0.946232,-0.137616,-210.350006,26.950001,300.579987,19.36
833865,0.181536,0.699792,-0.169824,-226.100006,28.910000,327.390015,19.36
833877,0.083448,0.593408,-0.102968,-250.740005,44.590000,312.339996,19.37
833888,0.110288,0.574376,-0.111264,-276.149994,33.110001,317.660004,19.40
833900,0.162992,0.481656,-0.122976,-302.609985,40.599998,328.230011,19.40
833911,0.023912,0.183488,-0.151768,-326.619995,34.509998,301.140015,19.36
833922,0.112728,-0.007320,-0.128344,-339.359985,19.809999,293.649994,19.33
833934,0.139080,-0.031232,-0.104432,-352.869995,11.970000,290.850006,19.33
833945,0.104920,-0.111264,-0.139080,-362.600006,3.990000,284.970001,19.43
833957,0.080032,-0.295240,-0.200568,-366.450012,-7.770000,274.399994,19.43
833968,0.131760,-0.514840,-0.166896,-351.470001,-13.440000,269.220001,19.37
833980,0.159576,-0.642208,-0.119072,-341.809998,-14.700000,263.269989,19.36
833991,0.124440,-0.791048,-0.085888,-329.839996,-20.440001,246.679993,19.36
834003,0.141032,-0.925248,-0.118096,-323.399994,-31.290001,233.729996,19.36
834014,0.215208,-1.131672,-0.224968,-318.850006,-37.799999,213.360001,19.36
834026,0.279136,-1.359080,-0.289872,-304.570007,-40.040001,193.690002,19.35
834037,0.287920,-1.566968,-0.299632,-287.910004,-45.430000,161.910004,19.42
834048,0.358192,-1.816336,-0.333792,-265.299988,-43.680000,124.180000,19.42
834060,0.404552,-2.232600,-0.403576,-236.389999,-38.500000,88.900002,19.37
834071,0.485072,-2.414624,-0.459208,-203.350006,-27.299999,45.709999,19.37
834082,0.469944,-2.501488,-0.457256,-152.039993,-29.260000,-5.530000,19.32
834094,0.561688,-2.491728,-0.419192,-94.290001,-14.350000,-54.880001,19.34
834106,0.530456,-2.299456,-0.345016,-26.110001,10.360000,-102.900002,19.34
834118,0.499224,-2.035936,-0.357216,39.619999,27.510000,-140.279999,19.40
834129,0.463112,-1.855376,-0.369904,97.300003,34.160000,-174.720001,19.33
834141,0.446032,-1.618696,-0.329888,144.899994,39.130001,-203.350006,19.33
834152,0.467504,-1.490840,-0.312320,181.509995,40.040001,-245.559998,19.34
834164,0.381616,-1.287832,-0.316224,199.289993,35.700001,-240.660004,19.34
834176,0.437248,-1.079944,-0.306952,220.710007,34.160000,-269.779999,19.38
834187,0.524112,-1.016992,-0.309392,241.220001,41.720001,-271.459991,19.36
834199,0.432856,-0.977464,-0.374296,274.959991,52.220001,-283.850006,19.36
834211,0.361120,-0.839360,-0.392840,316.750000,50.750000,-283.779999,19.37
834222,0.316224,-0.684176,-0.550464,362.950012,53.130001,-293.790009,19.36
834233,0.365512,-0.682712,-0.756888,432.529999,56.840000,-300.510010,19.36
834245,0.349408,-0.612928,-0.935008,508.269989,60.900002,-313.880005,19.34
834256,0.195200,-0.613416,-0.927200,606.059998,58.240002,-345.239990,19.34
834268,0.073688,-0.447984,-0.834968,660.799988,41.650002,-357.000000,19.35
834280,-0.252784,-0.433344,-0.736392,700.070007,20.440001,-408.029999,19.36
834291,-0.457744,-0.413824,-0.724680,733.109985,-10.570000,-429.380005,19.36
834303,-0.689544,-0.353312,-0.767624,774.830017,-46.759998,-445.829987,19.34
834315,-0.960384,-0.277672,-1.009672,772.380005,-94.639999,-460.390015,19.32
834327,-0.919880,0.432856,-0.995032,802.270020,-69.300003,-547.679993,19.32
834338,-1.154120,1.535736,-1.098000,571.270020,-56.000000,-409.429993,19.38
834350,-2.232112,2.209176,-1.704584,270.130005,-222.809998,-402.290009,19.38
834362,-1.705560,2.259928,-1.933944,27.860001,-239.330002,-399.559998,19.37
834373,-1.551840,2.310192,-1.966640,-228.270004,-156.169998,-408.239990,19.37
834386,-1.759240,2.452688,-1.512312,-314.790009,-95.690002,-375.760010,19.37
834399,-1.782176,2.229184,-0.883280,-199.080002,-81.199997,-268.029999,19.39
834412,-1.046272,2.609824,-0.495808,-91.910004,-16.100000,-220.850006,19.39
834424,-1.088728,2.951912,-0.359168,-79.379997,-1.470000,-151.199997,19.39
834436,-0.877424,2.784528,-0.151280,-90.650002,6.090000,-89.529999,19.38
834447,-0.665144,2.426824,0.114680,-73.080002,35.279999,-29.190001,19.33
834459,-0.739320,2.277008,0.109800,-46.830002,32.830002,0.140000,19.33
834470,-0.623664,2.085712,0.233264,-27.510000,41.230000,29.120001,19.36
834482,-0.610976,2.082296,0.390888,-26.950001,38.220001,40.810001,19.36
834494,-0.569496,1.885144,0.451888,-37.240002,35.209999,51.730000,19.33
834505,-0.535824,1.684088,0.417728,-33.459999,30.520000,58.029999,19.39
834517,-0.499712,1.504504,0.339160,-16.730000,30.520000,64.470001,19.39
834528,-0.460672,1.411784,0.223016,4.410000,31.010000,68.949997,19.37
834540,-0.259616,1.598200,0.201544,1.050000,33.180000,77.139999,19.31
834551,-0.451888,1.648464,0.174216,-16.170000,25.480000,87.080002,19.31
834562,-0.398208,1.811944,0.227896,-48.090000,11.760000,88.550003,19.37
834574,-0.354776,1.588928,0.161040,-62.580002,6.930000,103.669998,19.37
834586,-0.393816,1.506456,0.043920,-58.310001,-2.730000,109.480003,19.38
834598,-0.305976,1.465464,-0.100528,-66.779999,1.400000,120.610001,19.34
834610,-0.320128,1.515240,-0.191784,-81.269997,2.940000,137.759995,19.34
834621,-0.347944,1.730936,-0.201544,-105.839996,5.600000,157.500000,19.33
834633,-0.414800,1.812432,-0.189344,-146.440002,2.450000,177.240005,19.34
834644,-0.422120,1.736304,-0.114680,-182.699997,0.350000,195.300003,19.34
834655,-0.391864,1.619184,-0.054168,-206.919998,-3.920000,206.429993,19.36
834667,-0.338184,1.509384,-0.048312,-220.080002,-10.570000,226.940002,19.36
834679,-0.328424,1.405928,-0.097112,-234.990005,-14.350000,238.490005,19.41
834690,-0.262056,1.484984,-0.129320,-256.339996,-23.590000,255.009995,19.37
834702,-0.183976,1.499624,-0.129808,-291.829987,-25.760000,267.540009,19.37
834714,-0.110288,1.438624,-0.223504,-312.899994,-36.119999,321.019989,19.36
834725,-0.168848,1.270264,-0.062952,-361.829987,-33.740002,295.329987,19.36
834737,-0.126880,1.195112,0.035136,-382.549988,-52.919998,289.100006,19.36
834748,-0.073688,0.858880,0.054168,-381.709991,-58.869999,296.239990,19.37
834760,-0.029768,0.610000,0.012200,-356.160004,-61.389999,304.149994,19.37
834771,0.082472,0.557296,-0.032208,-341.040009,-63.209999,313.880005,19.36
834783,0.162504,0.501176,-0.127368,-322.489990,-64.470001,308.559998,19.35
834795,0.155672,0.438224,-0.175680,-314.369995,-68.599998,298.130005,19.35
834806,0.176168,0.315736,-0.214232,-317.029999,-69.370003,295.260010,19.32
834817,0.120048,0.205936,-0.229360,-327.809998,-77.139999,287.140015,19.32
834829,0.110288,0.079544,-0.280600,-342.440002,-87.010002,272.929993,19.37
834840,0.122976,-0.164456,-0.278648,-343.420013,-92.470001,265.859985,19.33
834852,0.125416,-0.330376,-0.276696,-317.029999,-96.180000,261.730011,19.33
834864,0.121512,-0.420168,-0.293288,-281.470001,-101.500000,255.220001,19.38
834875,0.161040,-0.605608,-0.289384,-241.220001,-100.940002,246.190002,19.33
834886,0.193248,-0.620736,-0.368928,-230.440002,-99.330002,232.750000,19.33
834899,0.239120,-0.869128,-0.427488,-228.339996,-92.610001,212.100006,19.36
834911,0.305000,-1.086288,-0.513864,-222.740005,-85.889999,190.119995,19.36
834923,0.361120,-1.203408,-0.585112,-238.910004,-79.730003,164.710007,19.34
834934,0.470432,-1.737280,-0.675880,-236.600006,-77.000000,131.949997,19.36
834946,0.471896,-2.283352,-0.692472,-205.940002,-74.339996,109.269997,19.36
834958,0.549000,-2.465864,-0.713944,-126.910004,-58.169998,62.580002,19.36
834969,0.518744,-2.482944,-0.707112,-83.089996,-47.459999,21.000000,19.37
834981,0.594384,-2.523936,-0.639768,-11.690000,-27.370001,-34.230000,19.37
834992,0.585112,-2.482456,-0.573400,54.810001,-8.190000,-87.709999,19.38
835004,0.574864,-2.278960,-0.505080,109.690002,9.030000,-140.350006,19.38
835015,0.648552,-2.012512,-0.484584,154.210007,31.990000,-194.809998,19.38
835027,0.570960,-1.835856,-0.577304,201.039993,37.660000,-214.619995,19.35
835038,0.519232,-1.601616,-0.671000,258.440002,38.080002,-238.490005,19.35
835050,0.549000,-1.435208,-0.673928,297.220001,50.680000,-293.510010,19.41
835061,0.508496,-1.218536,-0.636352,348.250000,64.050003,-309.119995,19.34
835073,0.525088,-1.217560,-0.636840,388.850006,68.949997,-309.049988,19.34
835085,0.391864,-1.049200,-0.599752,455.350006,69.510002,-295.540009,19.36
835096,0.247904,-0.839360,-0.574864,503.089996,64.400002,-309.470001,19.36
835108,0.180560,-0.605120,-0.630008,534.030029,56.349998,-322.000000,19.33
835119,0.155672,-0.443104,-0.640744,541.590027,43.820000,-338.170013,19.36
835131,0.103944,-0.560712,-0.571936,578.479980,32.689999,-361.059998,19.36
835142,-0.136152,-0.337696,-0.460672,602.770020,22.120001,-387.799988,19.38
835154,-0.390400,-0.118584,-0.378688,653.520020,2.170000,-411.459991,19.38
835166,-0.682224,-0.073200,-0.220088,705.109985,-40.110001,-436.100006,19.35
835177,-1.219024,-0.445056,-0.423096,786.520020,-116.129997,-507.709991,19.34
835189,-0.856928,-0.500688,-0.632448,843.989990,-53.340000,-555.030029,19.34
835201,-1.013576,0.464576,-0.911096,737.659973,-61.180000,-507.709991,19.38
835213,-1.553304,1.972008,-1.578192,343.700012,-152.110001,-377.089996,19.33
835224,-2.309704,1.243424,-1.837808,9.520000,-250.809998,-398.859985,19.33
835237,-1.940288,1.670912,-2.328736,-220.360001,-186.270004,-397.109985,19.38
835249,-1.870504,2.423896,-2.055456,-285.529999,-116.269997,-361.269989,19.32
835260,-1.669448,2.380952,-1.227808,-225.539993,-114.800003,-259.000000,19.32
835272,-1.289296,2.441464,-0.494832,-95.339996,-62.020000,-266.769989,19.39
835283,-1.174128,2.714744,-0.232776,-45.430000,-13.160000,-192.919998,19.39
835295,-1.118984,2.977776,-0.152256,-50.610001,10.360000,-103.389999,19.36
835307,-0.974536,2.866512,0.003416,-67.550003,1.540000,-24.500000,19.29
835318,-0.718336,2.533696,0.113216,-61.250000,12.460000,3.290000,19.29
835329,-0.575840,2.174528,0.117120,-40.389999,30.799999,12.880000,19.35
835340,-0.521672,1.992016,0.159576,-26.670000,28.559999,27.230000,19.35
835352,-0.457744,1.838784,0.297680,-24.360001,28.980000,43.820000,19.32
835364,-0.428464,1.762656,0.432856,-21.000000,24.080000,52.990002,19.36
835375,-0.409432,1.672864,0.477752,-14.140000,15.820000,61.180000,19.36
835387,-0.406016,1.580632,0.495320,-3.500000,4.900000,64.120003,19.37
835398,-0.338672,1.540128,0.453352,5.670000,-0.490000,71.959999,19.35
835411,-0.244000,1.582096,0.282064,-2.940000,-1.750000,80.849998,19.35
835422,-0.344528,1.442528,0.058072,-7.210000,-8.050000,85.889999,19.35
835434,-0.272792,1.473272,0.037576,-12.040000,-9.730000,88.760002,19.35
835446,-0.312320,1.507920,-0.064904,-8.120000,-7.070000,101.849998,19.33
835457,-0.352824,1.708488,-0.142008,-25.340000,-7.560000,114.519997,19.36
835469,-0.395768,1.661152,-0.129320,-54.880001,-12.460000,123.550003,19.36
835481,-0.355752,1.625040,-0.120536,-88.129997,-13.580000,140.000000,19.32
835492,-0.332816,1.601616,-0.174216,-115.779999,-9.100000,155.330002,19.37
835505,-0.321104,1.456680,-0.305488,-140.419998,-7.000000,170.449997,19.37
835517,-0.269864,1.384944,-0.416264,-148.190002,-5.880000,185.500000,19.36
835529,-0.217160,1.467416,-0.374296,-153.089996,-2.030000,202.860001,19.35
835541,-0.181048,1.515240,-0.280112,-172.759995,-5.530000,215.110001,19.35
835553,-0.116632,1.487912,-0.247904,-201.320007,-1.960000,226.309998,19.33
835564,-0.117608,1.456680,-0.210816,-235.690002,-7.280000,237.580002,19.36
835577,-0.099064,1.408368,-0.124440,-274.540009,-11.340000,249.690002,19.36
835589,-0.049288,1.219024,-0.122488,-312.200012,-16.309999,260.470001,19.38
835601,0.017568,1.161928,-0.160064,-329.839996,-24.080000,270.619995,19.38
835613,0.056608,1.073600,-0.069784,-340.970001,-25.480000,291.549988,19.36
835624,0.033672,1.028704,-0.161528,-346.850006,-40.740002,283.709991,19.30
835635,0.200568,0.847168,-0.111264,-344.049988,-45.009998,292.950012,19.30
835647,0.177632,0.619272,-0.050752,-335.579987,-42.770000,298.410004,19.36
835659,0.177144,0.480680,-0.057096,-317.660004,-49.070000,317.100006,19.30
835671,0.193248,0.395280,-0.136640,-306.109985,-52.360001,290.989990,19.30
835683,0.283040,0.264008,-0.157624,-301.070007,-46.759998,294.489990,19.36
835694,0.147864,0.199104,-0.203008,-307.649994,-48.439999,283.989990,19.36
835706,0.203496,0.083448,-0.188368,-312.970001,-55.930000,275.799988,19.36
835717,0.239120,-0.106872,-0.193736,-312.200012,-56.209999,269.149994,19.34
835729,0.249368,-0.281088,-0.189832,-304.570007,-62.090000,259.630005,19.34
835741,0.270352,-0.365024,-0.146888,-295.609985,-63.840000,255.500000,19.36
835752,0.265960,-0.376248,-0.215208,-294.350006,-69.019997,247.520004,19.36
835764,0.246928,-0.510936,-0.200080,-284.619995,-75.180000,237.929993,19.36
835776,0.252296,-0.742736,-0.226920,-261.239990,-80.709999,227.009995,19.34
835787,0.263520,-0.980392,-0.242536,-243.600006,-83.650002,208.389999,19.34
835799,0.335744,-1.132648,-0.363072,-233.240005,-80.430000,183.610001,19.35
835810,0.390888,-1.385432,-0.452376,-227.990005,-78.330002,156.449997,19.35
835822,0.415776,-1.589416,-0.528992,-219.869995,-75.669998,126.349998,19.35
835833,0.522648,-1.874896,-0.548024,-198.800003,-70.070000,96.320000,19.35
835844,0.528016,-2.286280,-0.534360,-153.580002,-56.630001,54.040001,19.34
835856,0.560224,-2.469280,-0.570960,-111.089996,-35.139999,3.500000,19.34
835867,0.516792,-2.597136,-0.609024,-73.080002,-20.370001,-44.799999,19.31
835879,0.531432,-2.423896,-0.602192,-13.090000,-3.220000,-95.199997,19.31
835893,0.561688,-2.163792,-0.582184,42.630001,23.379999,-150.710007,19.35
835906,0.551928,-1.942240,-0.584624,94.010002,43.889999,-208.880005,19.35
835917,0.603168,-1.703120,-0.587552,146.649994,54.459999,-216.509995,19.35
835928,0.575840,-1.501088,-0.540704,194.949997,65.940002,-234.919998,19.31
835939,0.509960,-1.237568,-0.473360,222.460007,68.669998,-250.179993,19.29
835951,0.482144,-0.983320,-0.396256,249.479996,69.089996,-263.269989,19.29
835962,0.484096,-0.735416,-0.353312,257.459991,64.750000,-289.239990,19.34
835973,0.498736,-0.633424,-0.348432,267.049988,69.790001,-273.559998,19.34
835985,0.496784,-0.569008,-0.373808,297.640015,74.410004,-271.670013,19.33
835996,0.466040,-0.493368,-0.409920,342.299988,80.709999,-276.220001,19.36
836007,0.399672,-0.407968,-0.522160,382.829987,87.570000,-282.589996,19.36
836018,0.316712,-0.183976,-0.595360,424.059998,86.589996,-291.690002,19.33
836030,0.254736,-0.116144,-0.671000,480.480011,81.269997,-303.799988,19.33
836041,0.142008,-0.008296,-0.662216,540.820007,73.430000,-318.570007,19.35
836053,-0.130784,0.055632,-0.539728,602.210022,53.340000,-352.029999,19.37
836064,-0.064904,0.163968,-0.335256,635.320007,62.650002,-369.600006,19.37
836076,-0.524112,0.183488,-0.227408,662.270020,33.040001,-436.100006,19.32
836087,-0.363072,0.021472,-0.142008,719.809998,12.180000,-441.839996,19.32
836099,-0.416752,-0.136152,-0.300120,750.890015,7.770000,-408.519989,19.33
836110,-1.201944,-0.243512,-0.553880,782.109985,-30.520000,-465.570007,19.35
836122,-1.257576,0.790560,-0.722240,637.070007,-118.300003,-427.700012,19.35
836133,-1.335168,1.773392,-1.045296,328.859985,-175.139999,-433.299988,19.31
836145,-1.399584,1.937848,-1.159976,-25.200001,-186.619995,-444.850006,19.34
836157,-1.728984,2.441952,-1.321504,-304.220001,-152.250000,-391.579987,19.34
836168,-1.831464,2.285304,-1.226344,-383.809998,-145.600006,-327.390015,19.29
836180,-1.430816,1.911008,-1.038464,-328.579987,-119.209999,-301.279999,19.29
836192,-1.056520,1.705560,-0.695888,-132.509995,-51.590000,-229.949997,19.36
836204,-1.212680,2.416576,-0.276208,-69.019997,-51.169998,-204.820007,19.30
836215,-0.964288,2.429264,0.013176,-70.559998,-25.270000,-154.000000,19.30
836227,-1.029192,2.405352,0.206912,-72.800003,-19.740000,-80.709999,19.34
836239,-0.936472,2.265296,0.286944,-40.599998,-10.850000,-8.540000,19.34
836251,-0.894016,2.238944,0.317200,-17.430000,-9.730000,11.550000,19.34
836262,-0.723704,2.167208,0.290360,-16.379999,6.090000,29.959999,19.33
836273,-0.713456,2.036912,0.195688,-20.299999,12.740000,46.200001,19.33
836285,-0.626104,1.875384,0.110776,-25.760000,19.459999,61.389999,19.31
836296,-0.566080,1.802672,0.167384,-33.669998,25.480000,72.239998,19.29
836307,-0.569984,1.728008,0.270840,-31.639999,24.360001,90.089996,19.29
836319,-0.572424,1.816336,0.332816,-37.029999,13.090000,96.599998,19.31
836330,-0.453352,1.726544,0.293776,-48.020000,10.570000,105.139999,19.30
836341,-0.464088,1.521096,0.245464,-49.910000,2.240000,112.769997,19.30
836353,-0.367952,1.452776,0.196176,-47.389999,-3.780000,124.040001,19.31
836364,-0.332328,1.571360,0.091744,-47.880001,-2.940000,136.710007,19.31
836376,-0.388936,1.675792,-0.032208,-61.599998,-4.760000,148.050003,19.34
836387,-0.369904,1.797792,-0.088328,-88.690002,-4.130000,164.429993,19.29
836399,-0.357704,1.660176,-0.133224,-127.330002,-5.040000,181.369995,19.29
836410,-0.313784,1.484496,-0.088816,-148.820007,-11.550000,197.679993,19.30
836422,-0.232776,1.431304,-0.046848,-146.929993,-16.870001,215.809998,19.30
836433,-0.211304,1.510848,-0.030744,-150.779999,-14.910000,230.440002,19.33
836445,-0.230824,1.492792,-0.087352,-156.869995,-18.059999,238.839996,19.32
836456,-0.219112,1.352248,-0.077104,-170.800003,-19.320000,248.990005,19.32
836467,-0.207888,1.390800,-0.077592,-203.770004,-23.870001,260.260010,19.32
836478,-0.206912,1.345416,-0.065392,-231.070007,-37.380001,265.579987,19.32
836490,-0.098088,1.110688,-0.074176,-261.940002,-45.919998,272.859985,19.32
836501,-0.021960,1.102880,-0.056120,-309.959991,-46.270000,283.079987,19.29
836513,-0.031720,0.986248,-0.048800,-330.260010,-59.080002,287.700012,19.29
836524,0.205448,1.025288,-0.104920,-337.049988,-62.720001,365.540009,19.31
836536,-0.164944,0.798856,-0.032696,-351.890015,-56.910000,295.890015,19.29
836547,0.109312,0.594384,0.006344,-347.760010,-76.720001,290.149994,19.29
836558,0.191296,0.415776,-0.044408,-339.570007,-73.709999,294.839996,19.33
836570,0.128832,0.262056,-0.081008,-321.720001,-89.250000,293.160004,19.33
836581,0.254736,0.343552,-0.093208,-316.609985,-85.190002,300.510010,19.34
836592,0.246928,0.198616,-0.172752,-314.510010,-93.309998,283.500000,19.28
836604,0.167384,0.040504,-0.234728,-305.690002,-106.120003,271.670013,19.28
836615,0.217160,-0.034648,-0.255224,-300.369995,-103.110001,268.029999,19.34
836627,0.143960,-0.248392,-0.239120,-292.670013,-112.419998,249.970001,19.34
836638,0.178120,-0.224968,-0.250344,-282.519989,-116.970001,239.889999,19.33
836650,0.198128,-0.469456,-0.211792,-254.589996,-116.900002,231.210007,19.27
836662,0.228872,-0.554368,-0.175192,-237.860001,-117.110001,222.250000,19.27
836673,0.261568,-0.766160,-0.219112,-228.410004,-117.949997,209.300003,19.32
836685,0.332816,-0.987712,-0.288896,-223.789993,-118.510002,195.860001,19.30
836696,0.467992,-1.258064,-0.325984,-220.639999,-112.699997,171.639999,19.30
836707,0.567056,-1.505968,-0.380152,-232.470001,-96.529999,147.630005,19.35
836719,0.453352,-1.846592,-0.505568,-238.559998,-102.059998,123.480003,19.35
836730,0.607072,-2.010072,-0.667584,-235.130005,-91.139999,83.650002,19.32
836742,0.602680,-2.339960,-0.853512,-212.940002,-80.290001,45.290001,19.32
836753,0.706136,-2.430240,-0.908656,-169.679993,-52.290001,-5.250000,19.32
836765,0.685152,-2.456104,-0.883280,-110.949997,-19.530001,-62.650002,19.32
836776,0.655872,-2.286280,-0.841800,-34.090000,3.570000,-113.400002,19.32
836788,0.672952,-1.967616,-0.797880,38.360001,51.660000,-155.889999,19.30
836800,0.694912,-1.588440,-0.778848,108.779999,67.970001,-192.990005,19.29
836811,0.574864,-1.315160,-0.736880,169.889999,64.750000,-200.270004,19.29
836823,0.582672,-0.999912,-0.681736,202.580002,68.739998,-210.910004,19.29
836834,0.588040,-0.753472,-0.637328,210.070007,69.019997,-225.750000,19.34
836846,0.619760,-0.545096,-0.609024,209.789993,79.099998,-231.279999,19.34
836857,0.577304,-0.518744,-0.634888,230.929993,86.379997,-236.460007,19.34
836868,0.582184,-0.487024,-0.683688,271.179993,93.589996,-238.279999,19.34
836880,0.529480,-0.405040,-0.710040,321.440002,104.440002,-240.800003,19.30
836891,0.447984,0.011712,-0.780800,318.359985,113.959999,-248.289993,19.30
836903,0.407480,-0.039528,-0.781776,321.929993,120.400002,-261.100006,19.30
836914,0.417728,-0.271816,-0.946720,367.079987,134.330002,-273.769989,19.30
836925,0.281576,-0.222528,-1.102880,421.119995,142.869995,-290.500000,19.30
836937,0.232776,-0.448472,-1.185840,535.780029,151.410004,-306.529999,19.34
836949,0.124928,-0.146400,-1.138992,633.710022,167.720001,-339.500000,19.28
836960,-0.794952,0.055632,-0.869616,760.130005,128.589996,-442.959991,19.28
836972,0.214232,0.347944,-0.559248,826.140015,228.130005,-421.260010,19.32
836983,-1.463512,0.198616,-0.451400,893.969971,90.019997,-394.450012,19.27
836994,-1.668960,0.243024,-0.499224,931.770020,-1.960000,-505.540009,19.27
837006,-0.804712,0.248392,-0.633912,901.460022,2.310000,-538.369995,19.31
837017,-1.352736,1.159976,-0.929640,797.789978,-35.139999,-510.510010,19.31
837028,-1.947120,2.138416,-1.148752,465.149994,-156.869995,-501.829987,19.33
837040,-1.765096,2.734264,-1.752896,58.099998,-184.309998,-448.980011,19.30
837051,-2.082296,3.197376,-1.884656,-318.010010,-149.169998,-380.589996,19.30
837063,-1.752896,2.595184,-1.689456,-460.670013,-92.400002,-292.250000,19.36
837074,-1.779248,1.827072,-1.040416,-322.070007,-79.449997,-276.989990,19.36
837086,-1.141432,2.061800,-0.486048,-104.510002,5.530000,-190.399994,19.33
837097,-1.332240,3.143208,-0.169336,-38.500000,26.530001,-194.460007,19.33
837108,-0.955504,2.674240,-0.030744,-59.709999,31.920000,-116.410004,19.33
837119,-0.996496,2.494656,0.112240,-60.340000,37.590000,-39.619999,19.34
837131,-0.926712,2.539552,0.258640,-71.610001,43.540001,17.920000,19.34
837143,-0.809592,2.363384,0.296216,-95.970001,29.610001,41.509998,19.30
837154,-0.652944,2.181360,0.276208,-114.379997,29.190001,57.259998,19.29
837165,-0.538264,1.943216,0.225456,-129.639999,29.190001,63.000000,19.29
837177,-0.509960,1.592344,0.187392,-116.830002,26.530001,78.330002,19.30
837188,-0.530456,1.359080,0.179584,-66.570000,28.420000,94.010002,19.32
837199,-0.489952,1.420568,0.232776,-28.700001,22.400000,102.900002,19.32
837210,-0.411384,1.495232,0.304024,-14.560000,18.549999,106.540001,19.32
837222,-0.347456,1.559160,0.278160,-31.709999,9.450000,109.970001,19.32
837233,-0.266448,1.651880,0.165432,-90.930000,5.670000,114.870003,19.33
837244,-0.337208,1.621624,0.128344,-143.919998,-8.400000,121.099998,19.29
837256,-0.318664,1.526952,0.020008,-163.660004,-16.170000,131.039993,19.29
837267,-0.278648,1.423984,-0.036112,-155.679993,-10.850000,151.970001,19.27
837278,-0.324032,1.458632,-0.055144,-130.270004,-13.300000,168.559998,19.27
837290,-0.263032,1.527440,0.004880,-120.330002,-13.230000,181.860001,19.28
837301,-0.185440,1.466440,0.003904,-121.239998,-18.270000,194.740005,19.23
837313,-0.143960,1.488888,-0.027328,-134.470001,-16.520000,209.789993,19.23
837325,-0.185440,1.589904,-0.014152,-178.919998,-17.150000,224.979996,19.32
837336,-0.263032,1.653344,0.039040,-229.460007,-22.400000,237.860001,19.32
837348,-0.314760,1.579168,0.131272,-284.619995,-32.200001,250.039993,19.32
837359,-0.242048,1.260016,0.094184,-329.070007,-44.240002,276.570007,19.33
837370,-0.121024,1.110688,0.056120,-341.179993,-42.700001,290.359985,19.33
837382,-0.160064,1.077992,0.099064,-352.730011,-52.709999,286.649994,19.34
837393,-0.105408,0.979416,0.149328,-360.709991,-70.070000,279.440002,19.34
837404,-0.042456,0.920856,0.081984,-360.359985,-72.730003,288.679993,19.29
837416,0.061000,0.799344,0.031232,-364.489990,-74.129997,298.970001,19.28
837427,-0.065392,0.799344,-0.005856,-371.070007,-80.639999,282.660004,19.28
837438,0.007808,0.577792,-0.007808,-385.000000,-89.389999,280.420013,19.34
837450,0.042456,0.297680,0.049288,-384.230011,-102.970001,275.799988,19.30
837461,0.098576,0.150304,0.077592,-373.660004,-112.629997,278.950012,19.30
837473,0.122976,0.040016,0.048800,-360.640015,-122.709999,275.519989,19.30
837484,0.122488,0.012200,-0.051728,-346.220001,-133.490005,265.440002,19.30
837495,0.153720,-0.096624,-0.146888,-331.029999,-140.839996,257.040009,19.32
837506,0.147864,-0.172752,-0.289872,-316.679993,-144.759995,243.669998,19.31
837518,0.171776,-0.319640,-0.337696,-295.049988,-145.949997,232.470001,19.31
837529,0.165432,-0.512888,-0.366976,-265.790009,-144.199997,225.050003,19.29
837541,0.240096,-0.756400,-0.333304,-229.949997,-137.410004,212.029999,19.29
837552,0.316712,-0.914512,-0.338672,-197.750000,-125.510002,205.449997,19.30
837564,0.299144,-1.055056,-0.387960,-172.690002,-119.349998,191.029999,19.27
837576,0.328912,-1.183400,-0.498736,-163.940002,-113.889999,173.809998,19.27
837587,0.415776,-1.518656,-0.562664,-145.880005,-105.419998,147.070007,19.28
837599,0.554856,-1.749968,-0.626104,-134.259995,-80.010002,121.029999,19.28
837610,0.491904,-1.927600,-0.646112,-119.980003,-74.129997,88.059998,19.28
837622,0.618784,-2.033008,-0.642696,-107.589996,-59.639999,52.360001,19.29
837633,0.659288,-2.043256,-0.629032,-90.860001,-35.560001,12.320000,19.29
837645,0.600728,-1.958344,-0.611464,-70.489998,-13.510000,-27.370001,19.28
837657,0.631472,-1.870016,-0.560224,-44.730000,12.320000,-65.099998,19.30
837669,0.648552,-1.884168,-0.499224,-3.360000,35.630001,-101.500000,19.30
837680,0.651480,-1.762656,-0.466040,47.740002,60.200001,-133.770004,19.25
837692,0.565592,-1.558672,-0.413336,95.970001,63.910000,-150.500000,19.27
837703,0.559248,-1.337608,-0.344040,133.070007,72.519997,-176.960007,19.27
837715,0.614880,-1.234152,-0.327936,164.570007,78.470001,-182.839996,19.30
837727,0.574864,-1.257576,-0.305000,196.630005,82.459999,-199.710007,19.30
837738,0.550464,-1.152656,-0.284016,211.750000,81.410004,-211.679993,19.30
837749,0.529480,-0.948672,-0.196176,211.050003,80.500000,-224.000000,19.25
837761,0.494344,-0.833504,-0.124928,207.619995,81.760002,-235.410004,19.25
837772,0.454328,-0.729072,-0.077592,210.979996,82.809998,-246.119995,19.30
837784,0.448960,-0.705648,-0.082472,228.410004,81.830002,-254.029999,19.30
837795,0.430904,-0.675392,-0.090280,266.980011,84.559998,-267.049988,19.27
837807,0.395768,-0.525088,-0.241560,302.890015,88.620003,-276.920013,19.22
837818,0.336232,-0.435784,-0.360144,336.910004,86.800003,-288.049988,19.22
837829,0.293776,-0.399184,-0.480680,379.540009,79.800003,-298.200012,19.30
837840,0.261080,-0.317200,-0.511424,396.899994,75.250000,-310.239990,19.30
837852,0.272304,-0.173240,-0.455304,414.329987,97.019997,-328.790009,19.31
837863,-0.298656,-0.276696,-0.599752,516.950012,39.060001,-344.609985,19.30
837875,0.327936,0.257664,-0.604144,631.400024,121.940002,-355.670013,19.30
837886,-1.052128,0.163968,-0.858392,778.609985,6.440000,-356.089996,19.28
837898,-0.558272,0.408944,-0.526552,878.849976,-5.460000,-438.059998,19.29
837909,-1.024800,0.480680,-0.239120,924.000000,-54.599998,-489.160004,19.29
837921,-0.998448,0.491904,-0.386984,893.690002,-57.259998,-512.960022,19.28
837933,-1.084336,1.089704,-0.836920,606.969971,-82.320000,-460.109985,19.28
837944,-1.523048,2.159888,-1.378600,199.009995,-186.899994,-446.250000,19.30
837956,-1.190232,2.361920,-1.877336,-259.420013,-201.880005,-426.440002,19.25
837968,-1.094096,1.981280,-2.218448,-546.210022,-124.879997,-317.589996,19.25
837980,-1.782664,0.722240,-1.699216,-462.980011,-92.120003,-355.109985,19.30
837991,-1.698240,0.956968,-0.716384,-136.990005,-62.439999,-287.279999,19.26
838003,-1.357128,2.803560,0.072712,-11.620000,-13.650000,-252.210007,19.26
838014,-1.057984,3.175904,0.539728,-120.400002,-16.240000,-203.279999,19.31
838026,-1.042368,2.318488,0.662704,-173.179993,-34.230000,-144.759995,19.31
838037,-0.875472,1.994944,0.571936,-105.769997,-23.730000,-64.610001,19.29
838049,-0.764696,2.013000,0.414312,-59.080002,-9.170000,-33.810001,19.27
838060,-0.737856,1.989576,0.419680,-39.619999,-11.200000,-13.650000,19.27
838073,-0.674904,1.867576,0.489464,-16.590000,-13.160000,9.170000,19.31
838084,-0.659288,1.765584,0.535824,16.520000,-7.420000,32.689999,19.25
838096,-0.659776,1.797792,0.546560,33.250000,-3.220000,48.369999,19.25
838107,-0.724680,1.756800,0.493368,32.549999,1.820000,66.709999,19.31
838118,-0.689056,1.727032,0.408944,17.990000,2.870000,83.160004,19.31
838130,-0.637328,1.781200,0.394304,1.540000,6.160000,95.129997,19.30
838141,-0.582184,1.591856,0.331840,2.240000,7.210000,108.220001,19.29
838152,-0.419680,1.518656,0.234728,4.130000,13.720000,129.990005,19.29
838164,-0.552904,1.566480,0.169336,3.150000,7.070000,131.179993,19.30
838176,-0.401624,1.661640,0.100528,-19.670000,1.400000,140.979996,19.30
838187,-0.426024,1.581608,0.002928,-53.549999,-0.770000,157.149994,19.28
838198,-0.424560,1.592344,-0.006344,-91.000000,-11.620000,164.360001,19.25
838210,-0.407968,1.477176,-0.027328,-106.260002,-23.730000,171.850006,19.25
838221,-0.291336,1.373720,-0.052216,-100.379997,-12.740000,185.220001,19.30
838233,-0.370880,1.436184,-0.077592,-96.949997,-10.360000,191.169998,19.31
838246,-0.258152,1.390800,-0.124440,-105.209999,-14.420000,203.630005,19.31
838257,-0.213744,1.241472,-0.141520,-124.739998,-3.150000,215.600006,19.28
838269,-0.290848,1.312232,-0.081008,-146.649994,-9.800000,228.059998,19.28
838281,-0.206424,1.415200,0.016592,-184.309998,-16.870001,238.070007,19.29
838292,-0.148352,1.336632,0.011712,-220.919998,-23.870001,243.320007,19.24
838304,-0.103944,1.223416,-0.073688,-240.869995,-29.469999,249.899994,19.24
838316,-0.092232,1.216096,-0.100528,-268.100006,-38.500000,258.510010,19.22
838328,0.151280,1.042856,-0.065880,-286.510010,-19.670000,309.260010,19.24
838339,-0.136640,0.824720,-0.018056,-298.619995,-40.389999,274.190002,19.24
838350,0.038552,0.875472,0.115168,-304.920013,-54.180000,290.359985,19.28
838362,0.068320,0.986248,0.204960,-315.209991,-64.330002,321.510010,19.28
838373,0.174216,1.024312,0.161528,-320.459991,-75.250000,328.089996,19.27
838384,0.066856,0.967216,0.160064,-329.420013,-78.470001,312.970001,19.26
838396,0.124928,0.711504,0.125904,-335.859985,-84.209999,317.100006,19.26
838407,0.166896,0.353800,0.057584,-325.640015,-82.040001,313.459991,19.30
838420,0.137616,0.285480,0.008296,-306.950012,-91.489998,303.519989,19.31
838431,0.077104,0.232776,-0.040992,-292.320007,-100.169998,304.779999,19.31
838442,0.108824,0.055144,-0.116144,-280.000000,-112.699997,296.799988,19.29
838454,0.181048,-0.162016,-0.161528,-263.480011,-112.910004,284.059998,19.29
838465,0.209352,-0.328424,-0.223504,-248.220001,-110.040001,273.980011,19.25
838477,0.173728,-0.492392,-0.255712,-226.240005,-113.190002,262.079987,19.29
838489,0.208864,-0.594384,-0.311832,-205.660004,-113.470001,251.509995,19.29
838500,0.234728,-0.765672,-0.335744,-188.720001,-113.260002,237.649994,19.27
838513,0.268888,-0.991616,-0.305488,-168.419998,-108.989998,222.460007,19.27
838524,0.329888,-1.194136,-0.311344,-155.889999,-104.580002,200.899994,19.31
838536,0.367464,-1.460096,-0.324520,-152.949997,-93.099998,174.229996,19.27
838548,0.382104,-1.748504,-0.370880,-154.070007,-90.370003,147.070007,19.27
838560,0.504104,-1.947608,-0.421632,-158.550003,-82.250000,113.330002,19.25
838571,0.551928,-2.146224,-0.510936,-151.619995,-70.139999,79.169998,19.28
838583,0.505568,-2.227720,-0.567056,-126.980003,-70.980003,38.500000,19.28
838594,0.598776,-2.274080,-0.645136,-91.209999,-49.910000,-9.450000,19.29
838606,0.623176,-2.181360,-0.694912,-54.599998,-20.650000,-56.840000,19.23
838618,0.653920,-2.067656,-0.679784,-3.080000,5.250000,-97.860001,19.23
838629,0.645624,-1.970544,-0.655384,61.459999,30.379999,-136.570007,19.28
838641,0.614880,-1.723616,-0.625128,118.440002,55.230000,-177.240005,19.28
838652,0.570472,-1.618696,-0.594384,174.649994,61.599998,-190.889999,19.30
838664,0.518256,-1.380552,-0.548512,187.039993,66.500000,-208.250000,19.27
838675,0.539240,-1.157536,-0.488000,204.679993,74.129997,-227.850006,19.27
838687,0.516304,-1.142896,-0.481656,228.690002,81.199997,-240.520004,19.25
838698,0.490928,-0.949160,-0.458720,253.470001,106.959999,-256.549988,19.25
838710,0.421632,-0.897920,-0.434320,272.230011,94.849998,-277.970001,19.29
838722,0.331840,-0.723704,-0.465064,280.489990,98.839996,-306.179993,19.29
838734,0.320616,-0.632936,-0.558760,308.910004,109.410004,-307.160004,19.29
838745,0.280600,-0.585112,-0.629520,364.630005,116.199997,-319.899994,19.27
838757,0.195200,-0.428952,-0.674416,432.179993,116.690002,-339.920013,19.29
838768,0.110288,-0.251320,-0.596824,515.130005,131.949997,-363.859985,19.29
838779,-0.135176,-0.263520,-0.569008,618.520020,127.190002,-393.399994,19.27
838791,-0.320128,0.033184,-0.511424,717.219971,101.220001,-408.380005,19.27
838803,-0.692960,0.331352,-0.488488,815.010010,73.080002,-441.839996,19.27
838815,-0.567544,-0.025864,-0.184464,925.679993,30.520000,-497.839996,19.24
838826,-0.319640,-0.712968,-0.508496,985.599976,48.369999,-421.399994,19.24
838838,-1.842688,-0.564128,-0.890112,1005.900024,-58.450001,-488.529999,19.27
838849,-1.389336,1.639680,-1.171200,665.419983,-147.699997,-437.359985,19.29
838861,-1.648464,2.387296,-1.170712,146.649994,-237.229996,-437.850006,19.29
838873,-1.625040,2.488312,-1.959320,-269.850006,-188.789993,-394.940002,19.25
838885,-1.578680,2.307752,-2.386808,-447.720001,-118.650002,-321.440002,19.25
838897,-1.657736,1.550864,-1.717272,-336.070007,-100.940002,-304.779999,19.27
838909,-1.252696,1.809992,-0.822768,-17.219999,-30.590000,-257.459991,19.29
838921,-1.267336,2.744024,-0.297680,54.250000,-22.190001,-202.369995,19.29
838933,-0.702232,2.850896,-0.010248,-20.580000,-15.050000,-131.039993,19.24
838946,-0.690032,2.960696,0.069296,-85.540001,4.480000,-36.959999,19.25
838957,-0.751520,2.605920,0.113704,-89.949997,3.290000,22.750000,19.25
838969,-0.685640,2.221376,0.141520,-49.000000,-7.420000,35.000000,19.28
838980,-0.488488,2.048136,0.115656,-15.750000,13.790000,47.180000,19.27
838992,-0.558760,1.974936,0.061000,-8.260000,17.990000,63.630001,19.27
839003,-0.553880,1.893928,0.063928,-17.570000,24.360001,71.190002,19.29
839014,-0.528016,1.789008,0.104920,-16.590000,24.430000,83.720001,19.29
839026,-0.491416,1.719224,0.159576,-14.000000,22.889999,101.010002,19.26
839038,-0.470920,1.699704,0.143960,-26.040001,12.810000,105.419998,19.23
839049,-0.415776,1.671888,0.124440,-68.599998,5.320000,112.139999,19.23
839060,-0.449448,1.637240,0.033672,-81.830002,-7.910000,121.169998,19.26
839072,-0.422608,1.445944,-0.122488,-95.339996,-18.549999,129.080002,19.26
839083,-0.178608,1.353224,-0.177144,-100.449997,-6.020000,142.100006,19.26
839095,-0.259128,1.308816,-0.188856,-81.480003,-6.090000,157.080002,19.28
839107,-0.184464,1.444480,-0.094184,-53.619999,-1.540000,166.039993,19.28
839118,-0.134688,1.604544,-0.139080,-49.700001,3.710000,182.979996,19.29
839130,-0.192272,1.664080,-0.203496,-74.410004,1.470000,190.889999,19.26
839141,-0.150304,1.620648,-0.218136,-114.870003,-2.030000,200.199997,19.26
839152,-0.099064,1.529880,-0.218136,-166.809998,-3.500000,211.259995,19.26
839164,-0.061488,1.431792,-0.220088,-205.660004,-3.780000,223.580002,19.26
839175,-0.095160,1.412272,-0.201056,-241.080002,-5.390000,236.809998,19.29
839187,-0.129808,1.399584,-0.105896,-267.750000,-6.720000,246.960007,19.28
839199,-0.152256,1.271240,-0.064904,-289.029999,-8.680000,250.740005,19.28
839210,-0.127856,1.204384,-0.062464,-316.679993,-13.440000,255.220001,19.27
839222,0.050264,1.077504,-0.108336,-329.070007,-26.809999,307.089996,19.24
839234,-0.040504,0.832528,-0.045384,-339.989990,-21.070000,292.320007,19.24
839245,0.061976,0.707600,0.062952,-346.640015,-27.440001,276.290009,19.25
839256,0.170800,0.701256,0.083448,-354.480011,-27.790001,282.309998,19.25
839267,0.183976,0.621712,0.118096,-359.730011,-28.559999,291.619995,19.27
839278,0.091744,0.648552,0.034648,-378.140015,-41.860001,279.440002,19.23
839290,0.146888,0.514840,0.068808,-385.980011,-54.040001,279.649994,19.23
839302,0.085400,0.306952,0.024400,-380.519989,-63.419998,281.890015,19.23
839313,0.115656,0.126392,-0.002928,-377.859985,-82.459999,287.839996,19.23
839325,0.146400,-0.033672,-0.125416,-364.559998,-96.180000,270.410004,19.30
839336,0.195200,-0.160064,-0.238144,-340.690002,-109.970001,266.980011,19.28
839348,0.203984,-0.107848,-0.282552,-321.299988,-111.580002,263.130005,19.28
839360,0.139080,-0.119560,-0.342576,-304.920013,-118.720001,251.089996,19.27
839372,0.255712,-0.352824,-0.343552,-281.260010,-115.500000,238.000000,19.29
839383,0.278160,-0.705160,-0.332328,-232.679993,-106.050003,225.610001,19.29
839395,0.268888,-0.830088,-0.360144,-183.750000,-104.860001,210.979996,19.24
839406,0.364048,-0.925736,-0.391864,-153.300003,-95.059998,193.479996,19.24
839418,0.456280,-1.122888,-0.456280,-133.490005,-79.730003,176.539993,19.25
839430,0.404064,-1.410808,-0.482144,-112.279999,-79.870003,151.339996,19.30
839442,0.478240,-1.670424,-0.450424,-99.820000,-74.339996,127.680000,19.30
839453,0.558760,-1.866112,-0.440664,-94.709999,-56.419998,103.879997,19.24
839465,0.480192,-2.014952,-0.432368,-80.150002,-54.459999,67.199997,19.21
839477,0.533384,-2.079368,-0.397720,-67.970001,-45.290001,17.080000,19.21
839488,0.586088,-2.091568,-0.323056,-61.810001,-29.610001,-16.660000,19.28
839500,0.586088,-2.104256,-0.258640,-46.549999,-11.830000,-62.439999,19.28
839512,0.603168,-2.015928,-0.290848,-25.690001,7.490000,-102.550003,19.30
839523,0.629032,-1.874408,-0.351360,-0.910000,30.590000,-142.800003,19.25
839535,0.577304,-1.736792,-0.415288,29.820000,35.770000,-163.729996,19.25
839547,0.648552,-1.569896,-0.434320,62.369999,37.520000,-180.600006,19.25
839558,0.677344,-1.456192,-0.513376,94.779999,48.509998,-199.289993,19.26
839570,0.663192,-1.396656,-0.558272,135.520004,56.209999,-216.509995,19.26
839581,0.663192,-1.377136,-0.588528,181.789993,66.010002,-238.000000,19.23
839593,0.618784,-1.252696,-0.575840,228.550003,76.370003,-253.399994,19.23
839605,0.533872,-1.043344,-0.515328,266.070007,78.330002,-285.250000,19.26
839616,0.490928,-0.894504,-0.476776,296.940002,88.690002,-286.790009,19.24
839628,0.364536,-0.652944,-0.481168,319.690002,93.800003,-301.910004,19.24
839639,0.251320,-0.476776,-0.496296,354.970001,91.209999,-320.529999,19.28
839650,0.226920,-0.522648,-0.710528,417.760010,91.349998,-331.730011,19.28
839662,0.146888,-0.284992,-0.924760,504.350006,85.889999,-342.019989,19.27
839673,0.100528,-0.252296,-0.978928,583.729980,74.269997,-355.670013,19.25
839684,0.063928,-0.174704,-0.853024,649.390015,64.680000,-370.649994,19.25
839696,-0.106384,0.074176,-0.581696,704.270020,74.129997,-412.160004,19.26
839708,-1.193160,0.115168,-0.472384,791.000000,-23.730000,-434.279999,19.21
839720,-0.095648,0.409920,-0.344528,798.349976,68.949997,-425.390015,19.21
839731,-1.337608,0.114680,-0.344528,845.880005,-28.280001,-497.350006,19.28
839743,-0.967704,-0.244000,-0.821304,843.359985,-88.129997,-528.080017,19.28
839755,-1.209752,1.187792,-1.466440,630.349976,-147.630005,-442.119995,19.23
839767,-1.177544,2.452200,-1.677256,248.639999,-195.789993,-475.440002,19.26
839778,-1.703120,1.959320,-2.306288,-223.300003,-156.729996,-457.869995,19.26
839790,-2.116456,1.850008,-2.689856,-370.720001,-91.769997,-376.600006,19.26
839801,-1.931016,1.921256,-2.036912,-277.760010,-57.330002,-283.640015,19.25
839813,-1.536712,2.764520,-0.920368,-152.039993,-20.790001,-268.309998,19.25
839825,-1.203408,2.792824,-0.222528,-114.449997,12.740000,-223.229996,19.28
839836,-0.706624,2.562488,0.176656,-135.520004,43.680000,-155.679993,19.28
839848,-0.740296,2.459032,0.305976,-137.199997,41.509998,-72.449997,19.25
839859,-0.610488,2.390712,0.449936,-131.669998,32.549999,-27.860001,19.18
839871,-0.472384,2.084736,0.528016,-122.639999,16.940001,-7.280000,19.18
839882,-0.397232,1.753872,0.515816,-80.430000,13.370000,13.440000,19.24
839896,-0.440664,1.689944,0.600240,-27.160000,6.300000,29.400000,19.27
839908,-0.481168,1.627968,0.616832,8.190000,4.620000,44.869999,19.27
839919,-0.520696,1.742648,0.579744,22.120001,0.350000,61.250000,19.23
839930,-0.560712,1.757288,0.552904,17.500000,-5.530000,75.250000,19.23
839942,-0.558272,1.624552,0.472872,14.980000,-10.640000,84.699997,19.30
839954,-0.484096,1.518656,0.331840,13.580000,-12.040000,94.220001,19.28
839965,-0.454816,1.504016,0.105896,12.740000,-10.220000,102.830002,19.28
839977,-0.428952,1.536224,-0.121512,-4.970000,-8.260000,117.250000,19.23
839988,-0.422120,1.621624,-0.125904,-42.349998,-8.050000,127.330002,19.29
840000,-0.346968,1.641144,-0.123464,-79.169998,-4.480000,141.750000,19.29
840011,-0.416752,1.630896,-0.197640,-105.489998,-6.300000,147.559998,19.20
840023,-0.394304,1.399096,-0.196664,-119.139999,-7.280000,153.509995,19.20
840034,-0.378688,1.269776,-0.260592,-98.980003,0.350000,167.300003,19.33
840046,-0.402600,1.387384,-0.328912,-81.410004,6.860000,180.250000,19.23
840057,-0.346968,1.534760,-0.372344,-96.180000,6.090000,195.300003,19.23
840069,-0.213744,1.538664,-0.321104,-137.270004,8.750000,208.460007,19.23
840080,-0.188368,1.646024,-0.232288,-184.100006,9.100000,220.500000,19.25
840092,-0.188368,1.668960,-0.193736,-245.979996,10.080000,232.889999,19.25
840103,-0.202520,1.532320,-0.122976,-309.820007,3.290000,240.520004,19.24
840115,-0.190808,1.295640,-0.057584,-344.540009,-6.020000,245.490005,19.24
840126,-0.136152,0.937448,0.033672,-347.269989,-1.680000,290.850006,19.23
840138,-0.234240,0.985272,-0.083936,-350.000000,-27.440001,261.940002,19.23
840150,0.013176,0.988200,-0.026352,-349.299988,-42.840000,273.140015,19.23
840162,0.122488,0.839360,0.003416,-356.369995,-41.860001,285.109985,19.22
840173,0.111752,0.741272,0.038552,-357.140015,-46.689999,297.290009,19.22
840184,0.164456,0.619760,0.101504,-343.000000,-53.759998,290.220001,19.22
840196,0.134688,0.573400,0.089792,-337.609985,-59.919998,281.470001,19.25
840208,0.162992,0.363072,0.122488,-330.190002,-68.110001,275.100006,19.25
840219,0.156648,0.236680,0.100528,-326.480011,-78.610001,267.329987,19.26
840230,0.192272,0.221552,0.051240,-324.589996,-94.919998,264.179993,19.26
840242,0.230336,0.213744,-0.095160,-338.730011,-102.550003,263.200012,19.26
840253,0.249368,0.064416,-0.162992,-343.209991,-108.150002,256.130005,19.24
840264,0.203496,-0.052216,-0.166896,-338.799988,-112.209999,244.369995,19.24
840275,0.107360,-0.214720,-0.125904,-322.910004,-114.449997,233.869995,19.23
840287,0.098088,-0.365512,-0.142496,-292.670013,-122.290001,227.500000,19.23
840298,0.143472,-0.527528,-0.132248,-253.750000,-131.809998,223.229996,19.23
840310,0.272792,-0.648064,-0.148352,-208.320007,-130.550003,221.410004,19.29
840322,0.352824,-0.681248,-0.268400,-171.639999,-126.910004,215.389999,19.29
840334,0.428464,-0.833504,-0.367952,-137.479996,-110.669998,204.190002,19.24
840345,0.370880,-1.010160,-0.489952,-113.540001,-104.019997,189.490005,19.28
840357,0.449448,-1.231224,-0.518744,-107.660004,-91.279999,172.619995,19.28
840369,0.457744,-1.551840,-0.564616,-109.480003,-79.169998,152.600006,19.21
840381,0.522648,-1.928576,-0.640256,-106.400002,-75.739998,126.070000,19.24
840393,0.522160,-2.216008,-0.711992,-102.760002,-80.010002,89.949997,19.24
840404,0.592432,-2.335080,-0.711016,-100.099998,-62.650002,46.130001,19.21
840416,0.551928,-2.376560,-0.699304,-85.540001,-38.220001,-10.080000,19.23
840428,0.561688,-2.300920,-0.603656,-52.500000,-7.210000,-62.509998,19.23
840440,0.546072,-2.132560,-0.535824,1.120000,18.969999,-116.760002,19.25
840451,0.533872,-1.880264,-0.502152,57.540001,40.669998,-144.059998,19.25
840463,0.559736,-1.623088,-0.497760,112.349998,59.220001,-170.309998,19.25
840474,0.538752,-1.545984,-0.507032,179.619995,74.900002,-206.149994,19.20
840486,0.552416,-1.575264,-0.539728,235.970001,77.629997,-207.410004,19.20
840498,0.448960,-1.222440,-0.589992,250.389999,74.620003,-216.720001,19.27
840509,0.459208,-1.023336,-0.567056,255.710007,71.050003,-237.300003,19.27
840521,0.472384,-0.934032,-0.583160,272.299988,77.209999,-269.989990,19.19
840533,0.461648,-0.873520,-0.588040,299.459991,83.089996,-264.320007,19.26
840544,0.442128,-0.891576,-0.644648,350.140015,83.160004,-286.089996,19.26
840556,0.480192,-0.850584,-0.635376,418.600006,93.730003,-294.700012,19.24
840568,0.427488,-0.701744,-0.620736,485.519989,100.519997,-303.380005,19.27
840579,0.266448,-0.636352,-0.613416,563.849976,98.910004,-324.380005,19.27
840591,0.086864,-0.519232,-0.566568,608.020020,87.080002,-347.760010,19.29
840602,-0.003904,-0.452864,-0.597312,630.559998,65.589996,-372.890015,19.29
840614,-0.081008,-0.313296,-0.586088,655.969971,72.870003,-411.670013,19.20
840626,-0.960384,-0.209840,-0.733464,727.580017,-41.509998,-422.380005,19.26
840638,0.323056,0.226920,-0.647576,719.809998,95.830002,-449.679993,19.26
840649,-2.155984,-0.188856,-0.889136,814.309998,-92.540001,-424.269989,19.30
840661,-1.011624,0.566568,-0.708088,805.559998,-96.459999,-495.600006,19.18
840673,-1.482544,1.243912,-0.902312,664.510010,-155.399994,-447.299988,19.18
840685,-1.500600,2.175016,-1.354200,357.769989,-216.860001,-452.549988,19.23
840697,-1.320528,1.958832,-1.557696,33.599998,-224.630005,-454.929993,19.23
840708,-1.598688,1.868064,-2.189656,-204.330002,-161.070007,-411.040009,19.23
840720,-1.738256,2.269200,-2.159400,-340.059998,-111.370003,-324.519989,19.23
840732,-1.671888,1.866112,-1.464976,-284.970001,-105.910004,-267.399994,19.23
840743,-1.145824,1.809504,-0.915000,-121.870003,-32.619999,-244.929993,19.24
840755,-1.226344,2.805024,-0.556808,-35.840000,2.100000,-186.130005,19.21
840766,-1.021384,3.027552,-0.280112,-77.559998,15.190000,-135.029999,19.21
840778,-0.913536,2.499536,-0.054656,-95.760002,29.889999,-56.840000,19.22
840790,-0.867664,2.155008,0.107360,-67.690002,43.820000,-12.390000,19.22
840801,-0.831064,2.185752,0.142008,-46.410000,48.650002,24.570000,19.22
840813,-0.707600,2.244800,0.114192,-58.869999,50.540001,46.830002,19.24
840825,-0.697840,2.093520,0.139080,-80.570000,45.150002,64.610001,19.24
840837,-0.644648,1.810968,0.165920,-81.339996,42.630001,83.370003,19.20
840848,-0.619760,1.670424,0.241072,-52.639999,41.230000,98.139999,19.18
840860,-0.595360,1.630896,0.347944,-24.360001,36.400002,107.940002,19.18
840871,-0.532896,1.530856,0.439688,-12.950000,29.049999,114.449997,19.29
840883,-0.480680,1.493280,0.455304,-24.010000,15.400000,125.089996,19.22
840894,-0.444080,1.507920,0.421632,-58.730000,0.700000,128.589996,19.22
840906,-0.337696,1.559648,0.319640,-106.050003,-10.710000,136.639999,19.21
840917,-0.364536,1.641144,0.196176,-148.610001,-26.040001,149.380005,19.21
840929,-0.187392,1.626992,0.009760,-177.449997,-40.040001,186.619995,19.25
840941,-0.372832,1.528904,0.108336,-194.039993,-35.630001,166.320007,19.22
840953,-0.239608,1.456192,0.156160,-186.410004,-41.509998,174.789993,19.22
840964,-0.270352,1.300032,0.079544,-168.000000,-41.090000,189.210007,19.22
840976,-0.280112,1.409832,0.010248,-149.380005,-45.500000,205.380005,19.22
