timestamp_ms,ax,ay,az,gx,gy,gz,tempC
169966,0.841312,0.284504,-0.010736,213.500000,-94.989998,24.639999,20.29
169978,0.802272,0.519232,-0.030744,173.880005,-88.129997,34.160000,20.29
169990,0.798368,0.585112,0.000000,82.389999,-83.720001,40.740002,20.27
170004,0.786168,0.678320,-0.029280,-46.200001,-68.250000,46.480000,20.26
170016,0.764208,0.529968,-0.073200,-142.169998,-59.290001,48.090000,20.26
170027,0.757376,0.455304,-0.149328,-202.020004,-49.700001,54.389999,20.30
170038,0.772992,0.558760,-0.182024,-275.799988,-32.900002,81.970001,20.30
170049,0.824232,0.427000,-0.234240,-343.910004,-33.040001,72.589996,20.29
170060,0.906704,0.435296,-0.236680,-390.880005,-14.910000,78.820000,20.29
170071,0.890600,0.355752,-0.125416,-413.769989,-3.710000,87.220001,20.29
170082,0.847168,0.337696,0.093696,-418.880005,-0.560000,98.209999,20.30
170093,0.849120,0.347456,0.146888,-419.440002,3.780000,102.129997,20.30
170103,0.996984,0.270352,0.207888,-409.570007,4.830000,102.970001,20.29
170114,0.903776,0.067344,0.251808,-368.970001,8.120000,100.449997,20.29
170126,0.896456,-0.032208,0.300120,-317.730011,9.170000,97.510002,20.29
170137,0.874496,-0.101992,0.327936,-269.640015,8.680000,92.050003,20.29
170148,0.853024,-0.227896,0.307440,-230.860001,6.510000,80.709999,20.29
170159,0.879864,-0.423096,0.317200,-172.130005,10.710000,66.779999,20.27
170169,0.857904,-0.534360,0.319152,-111.790001,11.550000,48.930000,20.27
170180,0.866200,-0.575840,0.331840,-70.000000,11.550000,27.580000,20.31
170191,0.869616,-0.594872,0.357704,-24.850000,10.290000,8.820000,20.26
170202,0.848144,-0.589016,0.397232,17.150000,5.530000,-6.790000,20.26
170213,0.884744,-0.528504,0.392352,46.619999,3.220000,-27.020000,20.28
170224,0.884256,-0.394304,0.459208,77.629997,0.770000,-43.400002,20.28
170235,0.881328,-0.218624,0.463112,92.610001,-1.820000,-52.779999,20.25
170246,0.884256,-0.137616,0.471896,108.639999,-3.430000,-63.209999,20.25
170257,0.921344,-0.182024,0.503128,137.410004,-4.550000,-74.970001,20.25
170268,0.917440,-0.131760,0.502152,181.089996,-6.090000,-84.839996,20.28
170279,0.933056,-0.042944,0.473848,225.190002,-6.790000,-88.830002,20.28
170290,0.923296,0.124440,0.453352,248.570007,-6.860000,-83.510002,20.31
170301,0.913536,0.168360,0.375760,254.589996,-5.740000,-74.550003,20.25
170312,0.914512,0.091256,0.339648,260.049988,-3.780000,-70.629997,20.25
170323,0.827648,0.197640,0.348432,244.300003,-6.160000,-59.290001,20.29
170334,0.763720,0.516792,0.305488,185.080002,-13.160000,-40.740002,20.29
170345,0.789096,0.483120,0.261568,108.709999,-13.720000,-28.840000,20.28
170356,0.773480,0.466040,0.241560,48.230000,-9.590000,-13.860000,20.28
170367,0.768600,0.612440,0.175680,-9.100000,-6.510000,2.450000,20.30
170378,0.812520,0.574864,0.153720,-74.970001,-3.430000,15.470000,20.31
170389,0.855952,0.599752,0.122000,-137.550003,-3.920000,28.420000,20.31
170400,0.779336,0.445544,0.138104,-172.270004,-7.840000,38.639999,20.29
170411,0.927200,0.381128,0.261080,-206.779999,8.820000,56.980000,20.29
170421,0.904264,0.298656,0.338672,-224.770004,10.150000,63.419998,20.27
170432,0.903288,0.223504,0.457744,-231.350006,4.270000,69.720001,20.27
170443,0.896944,0.171288,0.541680,-235.619995,-8.050000,75.110001,20.27
170454,0.973560,0.227408,0.522160,-248.289993,-10.150000,81.129997,20.29
170465,0.992592,0.040016,0.497760,-246.330002,-9.660000,79.800003,20.29
170476,1.005280,-0.108824,0.496296,-226.589996,-4.480000,75.040001,20.34
170487,0.920856,-0.165920,0.458720,-196.559998,-7.560000,70.559998,20.34
170498,0.917928,-0.190808,0.386496,-170.169998,-8.190000,57.680000,20.29
170509,0.936960,-0.299632,0.294752,-130.970001,-1.610000,42.980000,20.35
170520,0.898896,-0.517280,0.242536,-71.400002,2.240000,27.580000,20.35
170531,0.883280,-0.557296,0.219600,-10.710000,0.910000,8.330000,20.28
170542,0.885232,-0.526064,0.207888,30.590000,0.210000,-11.690000,20.28
170552,0.898896,-0.460672,0.237656,74.410004,1.330000,-25.480000,20.30
170563,0.906216,-0.375760,0.299632,100.239998,4.060000,-40.389999,20.29
170574,0.881816,-0.267912,0.366488,129.220001,2.940000,-56.560001,20.29
170585,0.890112,-0.239608,0.425536,167.509995,0.210000,-68.250000,20.28
170596,0.901336,-0.145424,0.449448,211.960007,-0.280000,-78.610001,20.28
170607,0.937936,-0.084424,0.457256,248.149994,-0.630000,-85.260002,20.29
170618,0.975024,-0.039528,0.428464,293.369995,0.700000,-91.419998,20.29
170629,0.975512,0.034648,0.434320,328.859985,2.240000,-90.860001,20.29
170640,0.929152,0.051240,0.426024,339.779999,5.740000,-81.970001,20.30
170651,0.888160,0.075640,0.466040,332.149994,5.040000,-71.889999,20.30
170662,0.820816,0.195688,0.467016,285.179993,0.770000,-63.490002,20.31
170675,0.755424,0.497272,0.433832,176.399994,-3.780000,-37.730000,20.31
170687,0.755424,0.493856,0.271328,63.910000,-10.150000,-20.090000,20.31
170698,0.766648,0.506056,0.133712,-21.700001,-7.350000,-3.710000,20.28
170709,0.876936,0.610488,0.127368,-96.669998,17.150000,22.049999,20.28
170720,0.868152,0.617320,0.101992,-159.389999,-4.620000,26.600000,20.31
170731,0.911096,0.452864,0.183488,-198.100006,6.930000,38.430000,20.32
170742,0.914024,0.345016,0.298168,-222.529999,14.630000,50.750000,20.32
170753,0.931592,0.321592,0.420168,-241.149994,15.960000,57.750000,20.28
170763,0.890112,0.322568,0.531920,-251.929993,2.450000,68.879997,20.28
170774,0.926712,0.258640,0.565104,-260.329987,-6.720000,76.440002,20.32
170785,0.991616,0.197152,0.567056,-256.619995,-6.650000,79.870003,20.32
170796,1.017480,0.221552,0.502152,-247.940002,-4.690000,82.110001,20.33
170807,0.964288,0.136152,0.429440,-227.500000,-4.480000,79.940002,20.32
170819,0.950624,-0.001952,0.367952,-205.169998,-3.220000,72.309998,20.32
170830,0.964288,-0.194712,0.326960,-168.350006,3.640000,62.509998,20.30
170842,0.910120,-0.411384,0.311344,-112.489998,5.390000,50.259998,20.30
170852,0.887184,-0.504592,0.311832,-65.379997,2.450000,35.700001,20.30
170863,0.888160,-0.557784,0.293776,-10.010000,1.330000,17.360001,20.31
170875,0.899384,-0.476288,0.293776,37.029999,1.610000,-0.350000,20.31
170886,0.903288,-0.450424,0.301584,77.699997,1.050000,-13.650000,20.34
170897,0.914024,-0.373808,0.332328,112.000000,3.080000,-29.540001,20.34
170908,0.893040,-0.280600,0.397720,138.809998,2.800000,-44.450001,20.28
170919,0.904264,-0.264496,0.467016,180.949997,3.290000,-55.299999,20.32
170930,0.904752,-0.235704,0.514840,225.539993,3.010000,-69.160004,20.32
170941,0.914512,-0.155672,0.537288,258.019989,0.630000,-77.489998,20.36
170952,0.941352,-0.077592,0.530944,288.750000,-1.540000,-82.459999,20.36
170963,0.960872,-0.002928,0.509472,303.799988,-1.470000,-82.529999,20.30
170974,0.929152,-0.041968,0.474336,305.619995,1.680000,-74.550003,20.32
170985,0.898408,-0.049776,0.542656,302.049988,-0.140000,-68.949997,20.32
170996,0.796416,0.256688,0.438224,230.860001,-7.070000,-51.730000,20.28
171007,0.787144,0.360632,0.396256,142.309998,-14.840000,-38.220001,20.28
171018,0.752008,0.467016,0.299144,70.769997,-18.549999,-21.350000,20.31
171029,0.785680,0.562664,0.204960,-10.430000,-16.520000,-8.890000,20.32
171040,0.697840,0.521184,0.090768,-68.250000,-27.299999,4.060000,20.32
171051,0.877424,0.654896,0.204960,-115.360001,-5.810000,21.280001,20.31
171062,0.920368,0.481656,0.164944,-158.550003,3.150000,31.990000,20.31
171072,0.900848,0.349408,0.253272,-180.460007,8.680000,40.810001,20.28
171083,0.844728,0.328912,0.355264,-199.570007,1.470000,51.099998,20.28
171094,0.901824,0.291336,0.453840,-207.899994,-1.120000,68.389999,20.30
171105,0.896944,0.323056,0.561200,-217.279999,-8.890000,73.709999,20.30
171116,0.958920,0.354776,0.538752,-234.710007,-12.740000,79.029999,20.30
171127,0.987224,0.230336,0.522160,-235.830002,-8.750000,88.269997,20.27
171138,0.947696,0.245464,0.513376,-234.779999,-12.110000,89.529999,20.27
171150,0.972584,0.081984,0.433832,-228.059998,-10.780000,84.209999,20.31
171161,0.948672,-0.179584,0.379664,-196.839996,-4.340000,77.910004,20.26
171172,0.914024,-0.271328,0.300120,-153.929993,-2.520000,66.919998,20.26
171184,0.896456,-0.445056,0.236680,-96.110001,-1.400000,51.099998,20.32
171196,0.896456,-0.566080,0.215696,-31.780001,0.490000,31.990000,20.32
171207,0.865224,-0.532408,0.222528,18.059999,-0.770000,10.990000,20.31
171218,0.916464,-0.577792,0.215696,71.260002,1.680000,-7.140000,20.27
171230,0.896944,-0.510448,0.284504,132.580002,5.110000,-27.580000,20.27
171242,0.882304,-0.284504,0.340136,170.449997,6.370000,-43.119999,20.32
171253,0.897432,-0.281576,0.435296,202.649994,8.120000,-58.450001,20.30
171264,0.893528,-0.312808,0.538752,251.929993,5.530000,-73.360001,20.30
171276,0.901336,-0.164944,0.577792,287.070007,3.360000,-80.849998,20.28
171287,0.934032,-0.098088,0.573400,314.019989,2.380000,-85.540001,20.28
171298,0.943792,-0.043432,0.536800,322.489990,2.170000,-86.029999,20.32
171310,0.919392,-0.005856,0.541680,317.029999,1.260000,-76.230003,20.27
171322,0.839360,0.059536,0.554368,247.940002,-4.060000,-67.129997,20.27
171333,0.804712,0.049288,0.480192,184.800003,-7.070000,-53.619999,20.35
171344,0.738832,0.137128,0.370880,111.019997,-13.300000,-35.770000,20.35
171356,0.717848,0.507032,0.219600,8.190000,-19.389999,-14.280000,20.34
171367,0.791048,0.467504,0.159576,-75.739998,-1.820000,1.120000,20.29
171379,0.859856,0.584136,0.269376,-151.550003,9.310000,32.410000,20.29
171390,0.840336,0.633424,0.237168,-221.130005,-15.680000,29.330000,20.30
171402,0.897432,0.377224,0.346968,-259.910004,1.960000,44.660000,20.29
171413,0.873520,0.389424,0.481168,-281.540009,0.770000,54.389999,20.29
171424,0.895968,0.314272,0.571936,-291.480011,-5.950000,64.120003,20.30
171436,0.965752,0.239608,0.579744,-287.980011,-12.110000,73.220001,20.30
171447,0.951112,0.245952,0.588528,-273.140015,-14.840000,78.750000,20.29
171458,0.969656,0.210328,0.501664,-259.769989,-12.600000,76.089996,20.29
171470,0.952576,-0.100528,0.400160,-221.759995,-6.020000,67.480003,20.29
171482,0.922808,-0.231312,0.299144,-163.309998,-3.710000,54.950001,20.30
171493,0.921832,-0.327936,0.202520,-103.180000,-0.980000,41.020000,20.30
171505,0.899872,-0.533384,0.175192,-36.820000,4.130000,21.980000,20.29
171516,0.883280,-0.557296,0.227896,31.219999,5.810000,1.540000,20.28
171527,0.900360,-0.457256,0.288408,80.570000,5.740000,-11.480000,20.28
171539,0.931592,-0.450424,0.353800,118.650002,9.030000,-30.520000,20.28
171550,0.920856,-0.377224,0.441640,144.410004,7.980000,-48.860001,20.28
171562,0.925248,-0.329400,0.532408,168.770004,6.160000,-63.770000,20.28
171573,0.930128,-0.371368,0.586576,197.820007,4.410000,-77.279999,20.29
171585,0.930616,-0.314760,0.553880,225.119995,4.480000,-83.160004,20.29
171596,0.936472,-0.208864,0.528992,241.850006,4.620000,-84.980003,20.28
171607,0.902312,-0.027816,0.463112,231.000000,0.350000,-78.889999,20.29
171619,0.897920,0.051240,0.428464,189.910004,-2.660000,-72.309998,20.29
171630,0.853024,0.006344,0.416264,154.070007,-4.760000,-66.360001,20.33
171641,0.789096,0.132736,0.422120,104.860001,-6.090000,-51.939999,20.33
171652,0.756888,0.340136,0.388448,54.880001,-11.760000,-36.330002,20.30
171664,0.780312,0.499224,0.334768,-16.379999,-10.920000,-17.920000,20.29
171676,0.651480,0.460672,0.226920,-75.110001,-20.299999,-1.330000,20.29
171687,0.900848,0.524600,0.305000,-126.419998,-0.840000,13.510000,20.30
171698,0.839360,0.434808,0.316712,-157.850006,-1.400000,21.770000,20.30
171710,0.890600,0.375272,0.365512,-180.740005,2.310000,34.439999,20.29
171721,0.866200,0.315248,0.412848,-194.669998,-2.800000,45.150002,20.24
171733,0.917928,0.285480,0.496296,-199.990005,-4.410000,57.259998,20.24
171744,0.923784,0.321104,0.532896,-207.130005,-8.190000,66.010002,20.29
171756,0.987712,0.255712,0.541680,-207.479996,-5.110000,74.480003,20.29
171767,0.945744,0.179584,0.474824,-192.919998,-5.250000,71.470001,20.26
171778,0.961848,0.062952,0.424560,-170.869995,-3.710000,70.349998,20.30
171789,0.954528,-0.026352,0.339160,-153.509995,1.330000,62.020000,20.30
171801,0.916464,-0.264984,0.299632,-114.449997,5.180000,53.970001,20.29
171812,0.895480,-0.410408,0.282064,-64.120003,6.230000,40.810001,20.30
171824,0.886696,-0.432856,0.283040,-20.719999,6.090000,24.639999,20.30
171835,0.875960,-0.489952,0.322568,18.270000,6.790000,11.340000,20.32
171847,0.910120,-0.415776,0.364536,43.610001,8.610000,-4.760000,20.32
171858,0.902800,-0.395768,0.424072,59.570000,8.260000,-19.110001,20.30
171870,0.905240,-0.422608,0.459208,73.989998,9.100000,-31.920000,20.27
171881,0.891088,-0.255224,0.490928,83.019997,7.980000,-42.560001,20.27
171892,0.900848,-0.266936,0.521672,93.449997,5.250000,-52.360001,20.32
171903,0.922320,-0.343552,0.505568,122.779999,3.920000,-62.299999,20.32
171915,0.931592,-0.295240,0.495320,152.600006,4.060000,-68.389999,20.29
171927,0.920368,-0.161040,0.501664,170.309998,2.800000,-68.949997,20.28
171938,0.915000,-0.022448,0.512400,168.070007,2.590000,-65.379997,20.28
171949,0.883280,0.067344,0.520208,147.070007,2.450000,-59.919998,20.28
171961,0.844240,-0.009760,0.531920,108.989998,2.660000,-53.830002,20.28
171972,0.796416,0.061976,0.576328,84.489998,-0.700000,-40.320000,20.29
171984,0.698816,0.190808,0.480192,25.690001,-14.560000,-31.709999,20.28
171995,0.818864,0.240584,0.402600,-33.599998,-6.300000,-12.110000,20.28
172006,0.804712,0.280600,0.343552,-77.489998,-6.300000,-0.420000,20.30
172018,0.845216,0.265472,0.355752,-116.199997,-5.180000,13.930000,20.31
172029,0.872056,0.238632,0.398696,-137.059998,-4.970000,22.049999,20.31
172041,0.922808,0.209840,0.434808,-147.770004,-1.680000,31.709999,20.30
172052,0.932080,0.301096,0.460672,-160.160004,0.210000,42.630001,20.30
172063,0.940864,0.214720,0.471896,-164.500000,0.490000,49.490002,20.29
172074,0.924760,0.164456,0.496296,-152.880005,0.350000,50.680000,20.32
172086,0.915488,0.150792,0.517280,-136.710007,5.320000,52.709999,20.32
172097,0.883768,0.064904,0.494344,-117.110001,7.770000,47.880001,20.31
172108,0.865224,-0.071248,0.430904,-88.059998,11.900000,39.759998,20.31
172120,0.868640,-0.162504,0.367952,-57.259998,14.630000,29.820000,20.28
172131,0.860344,-0.274256,0.318176,-24.430000,16.240000,15.960000,20.27
172143,0.857416,-0.286456,0.335744,8.190000,16.870001,0.840000,20.27
172154,0.869616,-0.222040,0.405040,27.160000,17.080000,-9.240000,20.28
172165,0.852536,-0.201544,0.497760,50.119999,16.520000,-24.780001,20.28
172177,0.860344,-0.231800,0.588040,82.459999,13.160000,-38.360001,20.27
172188,0.908656,-0.322568,0.629032,127.330002,10.850000,-50.750000,20.27
172200,0.928664,-0.367464,0.635376,180.250000,7.490000,-63.490002,20.27
172211,0.930616,-0.361608,0.621224,232.610001,6.090000,-72.309998,20.25
172223,0.917928,-0.115656,0.622688,258.929993,5.880000,-70.629997,20.29
172234,0.902312,0.007808,0.584136,247.729996,2.730000,-68.110001,20.29
172246,0.858880,0.127368,0.534848,196.490005,1.820000,-58.869999,20.27
172257,0.811544,0.067832,0.514352,144.690002,-2.870000,-50.330002,20.27
172269,0.752496,0.211304,0.504592,73.500000,-9.590000,-33.740002,20.27
172280,0.752008,0.267424,0.422120,7.630000,-12.810000,-18.690001,20.26
172291,0.783728,0.277184,0.398696,-59.990002,-10.990000,-0.770000,20.26
172303,0.809104,0.346480,0.395280,-109.339996,-11.480000,16.940001,20.32
172314,0.843752,0.345504,0.420656,-142.800003,-11.410000,29.820000,20.32
172326,0.866200,0.286944,0.505080,-152.669998,-9.730000,39.060001,20.28
172337,0.872544,0.328912,0.553392,-157.289993,-9.520000,48.160000,20.28
172348,0.905728,0.326472,0.582672,-156.100006,-11.970000,54.880001,20.28
172360,0.937936,0.314760,0.564128,-154.350006,-13.300000,60.480000,20.31
172372,0.946232,0.205448,0.551440,-143.360001,-14.210000,63.419998,20.30
172383,0.935984,0.142984,0.523624,-110.040001,-12.530000,62.720001,20.30
172394,0.927688,0.121512,0.476776,-110.879997,-10.570000,61.950001,20.30
172405,0.906216,-0.003904,0.440176,-91.489998,-8.610000,57.889999,20.30
172417,0.882304,-0.222040,0.409432,-68.320000,-5.460000,49.630001,20.30
172428,0.875960,-0.260104,0.384056,-41.090000,-3.010000,37.799999,20.30
172440,0.869616,-0.370880,0.360144,-9.170000,-2.030000,23.309999,20.30
172452,0.854488,-0.386496,0.380640,19.600000,-2.310000,9.940000,20.30
172463,0.876936,-0.427976,0.393328,51.520000,0.070000,-1.400000,20.30
172475,0.865224,-0.274744,0.449448,72.589996,1.890000,-15.890000,20.27
172486,0.854488,-0.253272,0.484096,92.260002,0.770000,-27.930000,20.29
172497,0.869128,-0.278160,0.524112,124.809998,-0.630000,-42.560001,20.29
172509,0.911096,-0.277184,0.582672,151.970001,-2.870000,-54.389999,20.26
172520,0.921832,-0.242536,0.611464,185.429993,-3.850000,-66.570000,20.26
172531,0.921344,-0.217160,0.604632,212.869995,-5.110000,-71.330002,20.29
172542,0.932080,-0.168360,0.585600,225.750000,-4.550000,-67.830002,20.30
172554,0.907680,-0.192760,0.592432,227.779999,-7.000000,-65.309998,20.30
172566,0.835456,-0.021960,0.569984,189.839996,-10.570000,-55.230000,20.32
172577,0.793488,0.160064,0.490928,112.629997,-16.379999,-44.099998,20.27
172588,0.771528,0.258640,0.401624,34.860001,-23.240000,-28.070000,20.27
172600,0.769088,0.386496,0.317200,-38.150002,-25.059999,-10.850000,20.30
172612,0.806664,0.427976,0.327448,-105.769997,-23.170000,3.360000,20.30
172623,0.848144,0.422120,0.354776,-146.089996,-18.270000,19.110001,20.32
172634,0.874984,0.331352,0.402112,-173.880005,-14.070000,33.040001,20.27
172645,0.867664,0.343064,0.453352,-183.050003,-12.950000,43.470001,20.27
172656,0.902800,0.369416,0.512888,-188.789993,-14.000000,52.990002,20.30
172668,0.940864,0.352824,0.496296,-189.699997,-14.770000,60.480000,20.30
172679,0.936472,0.180560,0.501664,-171.289993,-10.080000,63.840000,20.29
172691,0.901336,0.247904,0.471408,-156.940002,-9.870000,64.610001,20.29
172703,0.928664,0.166408,0.423584,-138.320007,-3.920000,63.279999,20.29
172714,0.877424,-0.015616,0.379664,-117.459999,2.310000,54.950001,20.30
172725,0.865224,-0.211792,0.336232,-79.169998,5.810000,42.419998,20.30
172737,0.870592,-0.344528,0.292312,-40.529999,7.840000,27.510000,20.29
172749,0.855952,-0.393328,0.298168,6.720000,7.770000,10.290000,20.31
172760,0.878888,-0.397720,0.348432,54.250000,8.680000,-6.440000,20.31
172771,0.879864,-0.396256,0.428952,103.669998,10.920000,-25.340000,20.31
172783,0.883768,-0.320616,0.509960,146.020004,8.890000,-42.279999,20.25
172795,0.901336,-0.309392,0.589504,188.089996,5.950000,-57.400002,20.25
172807,0.930616,-0.269376,0.612928,225.050003,3.990000,-68.879997,20.30
172818,0.931104,-0.166896,0.609024,253.259995,2.730000,-74.269997,20.30
172830,0.920856,-0.105896,0.604632,263.690002,-0.280000,-73.709999,20.27
172842,0.910608,0.034648,0.564128,237.649994,-1.050000,-63.490002,20.28
172853,0.870592,-0.068320,0.515816,187.880005,-4.900000,-60.270000,20.28
172864,0.842288,-0.098088,0.447984,138.250000,-3.850000,-50.820000,20.26
172875,0.724680,0.093208,0.361608,72.519997,-9.450000,-31.080000,20.27
172887,0.746640,0.408456,0.322080,-15.540000,-18.059999,-10.080000,20.27
172899,0.799344,0.574864,0.323056,-96.459999,-20.719999,5.600000,20.26
172910,0.854000,0.610976,0.379176,-148.399994,-14.980000,23.379999,20.26
172922,0.884744,0.501176,0.458720,-172.619995,-7.420000,34.439999,20.29
172934,0.854976,0.421144,0.543632,-187.039993,-8.820000,43.189999,20.27
172945,0.900848,0.212280,0.527040,-182.000000,-9.100000,48.299999,20.27
172957,0.904752,0.105896,0.562664,-157.990005,-11.340000,52.009998,20.26
172969,0.898408,0.258640,0.545096,-149.800003,-13.440000,55.299999,20.26
172980,0.935496,0.176168,0.517280,-141.259995,-12.390000,53.970001,20.26
172992,0.923296,0.036112,0.474336,-120.120003,-10.220000,47.669998,20.29
173004,0.922320,-0.054168,0.408944,-99.120003,-7.350000,41.509998,20.29
173015,0.922808,-0.202520,0.342576,-71.050003,-3.220000,31.010000,20.29
173027,0.912072,-0.261568,0.300608,-39.480000,-1.400000,20.650000,20.35
173039,0.901336,-0.287920,0.332816,-8.750000,-0.420000,8.190000,20.35
173050,0.904264,-0.146400,0.364048,9.800000,2.240000,-2.380000,20.32
173061,0.909144,-0.153720,0.404064,24.010000,6.860000,-14.420000,20.32
173073,0.895480,-0.189344,0.446520,49.910000,7.000000,-28.700001,20.29
173084,0.898896,-0.240584,0.495808,87.010002,6.440000,-41.439999,20.30
173096,0.934032,-0.275232,0.512400,132.300003,7.420000,-51.099998,20.30
173108,0.944768,-0.283528,0.528992,176.610001,8.820000,-57.540001,20.28
173119,0.931104,-0.244000,0.556808,212.309998,7.770000,-59.919998,20.27
173131,0.882792,-0.041968,0.578768,219.800003,6.160000,-59.639999,20.27
173142,0.861808,0.057096,0.544120,197.050003,1.960000,-56.560001,20.30
173153,0.858392,0.074664,0.498248,165.619995,2.030000,-50.400002,20.30
173164,0.799832,0.147864,0.477264,110.599998,-1.050000,-42.560001,20.27
173175,0.793000,0.207400,0.416752,58.450001,-3.570000,-27.440001,20.25
173187,0.777384,0.287432,0.368928,2.030000,-6.580000,-14.350000,20.25
173198,0.796904,0.401136,0.337208,-49.000000,-6.230000,1.540000,20.29
173210,0.819840,0.425536,0.358680,-86.730003,-3.990000,12.390000,20.29
173221,0.831552,0.422120,0.402112,-113.680000,-1.260000,26.110001,20.32
173233,0.833992,0.307440,0.483608,-126.279999,0.280000,33.599998,20.27
173244,0.843264,0.321104,0.505568,-132.929993,-0.980000,42.419998,20.27
173255,0.878888,0.266936,0.543144,-140.350006,-1.960000,49.840000,20.30
173267,0.889624,0.163480,0.573888,-139.160004,-4.340000,54.740002,20.30
173278,0.900848,0.109800,0.558272,-133.490005,-8.960000,57.119999,20.31
173290,0.921832,0.150792,0.563152,-129.360001,-13.370000,58.799999,20.28
173301,0.929640,0.181048,0.548512,-130.899994,-13.860000,59.430000,20.28
173312,0.927200,0.115656,0.495320,-130.759995,-11.900000,57.330002,20.28
173323,0.918416,-0.087840,0.452864,-112.000000,-8.680000,48.650002,20.27
173335,0.909144,-0.197152,0.403088,-81.339996,-6.300000,38.709999,20.27
173346,0.903288,-0.312320,0.349896,-40.529999,-3.640000,26.600000,20.27
173358,0.895968,-0.266448,0.322568,-10.640000,-2.450000,14.700000,20.27
173369,0.897432,-0.316712,0.321104,24.570000,0.630000,3.500000,20.26
173380,0.906216,-0.306464,0.350872,65.449997,3.850000,-10.920000,20.29
173392,0.874984,-0.138592,0.432368,87.989998,5.320000,-23.240000,20.29
173404,0.892552,-0.245464,0.506056,113.610001,6.440000,-36.119999,20.30
173415,0.895968,-0.271816,0.564616,148.470001,6.720000,-47.880001,20.30
173427,0.902312,-0.213256,0.580232,179.059998,6.580000,-54.740002,20.29
173438,0.911584,-0.230824,0.595360,206.500000,6.370000,-59.009998,20.27
173449,0.911584,-0.181048,0.575840,220.500000,5.180000,-60.410000,20.27
173461,0.880840,-0.074664,0.523624,216.369995,2.030000,-58.730000,20.30
173472,0.878888,-0.008784,0.513864,181.300003,2.730000,-53.340000,20.30
173483,0.814472,0.119560,0.530456,158.899994,-0.910000,-45.709999,20.32
173495,0.780800,0.230824,0.479216,90.230003,-5.390000,-34.090000,20.29
173506,0.790560,0.193736,0.413824,31.570000,-6.160000,-19.670000,20.29
173518,0.793488,0.242048,0.376248,-20.510000,-7.000000,-6.720000,20.33
173529,0.793000,0.343552,0.373320,-64.330002,-7.350000,5.180000,20.30
173540,0.813984,0.464088,0.394304,-106.470001,-9.870000,17.430000,20.30
173551,0.839360,0.446032,0.427000,-131.880005,-7.280000,29.750000,20.32
173562,0.848632,0.357216,0.487024,-145.880005,-6.790000,36.680000,20.32
173574,0.879376,0.152256,0.545584,-149.380005,-6.160000,44.660000,20.29
173585,0.893528,0.176168,0.551440,-144.339996,-7.490000,48.020000,20.25
173596,0.899872,0.223016,0.569984,-143.850006,-11.760000,55.230000,20.25
173608,0.931104,0.173240,0.553392,-143.289993,-13.650000,58.660000,20.30
173619,0.921344,0.171776,0.554856,-141.399994,-15.050000,59.500000,20.30
173630,0.915000,0.160552,0.515328,-141.399994,-14.770000,57.959999,20.31
173641,0.921344,0.037576,0.448960,-136.080002,-9.800000,53.340000,20.24
173652,0.903776,-0.106384,0.385032,-115.430000,-5.460000,44.799999,20.24
173663,0.901336,-0.310368,0.334280,-85.400002,-1.820000,32.130001,20.32
173675,0.889136,-0.404552,0.321104,-37.520000,-0.490000,19.530001,20.32
173687,0.885720,-0.403088,0.330864,9.380000,0.140000,6.860000,20.26
173697,0.891088,-0.259616,0.364536,45.360001,3.080000,-6.370000,20.27
173709,0.894504,-0.110776,0.403088,57.119999,8.050000,-17.290001,20.27
173721,0.875960,-0.189344,0.424560,72.730003,10.430000,-30.660000,20.32
173732,0.870104,-0.269376,0.477752,106.610001,9.450000,-44.310001,20.32
173743,0.890112,-0.258152,0.510448,140.279999,8.190000,-52.430000,20.30
173755,0.915488,-0.232776,0.543144,171.360001,7.700000,-61.110001,20.27
173766,0.920856,-0.234240,0.562664,196.070007,8.050000,-67.269997,20.27
173777,0.911096,-0.157624,0.580232,218.960007,7.350000,-69.160004,20.33
173788,0.845216,0.094184,0.564128,214.690002,0.910000,-67.129997,20.33
173799,0.876936,0.020496,0.537288,193.970001,3.500000,-60.970001,20.28
173811,0.823256,0.000976,0.516792,161.139999,2.450000,-51.660000,20.33
173822,0.765184,0.136640,0.500200,97.650002,-0.980000,-42.000000,20.33
173834,0.741272,0.353312,0.458720,28.420000,-9.450000,-22.540001,20.28
173845,0.751032,0.549488,0.434808,-29.750000,-14.770000,-6.930000,20.28
173857,0.805200,0.509472,0.434808,-91.629997,-13.370000,7.070000,20.25
173868,0.818864,0.452376,0.415288,-134.330002,-12.390000,19.180000,20.32
173879,0.842776,0.389912,0.417728,-152.740005,-11.410000,28.770000,20.32
173891,0.876936,0.383080,0.455304,-159.389999,-10.360000,37.590000,20.27
173902,0.873032,0.361608,0.487024,-167.089996,-9.240000,42.490002,20.27
173914,0.892064,0.215696,0.533384,-166.179993,-8.470000,48.020000,20.27
173926,0.910120,0.058560,0.497760,-149.240005,-8.050000,49.910000,20.30
173937,0.913048,-0.013664,0.497272,-127.889999,-8.680000,50.330002,20.30
173949,0.926712,-0.055632,0.497760,-101.849998,-8.050000,47.389999,20.30
173960,0.928176,0.024400,0.510936,-92.959999,-9.730000,47.529999,20.30
173972,0.919880,-0.007320,0.453840,-91.910004,-8.820000,45.570000,20.30
173983,0.922808,-0.188856,0.452376,-82.809998,-6.650000,40.180000,20.30
173994,0.901336,-0.203496,0.445056,-74.059998,-5.600000,33.180000,20.30
174006,0.894504,-0.215208,0.452376,-63.000000,-4.340000,25.900000,20.31
174018,0.886208,-0.283040,0.455304,-46.410000,-3.290000,17.080000,20.30
174029,0.885232,-0.309392,0.432368,-26.879999,-2.380000,9.030000,20.30
174040,0.878888,-0.291824,0.397232,-7.000000,-1.050000,-1.750000,20.27
174052,0.884744,-0.148840,0.374296,5.320000,1.260000,-8.470000,20.23
174063,0.878888,-0.078568,0.359168,18.270000,5.600000,-15.890000,20.23
174075,0.870592,-0.172264,0.381128,48.230000,8.680000,-25.830000,20.29
174086,0.870104,-0.232776,0.422120,97.720001,9.030000,-38.990002,20.29
174097,0.890600,-0.185440,0.473848,135.729996,8.820000,-50.750000,20.32
174109,0.900360,-0.136152,0.518256,178.220001,8.330000,-61.599998,20.29
174120,0.921832,-0.096624,0.561688,212.869995,8.540000,-67.900002,20.29
174132,0.921344,-0.069784,0.590968,235.199997,8.610000,-69.089996,20.30
174143,0.892552,0.008296,0.654896,233.729996,6.370000,-65.589996,20.30
174154,0.858392,0.145424,0.587552,192.919998,1.960000,-58.310001,20.32
174165,0.847656,0.063928,0.508984,153.649994,0.280000,-49.980000,20.31
174177,0.785680,0.104920,0.500200,103.949997,-2.800000,-37.730000,20.31
174188,0.770552,0.250344,0.441152,50.959999,-7.210000,-24.150000,20.29
174199,0.816424,0.277672,0.349408,-9.520000,-6.020000,-8.540000,20.29
174210,0.789096,0.435784,0.353800,-72.169998,-7.280000,8.960000,20.30
174222,0.812032,0.409920,0.405528,-118.019997,-7.280000,20.580000,20.30
174233,0.829112,0.377224,0.464088,-144.759995,-5.950000,29.959999,20.30
174244,0.846680,0.273280,0.512888,-153.229996,-3.080000,39.060001,20.29
174255,0.872056,0.131272,0.552904,-149.449997,-1.470000,46.060001,20.29
174267,0.859368,0.157136,0.555344,-143.850006,-3.710000,50.750000,20.29
174278,0.875472,0.166408,0.564128,-138.880005,-7.000000,55.369999,20.28
174289,0.902312,0.213256,0.533872,-139.369995,-9.800000,58.799999,20.28
174301,0.932080,0.145424,0.497760,-133.139999,-9.450000,60.340000,20.29
174312,0.926224,0.083936,0.488488,-128.869995,-8.330000,59.709999,20.29
174323,0.924760,0.011224,0.449448,-123.129997,-6.650000,56.560001,20.31
174334,0.908656,-0.163968,0.447008,-102.480003,-3.640000,49.349998,20.30
174346,0.886696,-0.230336,0.441640,-76.930000,-2.660000,42.560001,20.30
174357,0.877912,-0.243024,0.422120,-53.410000,-1.400000,32.970001,20.33
174368,0.881816,-0.346968,0.404552,-22.820000,0.420000,21.139999,20.29
174379,0.881816,-0.324032,0.390400,2.030000,2.240000,8.120000,20.29
174390,0.888648,-0.292312,0.386008,28.350000,4.270000,-3.430000,20.27
174402,0.882792,-0.210816,0.377712,53.759998,9.100000,-13.090000,20.27
174413,0.867664,-0.169824,0.418216,78.400002,10.710000,-24.150000,20.30
174424,0.866200,-0.244000,0.473848,105.980003,11.830000,-39.759998,20.30
174435,0.877912,-0.265960,0.564616,147.139999,10.080000,-53.410000,20.27
174446,0.899384,-0.235704,0.571936,185.570007,9.800000,-64.610001,20.25
174458,0.922320,-0.190808,0.609512,213.919998,8.470000,-67.550003,20.25
174469,0.912072,-0.187392,0.623176,235.130005,8.120000,-68.809998,20.27
174480,0.869616,-0.081984,0.650504,233.729996,4.690000,-67.760002,20.27
174491,0.834968,0.036112,0.642696,215.039993,-0.630000,-62.650002,20.27
174503,0.812032,0.121512,0.560712,165.339996,-4.200000,-54.040001,20.29
174514,0.787632,0.116144,0.498736,109.339996,-7.070000,-42.490002,20.29
174525,0.762256,0.191784,0.443104,52.430000,-9.450000,-33.529999,20.30
174537,0.775920,0.226432,0.376248,-1.540000,-8.890000,-17.080000,20.30
174547,0.762256,0.298168,0.387960,-62.509998,-8.540000,-0.210000,20.30
174559,0.753960,0.392352,0.439688,-92.610001,-12.740000,15.050000,20.28
174570,0.792024,0.511424,0.476776,-129.570007,-14.280000,27.580000,20.28
174581,0.842776,0.437248,0.514352,-151.899994,-10.710000,36.049999,20.32
174592,0.861808,0.218136,0.572424,-151.059998,-5.740000,40.740002,20.29
174603,0.840336,0.242536,0.634400,-150.850006,-6.860000,47.459999,20.29
174615,0.872056,0.188856,0.544608,-148.679993,-10.430000,50.470001,20.30
174626,0.923784,0.030744,0.503616,-135.169998,-9.940000,51.799999,20.30
174637,0.917928,0.094184,0.444080,-126.769997,-13.090000,53.619999,20.28
174647,0.920856,0.114680,0.444080,-124.040001,-12.810000,55.369999,20.28
174658,0.914024,0.145912,0.463600,-129.639999,-10.920000,53.970001,20.30
174670,0.908656,0.042944,0.461160,-130.270004,-4.550000,50.540001,20.25
174681,0.873032,-0.129320,0.447496,-117.599998,-0.630000,40.669998,20.25
174692,0.874984,-0.293288,0.425536,-88.620003,2.030000,29.190001,20.32
174703,0.874984,-0.357216,0.391376,-58.730000,2.660000,17.920000,20.32
174715,0.882304,-0.403088,0.368440,-16.660000,3.570000,5.880000,20.31
174726,0.875472,-0.282064,0.366488,17.150000,4.900000,-5.460000,20.27
174738,0.885720,-0.158600,0.373320,32.130001,9.030000,-15.260000,20.27
174749,0.884744,-0.152256,0.412848,42.910000,13.580000,-21.139999,20.29
174760,0.839360,-0.139080,0.474336,62.439999,11.760000,-34.369999,20.29
174771,0.855952,-0.122000,0.539240,80.639999,10.220000,-42.770000,20.29
174782,0.891088,-0.199104,0.589992,114.379997,10.850000,-52.150002,20.29
174793,0.908168,-0.187392,0.634400,150.990005,7.490000,-59.990002,20.29
174804,0.925736,-0.181536,0.650504,196.000000,6.020000,-66.919998,20.25
174816,0.915976,-0.172264,0.654896,210.279999,5.670000,-69.370003,20.25
174826,0.889624,-0.070760,0.643672,227.919998,4.270000,-67.900002,20.27
174837,0.857416,0.008296,0.630984,224.699997,1.050000,-63.349998,20.26
174848,0.824720,0.109800,0.575840,182.979996,-2.800000,-55.650002,20.26
174859,0.817888,0.114192,0.500200,167.089996,-5.180000,-48.160000,20.32
174870,0.793976,0.204960,0.464088,126.279999,-6.230000,-40.529999,20.32
174881,0.768600,0.264008,0.473360,70.559998,-7.630000,-27.650000,20.33
174892,0.763720,0.438712,0.451888,6.090000,-10.010000,-12.320000,20.34
174903,0.773968,0.450912,0.369416,-70.139999,-10.710000,0.700000,20.34
174914,0.791536,0.279624,0.364536,-114.029999,-10.850000,13.370000,20.31
174925,0.796904,0.298656,0.408456,-136.080002,-11.830000,25.620001,20.31
174936,0.823256,0.337696,0.459208,-157.500000,-12.740000,35.560001,20.31
174947,0.871080,0.195200,0.517280,-161.490005,-8.960000,41.299999,20.31
174958,0.868152,0.192272,0.581208,-159.389999,-6.790000,46.689999,20.27
174969,0.877912,0.199104,0.591456,-151.199997,-8.750000,53.900002,20.29
174979,0.898896,0.187880,0.606096,-149.869995,-11.410000,58.169998,20.29
174990,0.913536,0.185440,0.597800,-146.860001,-15.190000,58.660000,20.30
175001,0.928664,0.231312,0.525576,-139.860001,-14.980000,60.970001,20.30
175012,0.927688,0.240584,0.481656,-131.669998,-12.530000,61.250000,20.30
175023,0.899872,0.142984,0.451400,-122.220001,-7.840000,56.630001,20.28
175034,0.875960,-0.092720,0.407480,-104.019997,-3.570000,47.459999,20.28
175045,0.858880,-0.217648,0.383568,-71.330002,0.210000,38.150002,20.28
175056,0.866200,-0.369416,0.369904,-19.950001,1.610000,26.110001,20.28
175067,0.861808,-0.393328,0.358680,1.120000,1.890000,13.790000,20.31
175078,0.869616,-0.332816,0.250344,28.280001,3.290000,4.270000,20.22
175088,0.873520,-0.295240,0.393328,42.700001,6.860000,-6.090000,20.22
175099,0.863760,-0.154696,0.433832,49.279999,8.260000,-16.590000,20.27
175110,0.851072,-0.113216,0.481656,45.430000,9.800000,-23.940001,20.27
175121,0.842288,-0.151768,0.515816,51.029999,9.450000,-32.970001,20.34
175132,0.847168,-0.109800,0.557296,66.290001,7.350000,-41.650002,20.34
175143,0.873520,-0.122976,0.587064,88.339996,6.580000,-48.230000,20.30
175154,0.899384,-0.167384,0.607072,113.750000,4.900000,-56.490002,20.27
175165,0.910120,-0.178120,0.630984,148.470001,3.360000,-60.619999,20.27
175176,0.905240,-0.177144,0.654896,180.669998,3.360000,-61.669998,20.28
175187,0.879864,-0.086864,0.652944,197.679993,2.380000,-60.689999,20.28
175198,0.864248,-0.032208,0.622200,208.809998,0.840000,-57.189999,20.30
175209,0.833016,0.056608,0.521184,192.289993,0.000000,-51.310001,20.29
175219,0.814472,0.110776,0.480192,156.520004,-1.750000,-41.299999,20.29
175230,0.788120,0.223992,0.428464,106.680000,-4.690000,-30.660000,20.30
175241,0.768600,0.309392,0.411384,31.080000,-7.420000,-13.720000,20.30
175252,0.764208,0.369416,0.429440,-36.400002,-10.780000,-2.310000,20.31
175263,0.792512,0.379664,0.431392,-83.160004,-10.500000,11.620000,20.31
175274,0.806664,0.377712,0.472384,-122.570000,-11.060000,24.990000,20.30
175285,0.808128,0.344528,0.508984,-142.449997,-11.690000,31.080000,20.23
175296,0.839848,0.264984,0.552416,-152.110001,-10.150000,40.040001,20.23
175307,0.862784,0.131272,0.566568,-149.100006,-9.520000,43.259998,20.25
175318,0.863760,0.164944,0.600728,-141.119995,-11.970000,49.139999,20.25
175328,0.882792,0.301096,0.548512,-145.529999,-16.030001,54.040001,20.29
175339,0.933056,0.184952,0.521672,-141.539993,-14.980000,57.470001,20.30
175350,0.929152,0.060024,0.541192,-119.349998,-13.230000,55.509998,20.30
175361,0.877424,0.251320,0.539240,-117.040001,-13.370000,56.279999,20.34
175372,0.896944,0.093208,0.501664,-112.000000,-9.520000,53.270000,20.34
175383,0.879864,0.002928,0.469456,-98.070000,-5.250000,47.880001,20.29
175394,0.868152,-0.150792,0.410896,-81.550003,-2.450000,38.290001,20.29
175405,0.867664,-0.323056,0.373808,-52.290001,-1.190000,26.600000,20.26
175416,0.866200,-0.353800,0.377224,-21.840000,-0.840000,17.500000,20.32
175427,0.862296,-0.361608,0.395768,4.900000,0.420000,6.790000,20.32
175438,0.870592,-0.284992,0.421144,21.000000,2.520000,-3.430000,20.32
175449,0.867664,-0.185440,0.438224,33.320000,4.690000,-13.160000,20.32
175460,0.848144,-0.080032,0.450424,40.599998,6.230000,-21.770000,20.28
175471,0.859368,-0.095160,0.471896,67.480003,7.140000,-31.570000,20.29
175482,0.865224,-0.143472,0.525088,77.209999,6.860000,-42.560001,20.29
175493,0.894504,-0.169824,0.573400,110.529999,6.580000,-50.400002,20.33
175504,0.907680,-0.266936,0.610488,142.380005,7.350000,-55.509998,20.33
175515,0.913536,-0.297192,0.650016,187.740005,7.000000,-58.799999,20.32
175526,0.897432,-0.234728,0.653920,225.679993,6.370000,-61.459999,20.27
175537,0.877912,-0.130296,0.647088,242.270004,4.200000,-60.900002,20.27
175548,0.845704,0.022936,0.580720,222.250000,2.870000,-55.509998,20.29
175559,0.831552,0.006832,0.491904,188.160004,1.470000,-47.389999,20.29
175570,0.777384,0.083448,0.487512,135.800003,-3.640000,-38.009998,20.29
175581,0.742736,0.335744,0.477752,67.339996,-9.660000,-21.770000,20.29
175592,0.758840,0.439200,0.413336,-27.299999,-13.020000,-4.060000,20.27
175603,0.796904,0.335256,0.396744,-87.849998,-13.300000,4.200000,20.30
175614,0.792512,0.405040,0.417728,-124.879997,-14.630000,18.270000,20.30
175625,0.834968,0.310856,0.437248,-145.389999,-11.760000,26.740000,20.31
175635,0.863760,0.179096,0.507520,-152.880005,-8.120000,33.250000,20.31
175646,0.839360,0.216672,0.578280,-154.419998,-10.780000,42.980000,20.34
175657,0.874008,0.301584,0.639280,-150.779999,-12.670000,51.660000,20.34
175668,0.888648,0.354288,0.627568,-156.169998,-16.309999,57.189999,20.34
175679,0.913536,0.247904,0.610488,-154.210007,-17.780001,58.240002,20.29
175690,0.893040,0.178608,0.562176,-143.429993,-15.820000,58.380001,20.29
175701,0.905728,0.160064,0.494832,-131.179993,-14.140000,57.400002,20.30
175712,0.907192,0.021472,0.430416,-112.769997,-8.960000,52.709999,20.30
175723,0.878888,-0.113704,0.373808,-72.589996,-4.550000,44.660000,20.30
175734,0.883280,-0.221064,0.335256,-59.150002,-2.100000,35.630001,20.32
175745,0.864248,-0.323544,0.352336,-25.549999,0.140000,25.760000,20.32
175756,0.865712,-0.388936,0.387472,6.230000,1.190000,13.440000,20.31
175767,0.863760,-0.340624,0.430416,24.290001,2.660000,2.170000,20.31
175778,0.874008,-0.334280,0.469944,40.250000,3.990000,-8.540000,20.34
175789,0.866200,-0.312320,0.480192,54.180000,4.970000,-17.150000,20.29
175800,0.864736,-0.099552,0.475312,54.669998,5.740000,-26.250000,20.29
175811,0.870104,-0.030744,0.492392,49.560001,6.650000,-33.320000,20.32
175822,0.867664,-0.177632,0.509472,71.889999,7.210000,-41.580002,20.32
175833,0.900360,-0.242048,0.523624,102.620003,6.440000,-51.730000,20.32
175844,0.914024,-0.232776,0.549000,141.190002,5.950000,-59.500000,20.30
175855,0.917440,-0.203008,0.569008,174.929993,5.880000,-61.880001,20.30
175866,0.908656,-0.145912,0.581208,198.380005,5.810000,-62.299999,20.25
175877,0.871080,0.025864,0.602680,190.679993,4.270000,-55.860001,20.25
175887,0.820816,0.104432,0.586088,148.889999,1.960000,-48.860001,20.32
175898,0.803736,0.025864,0.588040,113.120003,-1.680000,-42.700001,20.32
175909,0.762744,0.175192,0.553392,82.949997,-6.510000,-31.010000,20.33
175920,0.775920,0.276208,0.510936,35.209999,-8.540000,-16.450001,20.34
175931,0.788608,0.372344,0.463112,-26.110001,-8.050000,-4.550000,20.34
175942,0.810568,0.326472,0.434320,-63.490002,-6.930000,8.260000,20.34
175953,0.793488,0.414312,0.396744,-101.639999,-9.450000,20.790001,20.34
175964,0.845216,0.376248,0.408944,-131.179993,-9.380000,31.500000,20.33
175975,0.857416,0.230824,0.488976,-141.960007,-6.930000,39.480000,20.29
175986,0.849608,0.272792,0.562176,-140.699997,-8.190000,46.410000,20.29
175997,0.869128,0.297192,0.594872,-144.059998,-9.730000,53.480000,20.29
176008,0.903776,0.196176,0.575352,-136.919998,-9.730000,56.419998,20.29
176019,0.906704,0.171776,0.565104,-124.389999,-10.500000,60.130001,20.31
176030,0.894504,0.235216,0.527040,-121.029999,-11.060000,61.529999,20.32
176041,0.911096,0.052216,0.487512,-109.970001,-7.630000,58.029999,20.32
176052,0.884256,-0.120048,0.459696,-71.889999,-6.580000,50.400002,20.31
176063,0.867176,-0.187880,0.451400,-68.599998,-6.230000,42.209999,20.31
176074,0.878888,-0.298656,0.448960,-44.169998,-4.830000,31.290001,20.33
176085,0.872544,-0.348920,0.448472,-16.030001,-4.200000,22.330000,20.28
176096,0.873032,-0.376248,0.445544,7.630000,-3.150000,9.520000,20.28
176107,0.875960,-0.338672,0.457744,38.150002,-0.840000,-4.410000,20.30
176118,0.884256,-0.222528,0.480680,60.759998,0.630000,-12.600000,20.30
176129,0.859856,-0.223016,0.469944,91.070000,6.230000,-27.930000,20.30
176140,0.877424,-0.282552,0.447496,127.260002,7.700000,-41.720001,20.30
176151,0.908168,-0.322080,0.462624,189.490005,8.540000,-51.029999,20.29
176162,0.914024,-0.250344,0.505568,242.759995,7.980000,-61.880001,20.25
176173,0.941840,-0.224480,0.564128,275.589996,9.170000,-68.250000,20.25
176184,0.935008,-0.170800,0.587064,302.750000,8.470000,-71.190002,20.34
176195,0.896456,-0.043920,0.601216,297.570007,5.460000,-71.120003,20.34
176206,0.827648,0.147864,0.597800,251.369995,-3.500000,-62.720001,20.31
176217,0.761280,0.140544,0.617808,182.419998,-11.200000,-56.279999,20.28
176227,0.769576,0.113216,0.571936,114.379997,-15.680000,-48.230000,20.28
176238,0.712968,0.300608,0.519720,54.740002,-19.250000,-31.780001,20.30
176251,0.749080,0.501176,0.421144,-33.459999,-23.379999,-17.500000,20.30
176264,0.790560,0.619272,0.293288,-94.150002,-21.280001,1.400000,20.31
176275,0.833016,0.494832,0.279136,-133.070007,-13.930000,13.090000,20.33
176286,0.834480,0.323056,0.311832,-150.009995,-6.930000,22.820000,20.33
176296,0.812032,0.295240,0.350384,-160.509995,-5.390000,31.570000,20.31
176307,0.810080,0.268888,0.451888,-166.880005,-5.390000,39.480000,20.31
176318,0.811056,0.311832,0.545096,-169.960007,-8.190000,46.480000,20.35
176329,0.843752,0.319640,0.583648,-179.690002,-8.190000,55.930000,20.32
176340,0.873520,0.240096,0.633912,-182.419998,-9.240000,60.619999,20.32
176351,0.878888,0.194712,0.589992,-184.869995,-12.320000,64.330002,20.29
176361,0.916952,0.086376,0.564128,-179.479996,-13.650000,67.199997,20.29
176372,0.915488,0.085400,0.522160,-167.860001,-13.650000,67.269997,20.34
176383,0.913048,0.054168,0.484584,-154.770004,-10.570000,65.099998,20.34
176394,0.909144,-0.047336,0.428464,-137.690002,-7.140000,59.639999,20.32
176405,0.873520,-0.121024,0.367464,-110.180000,-3.220000,49.560001,20.30
176416,0.871568,-0.326472,0.341600,-65.730003,0.420000,38.500000,20.30
176427,0.855464,-0.398696,0.335744,-27.230000,1.750000,23.660000,20.31
176438,0.864248,-0.442128,0.363072,15.610000,2.870000,9.450000,20.31
176449,0.871080,-0.323544,0.385032,43.680000,5.530000,-0.700000,20.33
176460,0.879864,-0.305000,0.403576,59.849998,9.800000,-14.980000,20.31
176471,0.876936,-0.304024,0.423096,87.779999,10.780000,-30.450001,20.31
176482,0.872544,-0.257176,0.483120,114.870003,10.360000,-41.020000,20.32
176493,0.899872,-0.313784,0.557784,140.350006,10.570000,-53.689999,20.32
176504,0.897920,-0.336232,0.608536,175.979996,10.500000,-65.519997,20.32
176515,0.901824,-0.323056,0.635864,214.410004,9.940000,-70.559998,20.29
176526,0.899384,-0.226432,0.627080,243.250000,8.610000,-73.989998,20.29
176537,0.900848,-0.126880,0.577304,253.820007,7.840000,-72.589996,20.28
176548,0.868640,-0.041968,0.526064,243.389999,6.440000,-66.779999,20.28
176559,0.827648,0.061976,0.516792,194.250000,2.380000,-60.830002,20.32
176570,0.780312,0.161040,0.477264,137.619995,-2.660000,-46.340000,20.32
176580,0.720288,0.335744,0.441640,56.279999,-8.260000,-30.240000,20.32
176591,0.729560,0.508008,0.441640,-23.030001,-12.810000,-13.160000,20.30
176602,0.766160,0.507032,0.473360,-72.029999,-12.950000,3.080000,20.30
176613,0.789096,0.506056,0.488976,-122.709999,-11.760000,17.639999,20.33
176624,0.826184,0.399184,0.502152,-155.889999,-9.870000,28.070000,20.33
176635,0.836432,0.276208,0.564616,-163.520004,-9.800000,39.830002,20.30
176646,0.839360,0.366488,0.619272,-170.029999,-12.810000,48.650002,20.34
176657,0.872056,0.356240,0.627568,-177.589996,-14.910000,54.950001,20.34
176668,0.912072,0.274744,0.598288,-178.639999,-15.890000,59.709999,20.36
176679,0.909144,0.240096,0.547048,-174.020004,-18.340000,62.299999,20.36
176692,0.919880,0.142984,0.463112,-158.690002,-14.560000,61.669998,20.29
176703,0.915488,0.036600,0.421632,-138.740005,-9.870000,57.259998,20.33
176714,0.906704,-0.061488,0.386008,-120.820000,-5.250000,52.639999,20.33
176725,0.878888,-0.186904,0.362584,-92.889999,-2.450000,43.119999,20.29
176736,0.868640,-0.344040,0.363072,-56.840000,-0.070000,33.810001,20.29
176748,0.864736,-0.419192,0.370880,-17.639999,1.540000,18.690001,20.33
176759,0.863760,-0.396744,0.373320,18.340000,3.360000,8.120000,20.29
176771,0.879864,-0.270840,0.396256,39.759998,7.140000,-2.380000,20.29
176782,0.871080,-0.244488,0.415776,58.169998,11.340000,-14.140000,20.34
176793,0.842288,-0.132736,0.460184,71.260002,12.250000,-25.549999,20.34
176804,0.848632,-0.175680,0.515328,91.769997,13.020000,-33.810001,20.28
176815,0.853512,-0.211792,0.553392,126.699997,12.180000,-46.410000,20.27
176826,0.896944,-0.253272,0.586088,158.130005,13.090000,-56.209999,20.27
176837,0.895480,-0.223016,0.616832,197.610001,13.020000,-63.139999,20.34
176849,0.888160,-0.177144,0.636840,231.350006,12.530000,-65.169998,20.34
176860,0.865224,-0.050264,0.646112,238.139999,10.010000,-63.490002,20.29
176871,0.848632,-0.003416,0.503128,208.740005,8.680000,-55.930000,20.32
176883,0.809104,-0.008784,0.568520,166.529999,4.410000,-51.240002,20.32
176894,0.759328,0.044896,0.533872,128.100006,-1.820000,-37.869999,20.32
176905,0.732000,0.353800,0.492880,59.570000,-9.240000,-22.750000,20.32
176916,0.766160,0.475312,0.446520,-25.270000,-10.570000,-7.700000,20.34
176928,0.797880,0.391376,0.440664,-85.610001,-9.660000,5.110000,20.32
176939,0.793488,0.451400,0.470920,-126.910004,-11.200000,18.760000,20.32
176950,0.818376,0.366488,0.522160,-151.059998,-10.290000,30.450001,20.31
176961,0.846192,0.264008,0.581696,-162.050003,-8.050000,40.110001,20.31
176973,0.850584,0.241560,0.621712,-162.190002,-10.360000,48.580002,20.32
176984,0.883280,0.297192,0.592920,-162.820007,-13.020000,54.880001,20.29
176995,0.897432,0.284504,0.564128,-166.110001,-16.240000,60.830002,20.29
177006,0.926712,0.185440,0.570960,-161.559998,-16.309999,62.930000,20.35
177018,0.908168,0.144936,0.546560,-149.309998,-14.210000,62.369999,20.32
177029,0.901336,0.018544,0.515328,-133.279999,-11.550000,59.360001,20.32
177041,0.890600,-0.102480,0.463112,-109.550003,-8.330000,53.619999,20.29
177052,0.874008,-0.182512,0.398696,-81.970001,-5.320000,44.869999,20.29
177064,0.868640,-0.281576,0.355752,-49.349998,-1.890000,34.299999,20.31
177076,0.856440,-0.377712,0.351848,-10.220000,0.280000,21.070000,20.33
177087,0.851072,-0.273280,0.377224,20.719999,3.430000,9.030000,20.33
177099,0.879864,-0.311344,0.390888,45.709999,7.280000,-0.910000,20.34
177110,0.844728,-0.202520,0.434320,66.010002,11.060000,-15.330000,20.34
177121,0.827160,-0.223016,0.487024,82.389999,9.870000,-23.309999,20.29
177133,0.852536,-0.277672,0.538264,108.360001,11.130000,-37.029999,20.33
177144,0.875472,-0.325496,0.582672,141.679993,11.550000,-47.880001,20.33
177156,0.865224,-0.313784,0.599264,172.830002,10.990000,-56.630001,20.36
177167,0.880840,-0.331352,0.600240,204.190002,11.200000,-61.950001,20.36
177179,0.874496,-0.233264,0.591456,220.009995,10.500000,-64.050003,20.26
177190,0.849120,-0.072712,0.588528,210.770004,7.420000,-61.810001,20.30
177202,0.800808,0.072224,0.556808,171.710007,3.570000,-56.000000,20.30
177213,0.787144,0.050264,0.540216,120.190002,0.420000,-49.279999,20.33
177224,0.732976,0.165920,0.515328,78.330002,-4.270000,-39.340000,20.29
177236,0.737856,0.475312,0.491416,31.430000,-8.890000,-25.969999,20.29
177247,0.772016,0.464576,0.489952,-17.709999,-7.420000,-15.330000,20.35
177259,0.791048,0.425536,0.480680,-57.400002,-3.780000,-2.030000,20.35
177270,0.803248,0.269864,0.502640,-78.050003,-0.490000,9.380000,20.33
177282,0.772992,0.345504,0.531432,-103.250000,-4.060000,20.719999,20.24
177293,0.797880,0.318664,0.545584,-124.879997,-7.560000,32.549999,20.24
177304,0.813496,0.282064,0.589504,-142.940002,-10.290000,41.090000,20.33
177315,0.843752,0.246440,0.671488,-152.110001,-13.650000,46.060001,20.33
177327,0.861320,0.325984,0.655872,-168.070007,-18.200001,51.799999,20.32
177338,0.921832,0.231800,0.604144,-178.779999,-18.549999,57.189999,20.27
177350,0.927200,0.159088,0.568032,-180.600006,-18.410000,59.779999,20.27
177361,0.923296,0.067832,0.522648,-169.610001,-17.080000,60.060001,20.31
177372,0.900848,-0.057096,0.492880,-150.429993,-13.930000,55.090000,20.31
177384,0.882304,-0.121024,0.445056,-116.970001,-10.570000,48.160000,20.31
177395,0.860344,-0.247904,0.403576,-75.250000,-7.560000,38.220001,20.29
177406,0.855952,-0.323056,0.368440,-27.510000,-4.340000,26.600000,20.29
177418,0.861320,-0.338184,0.351360,16.100000,-0.910000,16.240000,20.32
177429,0.874984,-0.284504,0.366488,43.119999,2.800000,5.530000,20.33
177440,0.866200,-0.331840,0.388448,68.320000,7.420000,-6.930000,20.33
177451,0.843752,-0.228872,0.446032,79.800003,9.940000,-19.740000,20.32
177463,0.850584,-0.268888,0.506544,90.930000,10.500000,-30.240000,20.32
177474,0.857904,-0.306464,0.540216,111.580002,10.570000,-42.980000,20.33
177485,0.866688,-0.193248,0.582672,124.040001,9.170000,-51.099998,20.30
177497,0.878400,-0.254736,0.609024,145.600006,8.400000,-58.939999,20.30
177508,0.874008,-0.304512,0.614880,173.949997,8.680000,-63.770000,20.31
177519,0.857416,-0.205936,0.634888,190.330002,6.860000,-64.820000,20.31
177531,0.849608,-0.069784,0.611952,192.500000,4.550000,-62.439999,20.33
177542,0.816424,0.051240,0.614880,173.949997,2.170000,-54.880001,20.26
177554,0.781288,0.125904,0.585600,127.889999,-17.570000,-45.639999,20.26
177565,0.766648,0.074176,0.530944,77.489998,-1.750000,-34.930000,20.31
177576,0.723216,0.189832,0.485560,25.900000,-4.620000,-23.309999,20.31
177588,0.732488,0.277672,0.471896,-25.480000,-7.560000,-6.790000,20.30
177599,0.769088,0.332328,0.458232,-67.059998,-8.190000,7.210000,20.30
177610,0.774944,0.542656,0.491416,-120.260002,-12.810000,22.260000,20.30
177622,0.844728,0.449936,0.551928,-138.179993,-11.480000,35.209999,20.35
177633,0.844728,0.317200,0.645136,-160.089996,-10.570000,44.169998,20.35
177644,0.836920,0.226920,0.691008,-162.750000,-12.180000,47.320000,20.33
177655,0.866200,0.146888,0.690520,-158.619995,-16.520000,55.020000,20.35
177667,0.905240,0.134200,0.634400,-150.009995,-20.160000,57.259998,20.35
177678,0.910120,0.099552,0.548024,-132.440002,-19.530001,57.959999,20.32
177690,0.918904,0.190808,0.490440,-122.779999,-17.500000,58.029999,20.32
177701,0.899872,0.079544,0.406016,-111.019997,-10.710000,52.220001,20.32
177713,0.871080,-0.114680,0.365512,-73.360001,-3.150000,42.000000,20.31
177725,0.854976,-0.306952,0.362584,-43.820000,1.470000,30.590000,20.31
177736,0.835944,-0.406992,0.369904,10.080000,2.730000,16.870001,20.32
177749,0.851072,-0.329400,0.391376,33.110001,5.810000,4.060000,20.31
177761,0.870592,-0.127856,0.428464,38.360001,9.730000,-5.320000,20.31
177773,0.844240,-0.205448,0.466528,48.650002,13.790000,-18.830000,20.32
177785,0.812032,-0.193248,0.552416,69.300003,10.710000,-31.780001,20.29
177797,0.851072,-0.301096,0.637328,94.779999,8.120000,-44.380001,20.29
177808,0.886696,-0.385520,0.661240,135.800003,8.190000,-56.630001,20.31
177820,0.891576,-0.325008,0.667096,173.460007,8.400000,-62.160000,20.31
177831,0.886696,-0.275720,0.646600,201.250000,7.840000,-63.630001,20.33
177843,0.868152,-0.094672,0.633912,210.070007,6.230000,-61.459999,20.35
177854,0.856928,-0.060512,0.561688,202.649994,5.460000,-56.490002,20.35
177867,0.796904,0.001952,0.496784,162.539993,2.590000,-51.869999,20.32
177878,0.769576,0.051728,0.442616,108.639999,-1.610000,-37.099998,20.34
177890,0.726144,0.239608,0.434808,42.070000,-8.820000,-21.559999,20.34
177901,0.710040,0.359656,0.510936,-28.139999,-13.510000,-4.550000,20.34
177912,0.742248,0.435784,0.574376,-81.410004,-14.280000,4.200000,20.34
177924,0.770064,0.519720,0.600240,-123.760002,-14.000000,17.360001,20.34
177935,0.812032,0.398208,0.599752,-147.490005,-12.530000,28.490000,20.32
177947,0.846680,0.180072,0.636840,-150.779999,-12.460000,36.610001,20.32
177958,0.838872,0.241560,0.611952,-152.039993,-15.260000,46.130001,20.36
177971,0.879376,0.264496,0.575840,-151.899994,-18.830000,52.709999,20.31
177984,0.903288,0.243024,0.575840,-140.210007,-19.740000,55.160000,20.31
177996,0.884744,0.268400,0.556808,-130.130005,-17.920000,55.580002,20.35
178007,0.890600,0.101504,0.477752,-114.239998,-12.180000,51.660000,20.35
178019,0.883768,-0.060024,0.401624,-85.959999,-6.860000,45.500000,20.31
178030,0.876448,-0.183000,0.343552,-51.029999,-2.100000,37.310001,20.34
178042,0.873032,-0.280112,0.337208,-4.130000,1.330000,27.160000,20.34
178055,0.856928,-0.301096,0.382592,14.700000,4.480000,13.580000,20.31
178068,0.861808,-0.314272,0.446520,40.320000,8.190000,3.290000,20.34
178082,0.857416,-0.178608,0.510448,41.369999,9.520000,-7.280000,20.34
178093,0.827648,-0.158112,0.551440,40.250000,10.150000,-19.389999,20.33
178105,0.838872,-0.232288,0.579256,52.080002,9.380000,-31.709999,20.36
178116,0.860832,-0.276696,0.607560,77.139999,8.400000,-42.700001,20.36
178127,0.882304,-0.312808,0.596336,105.910004,9.030000,-50.400002,20.37
178139,0.882792,-0.319640,0.603656,136.500000,9.660000,-53.340000,20.32
178151,0.874008,-0.231312,0.590480,162.960007,8.820000,-55.299999,20.32
178163,0.860832,-0.087352,0.585112,172.970001,6.580000,-53.689999,20.32
178174,0.841312,-0.017568,0.579744,167.929993,5.880000,-50.610001,20.32
178185,0.819352,-0.003416,0.564128,151.059998,6.930000,-43.119999,20.32
178198,0.753960,0.078568,0.594872,97.930000,2.660000,-34.020000,20.33
178212,0.723704,0.317200,0.560712,32.549999,-6.090000,-17.500000,20.33
178224,0.752984,0.371856,0.530456,-47.669998,-10.570000,-3.360000,20.35
178237,0.784704,0.356728,0.559736,-84.279999,-10.430000,9.800000,20.33
178249,0.800320,0.305976,0.586576,-112.980003,-11.410000,18.760000,20.33
178263,0.822768,0.230336,0.597312,-127.120003,-12.670000,29.260000,20.34
178274,0.856928,0.191784,0.589992,-133.210007,-12.740000,38.990002,20.33
178286,0.855464,0.150304,0.608048,-135.660004,-16.030001,44.029999,20.33
178298,0.881328,0.151768,0.608048,-129.919998,-17.990000,47.250000,20.30
178309,0.905240,0.210328,0.597800,-126.489998,-19.320000,51.099998,20.33
178320,0.898896,0.215208,0.582672,-122.919998,-17.219999,51.240002,20.33
178331,0.879376,0.135664,0.541192,-113.820000,-13.230000,49.209999,20.30
178343,0.870104,0.000000,0.480680,-97.790001,-8.260000,44.169998,20.30
178354,0.859368,-0.160064,0.433344,-68.599998,-3.850000,35.560001,20.29
178365,0.863760,-0.316224,0.397232,-28.700001,-1.610000,25.620001,20.32
178377,0.862296,-0.318664,0.377224,9.730000,0.700000,15.680000,20.32
178388,0.868152,-0.304512,0.390888,40.529999,4.200000,5.320000,20.36
178400,0.865224,-0.165920,0.430904,52.639999,8.050000,-0.910000,20.29
178411,0.843264,-0.054168,0.475800,48.650002,10.990000,-9.730000,20.29
178423,0.824232,-0.097112,0.528016,50.889999,11.690000,-20.580000,20.30
178434,0.837896,-0.205936,0.577304,74.059998,10.780000,-31.360001,20.30
178445,0.869128,-0.242536,0.603656,98.839996,9.380000,-41.230000,20.33
178457,0.894016,-0.310856,0.620248,134.889999,10.360000,-48.230000,20.29
178467,0.880840,-0.285968,0.629520,168.070007,10.710000,-50.959999,20.29
178479,0.862296,-0.151280,0.629520,186.479996,9.450000,-50.750000,20.33
178490,0.854488,-0.078568,0.593408,187.320007,8.400000,-48.580002,20.33
178501,0.812520,0.024400,0.592920,163.449997,6.160000,-41.790001,20.30
178512,0.788608,0.061000,0.561200,132.649994,2.450000,-34.860001,20.34
178524,0.763720,0.055632,0.535336,87.080002,0.210000,-25.900000,20.34
178535,0.756400,0.148840,0.499224,35.419998,-3.220000,-16.170000,20.33
178546,0.744688,0.294752,0.505080,-23.379999,-7.700000,-2.940000,20.33
178557,0.749568,0.364536,0.542656,-66.639999,-11.270000,10.780000,20.34
178568,0.763720,0.410408,0.611952,-112.699997,-13.440000,21.280001,20.33
178579,0.794464,0.388936,0.639280,-140.630005,-12.320000,30.660000,20.33
178590,0.803248,0.263032,0.654896,-143.289993,-13.230000,36.610001,20.30
178601,0.831064,0.215208,0.653920,-134.259995,-14.840000,41.720001,20.30
178613,0.852048,0.257664,0.610488,-132.580002,-17.219999,47.320000,20.37
178624,0.880840,0.203008,0.539240,-123.690002,-18.410000,48.930000,20.32
178635,0.890600,0.118584,0.509472,-102.970001,-16.940001,48.090000,20.32
178647,0.887672,0.121512,0.480192,-85.190002,-13.580000,47.389999,20.31
178658,0.880840,0.033672,0.464088,-65.449997,-9.800000,43.680000,20.31
178669,0.866688,-0.026840,0.451400,-47.880001,-5.180000,36.400002,20.33
178681,0.858392,-0.132736,0.422120,-32.340000,-2.380000,27.160000,20.29
178692,0.859368,-0.176168,0.414800,-11.200000,-0.560000,17.150000,20.29
178703,0.860832,-0.260592,0.479216,12.110000,-0.140000,8.190000,20.27
178715,0.865712,-0.321104,0.524600,38.570000,3.010000,-5.320000,20.27
178726,0.858392,-0.333792,0.567544,67.620003,4.270000,-14.980000,20.31
178738,0.870592,-0.378200,0.561200,100.519997,5.110000,-27.160000,20.32
178749,0.879376,-0.367464,0.576816,130.619995,6.370000,-35.840000,20.32
178761,0.874496,-0.385032,0.579256,160.440002,7.700000,-44.799999,20.36
178772,0.863760,-0.266448,0.603656,174.649994,6.930000,-48.650002,20.30
178784,0.848632,-0.176168,0.627568,170.940002,5.460000,-49.770000,20.30
178796,0.806176,-0.040992,0.628056,140.979996,2.590000,-47.040001,20.33
178807,0.794464,0.007808,0.588040,90.720001,-1.120000,-41.090000,20.33
178818,0.773480,0.035624,0.548512,44.240002,-4.550000,-32.060001,20.30
178830,0.751032,0.129808,0.501664,-27.160000,-8.400000,-21.559999,20.29
178842,0.779824,0.085400,0.447008,-63.840000,-7.560000,-10.570000,20.29
178855,0.772016,0.178120,0.506056,-92.540001,-8.470000,6.160000,20.29
178867,0.786656,0.288408,0.575840,-119.349998,-11.410000,19.180000,20.27
178878,0.818376,0.309392,0.630496,-141.119995,-10.710000,28.420000,20.27
178889,0.847656,0.240584,0.690520,-145.740005,-8.610000,36.610001,20.36
178902,0.862784,0.288408,0.694424,-144.619995,-11.690000,41.230000,20.36
178914,0.897432,0.243512,0.625128,-136.779999,-12.600000,45.779999,20.31
178926,0.875472,0.231312,0.538752,-120.959999,-10.290000,45.779999,20.36
178938,0.883768,0.157624,0.444568,-98.980003,-5.460000,42.910000,20.36
178949,0.875472,-0.012688,0.373808,-74.620003,1.680000,36.889999,20.30
178961,0.848144,-0.151280,0.351360,-34.439999,7.700000,27.230000,20.37
178972,0.845216,-0.263032,0.364536,7.420000,11.900000,16.030001,20.37
178983,0.843264,-0.211304,0.426512,40.950001,14.140000,5.950000,20.34
178995,0.831064,-0.156648,0.497760,54.880001,17.290001,-4.410000,20.34
179006,0.822280,-0.213744,0.580720,67.059998,18.690001,-13.090000,20.31
179017,0.811544,-0.191296,0.650016,76.510002,16.660000,-24.080000,20.33
179028,0.825696,-0.196664,0.698328,93.169998,13.650000,-35.349998,20.33
179039,0.839360,-0.141032,0.704672,106.190002,10.430000,-42.630001,20.30
179051,0.866688,-0.183488,0.693448,121.940002,7.420000,-46.200001,20.30
179062,0.883768,-0.185440,0.632448,137.830002,5.740000,-49.770000,20.31
179073,0.891088,-0.210328,0.555344,142.100006,8.540000,-44.939999,20.30
179085,0.833992,-0.210816,0.549000,126.839996,5.810000,-38.919998,20.30
179096,0.766648,-0.049776,0.584624,97.790001,-1.750000,-27.299999,20.37
179107,0.734928,0.207400,0.650992,37.169998,-9.520000,-14.910000,20.37
179118,0.747616,0.283040,0.659288,-23.379999,-13.580000,-2.940000,20.29
179130,0.762744,0.246440,0.691496,-69.650002,-15.260000,3.780000,20.32
179141,0.777872,0.313296,0.651968,-108.430000,-18.620001,14.000000,20.32
179152,0.803248,0.270352,0.635864,-130.619995,-20.160000,21.350000,20.32
179164,0.850584,0.219112,0.601216,-138.320007,-18.620001,29.469999,20.32
179176,0.884256,0.130296,0.517280,-132.789993,-16.870001,35.349998,20.32
179187,0.889136,0.041480,0.499224,-109.900002,-15.820000,36.680000,20.32
179199,0.868640,0.177632,0.523136,-94.220001,-15.820000,39.759998,20.32
179210,0.867176,0.221064,0.536312,-86.169998,-12.180000,40.389999,20.32
179222,0.853024,0.056608,0.522648,-73.150002,-6.860000,36.049999,20.32
179234,0.843752,-0.072224,0.488976,-52.500000,-3.080000,29.610001,20.32
179245,0.850584,-0.175192,0.463112,-31.990000,0.140000,21.209999,20.34
179257,0.843752,-0.184952,0.455304,-11.970000,1.750000,11.830000,20.34
179269,0.840336,-0.047824,0.461160,0.490000,4.760000,5.670000,20.28
179280,0.825208,-0.145424,0.495320,15.680000,7.700000,-4.830000,20.32
179292,0.836920,-0.262544,0.540216,55.509998,7.980000,-16.520000,20.32
179304,0.853024,-0.290848,0.589992,118.160004,6.930000,-29.120001,20.30
179315,0.879376,-0.352824,0.642696,144.550003,6.720000,-40.389999,20.35
179327,0.884744,-0.333304,0.671488,185.289993,6.790000,-47.389999,20.35
179338,0.878888,-0.229360,0.660752,211.330002,7.000000,-48.790001,20.32
179350,0.836432,-0.095160,0.642208,207.199997,5.390000,-45.919998,20.32
179362,0.806664,0.013664,0.645624,177.240005,0.420000,-39.619999,20.31
179373,0.772992,0.046360,0.610976,127.750000,-3.920000,-34.230000,20.31
179384,0.771040,0.044896,0.567056,73.570000,-7.770000,-25.270000,20.31
179396,0.752984,0.107848,0.524600,20.090000,-10.640000,-13.720000,20.31
179408,0.759816,0.176168,0.515816,-36.189999,-12.390000,-1.470000,20.30
179421,0.764208,0.233752,0.489952,-89.459999,-15.120000,9.170000,20.30
179433,0.784704,0.294752,0.527528,-122.709999,-18.760000,18.760000,20.34
179444,0.803736,0.258640,0.583648,-145.669998,-17.920000,28.700001,20.30
179456,0.839848,0.157136,0.641232,-151.619995,-16.030001,33.810001,20.30
179467,0.814960,0.143960,0.667584,-145.669998,-17.430000,37.240002,20.33
179479,0.858880,0.240096,0.605120,-140.839996,-20.299999,42.139999,20.33
179490,0.887184,0.183976,0.560712,-133.419998,-17.570000,44.380001,20.36
179502,0.874496,0.154208,0.532896,-117.040001,-14.560000,44.240002,20.31
179514,0.869128,0.092720,0.485072,-106.190002,-10.920000,41.020000,20.31
179526,0.856928,-0.090280,0.452864,-74.690002,-6.090000,33.810001,20.33
179538,0.846192,-0.195200,0.434320,-42.209999,-3.290000,26.180000,20.29
179549,0.850584,-0.280112,0.414312,-8.960000,-0.490000,16.240000,20.29
179561,0.843264,-0.252784,0.429928,16.450001,2.520000,5.460000,20.28
179572,0.855952,-0.162504,0.458720,30.100000,6.300000,-2.660000,20.28
179584,0.839848,-0.090280,0.502152,38.709999,9.730000,-12.950000,20.38
179596,0.815448,-0.157136,0.554368,57.959999,10.150000,-24.500000,20.32
179607,0.846192,-0.254736,0.602192,92.120003,9.520000,-36.470001,20.32
179619,0.867664,-0.305976,0.610976,130.270004,10.640000,-47.389999,20.34
179632,0.878888,-0.300120,0.626104,167.440002,10.710000,-54.040001,20.33
179643,0.880840,-0.232776,0.631472,194.389999,10.780000,-56.139999,20.33
179655,0.880352,-0.177144,0.578768,210.699997,9.380000,-57.330002,20.33
179667,0.850584,-0.161528,0.519232,208.669998,10.290000,-53.480000,20.33
179678,0.772016,0.034648,0.535336,178.009995,3.290000,-44.450001,20.31
179689,0.737368,0.235704,0.595848,118.440002,-5.250000,-35.139999,20.30
179703,0.750544,0.366000,0.599264,31.850000,-9.590000,-21.840000,20.30
179715,0.752984,0.364048,0.582184,-28.910000,-9.660000,-9.520000,20.33
179726,0.780800,0.298168,0.518744,-71.400002,-11.550000,2.660000,20.32
179738,0.761768,0.331840,0.534848,-100.940002,-14.770000,16.870001,20.32
179750,0.804712,0.316224,0.583648,-122.360001,-16.590000,25.410000,20.34
179761,0.809592,0.346968,0.607560,-136.429993,-17.639999,34.860001,20.31
179773,0.847168,0.268400,0.599264,-140.770004,-17.920000,40.740002,20.31
179785,0.864736,0.205936,0.590480,-140.630005,-17.990000,46.759998,20.35
179796,0.867664,0.173728,0.567056,-135.520004,-19.250000,49.630001,20.35
179808,0.885232,0.110776,0.572912,-126.070000,-20.580000,52.990002,20.30
179820,0.882792,0.128832,0.565592,-117.040001,-17.500000,53.759998,20.32
179831,0.880840,0.097112,0.545584,-108.779999,-14.350000,54.110001,20.32
179842,0.881816,-0.042456,0.483608,-96.320000,-10.010000,47.880001,20.35
179854,0.860832,-0.148840,0.426512,-74.199997,-7.840000,40.529999,20.35
179865,0.869616,-0.245952,0.406504,-47.810001,-5.180000,31.639999,20.32
179877,0.865224,-0.320128,0.414800,-21.840000,-2.590000,21.420000,20.31
179888,0.850584,-0.341600,0.434808,2.730000,-0.770000,11.130000,20.31
179900,0.856440,-0.269864,0.445056,19.250000,2.240000,1.260000,20.34
179911,0.855952,-0.139080,0.449936,19.459999,5.950000,-6.090000,20.31
179923,0.843752,-0.153232,0.464088,21.280001,8.960000,-15.890000,20.31
179935,0.832040,-0.235216,0.512888,41.160000,9.660000,-29.260000,20.35
179947,0.837408,-0.266448,0.568032,74.339996,9.310000,-39.900002,20.35
179958,0.862296,-0.310368,0.582184,114.169998,10.360000,-47.810001,20.34
179971,0.884256,-0.311832,0.626592,156.800003,10.570000,-52.709999,20.35
179982,0.890112,-0.318176,0.593408,202.369995,11.690000,-58.450001,20.35
179993,0.870592,-0.152256,0.585600,219.309998,10.640000,-56.490002,20.34
180005,0.832528,-0.010248,0.553392,192.919998,7.560000,-48.790001,20.30
180016,0.795440,0.013176,0.535824,137.410004,3.500000,-40.810001,20.30
180028,0.751520,0.078568,0.558272,65.169998,-2.030000,-27.860001,20.33
180039,0.701744,0.277184,0.612440,-16.520000,-10.990000,-13.230000,20.33
180051,0.710528,0.411384,0.639768,-85.050003,-18.480000,-0.210000,20.30
180062,0.793000,0.356728,0.607560,-125.510002,-18.549999,12.880000,20.28
180075,0.813496,0.236192,0.622688,-147.770004,-18.270000,23.660000,20.28
180086,0.834480,0.218136,0.606584,-154.000000,-19.740000,30.379999,20.29
180098,0.869128,0.203984,0.610000,-153.509995,-18.480000,38.220001,20.30
180109,0.874984,0.188368,0.568520,-144.550003,-19.670000,43.189999,20.30
180120,0.888160,0.151280,0.585112,-127.750000,-18.969999,44.799999,20.31
180132,0.874496,0.204960,0.547536,-109.620003,-16.030001,44.450001,20.31
180144,0.866200,0.037088,0.508008,-80.849998,-9.800000,39.830002,20.32
180155,0.849608,-0.043920,0.453352,-49.700001,-5.950000,33.599998,20.32
180167,0.863272,-0.191784,0.391864,-19.459999,-1.260000,24.360001,20.32
180178,0.861320,-0.279136,0.378200,3.710000,1.610000,14.770000,20.33
180191,0.859856,-0.280600,0.407968,30.379999,5.320000,3.500000,20.31
180202,0.864736,-0.258152,0.450424,44.799999,8.470000,-4.480000,20.31
180214,0.844728,-0.203984,0.477264,53.970001,10.850000,-14.350000,20.35
180225,0.836432,-0.084424,0.535336,52.779999,11.830000,-23.309999,20.35
180237,0.829600,-0.037576,0.600240,52.360001,10.990000,-31.780001,20.33
180248,0.844728,-0.142496,0.647088,64.820000,9.450000,-40.180000,20.29
180260,0.868152,-0.240584,0.623176,96.739998,9.590000,-49.000000,20.29
180271,0.890600,-0.269864,0.629032,135.449997,8.960000,-52.220001,20.34
180283,0.874008,-0.194712,0.651480,166.320007,8.260000,-54.250000,20.34
180295,0.869128,-0.139568,0.618784,190.889999,7.560000,-53.689999,20.29
180306,0.830576,-0.017080,0.587064,193.550003,5.880000,-49.419998,20.29
180318,0.801784,0.101504,0.581208,176.960007,2.450000,-42.490002,20.29
180329,0.770552,0.188368,0.591456,147.000000,-2.730000,-34.230000,20.32
180340,0.748592,0.364048,0.623176,90.510002,-8.540000,-25.410000,20.29
180352,0.750056,0.483120,0.616832,13.790000,-13.230000,-13.510000,20.29
180364,0.778848,0.379176,0.546072,-53.900002,-13.230000,-1.610000,20.33
180375,0.787632,0.222040,0.483608,-94.570000,-13.930000,8.960000,20.33
180386,0.806176,0.146400,0.437248,-120.889999,-15.260000,20.299999,20.37
180398,0.815936,0.132248,0.392840,-137.059998,-19.530001,28.700001,20.32
180409,0.837408,0.208376,0.472384,-148.190002,-22.680000,37.869999,20.32
180420,0.875960,0.293288,0.550952,-159.880005,-20.580000,46.689999,20.31
180432,0.888648,0.267912,0.632936,-163.029999,-19.110001,50.330002,20.31
180443,0.890600,0.181048,0.679784,-153.929993,-18.340000,53.619999,20.32
180455,0.878400,0.172264,0.668560,-142.800003,-18.480000,56.139999,20.30
180467,0.899872,0.099064,0.586576,-126.839996,-18.830000,55.160000,20.30
180478,0.896456,0.080032,0.472384,-107.239998,-17.709999,52.290001,20.34
180490,0.893528,-0.039040,0.417728,-84.910004,-13.790000,47.459999,20.28
180501,0.866688,-0.118096,0.391376,-56.490002,-9.380000,38.639999,20.28
180513,0.868152,-0.210816,0.369416,-23.730000,-5.180000,31.990000,20.35
180524,0.862784,-0.305000,0.378688,10.150000,-1.330000,22.330000,20.35
180536,0.857416,-0.371368,0.397720,40.110001,1.400000,10.640000,20.32
180547,0.860832,-0.232288,0.440176,52.709999,4.410000,-0.280000,20.28
180558,0.859368,-0.178120,0.461160,52.430000,8.330000,-8.050000,20.28
180570,0.836432,-0.261568,0.491416,87.570000,11.340000,-20.790001,20.36
180582,0.808128,-0.168848,0.550464,94.639999,9.100000,-32.130001,20.36
180593,0.848632,-0.224480,0.594872,126.419998,9.450000,-42.560001,20.36
180604,0.869616,-0.292800,0.616832,165.550003,10.010000,-55.509998,20.32
180616,0.882792,-0.281088,0.611464,205.520004,9.660000,-60.900002,20.32
180627,0.889136,-0.166896,0.619760,226.240005,8.400000,-63.349998,20.32
180639,0.871080,-0.037088,0.644160,219.660004,6.440000,-60.410000,20.29
180651,0.818864,0.048800,0.596336,181.440002,3.150000,-36.400002,20.29
180662,0.793976,-0.051240,0.541192,130.059998,0.840000,-46.270000,20.30
180673,0.733464,0.012688,0.488976,70.419998,-5.180000,-32.200001,20.30
180684,0.685640,0.312808,0.500200,5.600000,-14.420000,-15.190000,20.35
180695,0.732488,0.371856,0.526064,-64.610001,-17.010000,1.260000,20.35
180707,0.773480,0.388448,0.524112,-111.230003,-16.100000,11.620000,20.35
180718,0.802760,0.395768,0.534360,-148.889999,-16.450001,24.290001,20.32
180730,0.825696,0.280112,0.594384,-171.639999,-17.290001,33.040001,20.32
180742,0.830088,0.248880,0.653432,-181.300003,-17.920000,39.830002,20.30
180754,0.836432,0.298168,0.664656,-187.250000,-21.490000,45.849998,20.31
180765,0.907192,0.169824,0.585112,-179.270004,-22.540001,47.529999,20.31
180777,0.913048,0.126880,0.549976,-157.990005,-21.420000,47.180000,20.35
180788,0.891088,0.155672,0.508984,-133.000000,-17.780001,45.430000,20.33
180799,0.889624,0.061488,0.459696,-100.589996,-11.830000,39.970001,20.33
180811,0.870592,-0.038552,0.375760,-59.919998,-4.970000,31.709999,20.31
180823,0.873520,-0.166408,0.337696,-17.290001,1.610000,21.559999,20.31
180834,0.866688,-0.287432,0.322080,28.139999,7.070000,8.470000,20.34
180847,0.872544,-0.131760,0.381128,52.360001,10.290000,-0.910000,20.34
180859,0.863760,-0.222040,0.472384,72.099998,15.330000,-14.770000,20.34
180871,0.858392,-0.287920,0.549976,100.449997,15.260000,-28.209999,20.30
180882,0.862784,-0.290360,0.606584,126.209999,14.210000,-39.830002,20.30
180894,0.875472,-0.275232,0.631472,150.289993,13.090000,-49.490002,20.30
180905,0.885232,-0.205936,0.655872,163.100006,11.550000,-53.759998,20.34
180916,0.867664,-0.168360,0.667096,169.960007,9.800000,-55.090000,20.34
180928,0.859856,-0.075640,0.623176,163.660004,7.000000,-55.090000,20.32
180940,0.846680,-0.062464,0.562664,150.009995,5.250000,-52.919998,20.32
180951,0.808616,0.024400,0.538752,127.889999,2.100000,-47.740002,20.32
180962,0.774944,0.133224,0.534848,75.879997,-1.540000,-38.430000,20.34
180974,0.756888,0.261568,0.508008,38.430000,-5.670000,-26.740000,20.34
180985,0.758352,0.306952,0.511912,-13.230000,-6.510000,-13.580000,20.33
180996,0.755424,0.313784,0.544608,-60.830002,-7.910000,-0.210000,20.34
181008,0.758352,0.399184,0.528016,-103.669998,-11.270000,12.180000,20.34
181021,0.793488,0.391864,0.565104,-137.759995,-15.050000,24.010000,20.36
181033,0.831064,0.310856,0.597312,-147.419998,-14.140000,30.520000,20.35
181046,0.840824,0.264984,0.647576,-147.139999,-15.610000,38.220001,20.35
181058,0.871568,0.255712,0.622200,-152.880005,-16.309999,45.849998,20.30
181071,0.910608,0.069296,0.570960,-143.289993,-17.010000,49.419998,20.29
181083,0.895968,0.051240,0.560712,-124.739998,-20.160000,49.630001,20.29
181095,0.913048,0.153720,0.533384,-113.540001,-20.370001,51.310001,20.30
181107,0.903776,0.152744,0.513864,-104.440002,-15.890000,50.259998,20.35
181120,0.882792,0.031232,0.452376,-87.150002,-9.940000,42.910000,20.35
181131,0.868152,-0.112728,0.400648,-58.730000,-4.690000,36.400002,20.30
181143,0.864736,-0.240096,0.368928,-23.730000,-1.330000,24.080000,20.28
181155,0.858880,-0.288408,0.362096,10.290000,1.890000,12.600000,20.28
181166,0.867176,-0.247416,0.386496,32.410000,4.340000,4.830000,20.33
181178,0.865712,-0.263520,0.432368,51.869999,8.750000,-2.870000,20.33
181189,0.832528,-0.128832,0.503616,60.270000,9.870000,-12.670000,20.32
181200,0.837896,-0.148840,0.559736,70.699997,10.220000,-22.889999,20.31
181212,0.833016,-0.196176,0.627080,91.000000,10.780000,-34.720001,20.31
181223,0.850096,-0.248880,0.653920,113.190002,9.660000,-43.119999,20.34
181235,0.869128,-0.280112,0.649040,146.300003,8.470000,-49.419998,20.34
181246,0.889624,-0.262056,0.632448,179.059998,8.470000,-52.849998,20.32
181258,0.884256,-0.187392,0.593896,204.119995,8.190000,-55.439999,20.31
181269,0.852048,-0.039040,0.570472,202.860001,6.370000,-51.380001,20.31
181281,0.814472,0.116144,0.503616,155.539993,1.680000,-43.470001,20.32
181293,0.795928,0.059048,0.487512,100.940002,-2.030000,-32.619999,20.33
181304,0.734440,0.156648,0.520208,44.029999,-8.190000,-21.840000,20.33
181315,0.733464,0.333304,0.571448,-22.190001,-11.970000,-10.010000,20.33
181327,0.769088,0.314272,0.583648,-74.550003,-12.460000,5.180000,20.33
181339,0.772992,0.310368,0.569496,-109.059998,-13.440000,15.470000,20.33
181351,0.809592,0.300608,0.557296,-132.020004,-14.070000,26.180000,20.32
181362,0.819840,0.273280,0.547048,-149.100006,-15.330000,34.090000,20.32
181374,0.848144,0.205936,0.573400,-149.309998,-15.400000,39.970001,20.33
181386,0.859368,0.254248,0.600240,-147.630005,-17.219999,43.400002,20.34
181398,0.892064,0.182512,0.557784,-143.710007,-15.190000,47.459999,20.34
181409,0.896944,0.047336,0.558272,-120.889999,-13.580000,47.389999,20.33
181421,0.874496,0.065880,0.562664,-95.550003,-13.650000,47.110001,20.33
181432,0.881816,0.061488,0.495320,-82.250000,-11.130000,44.380001,20.30
181444,0.875472,-0.077104,0.444080,-65.029999,-6.510000,38.639999,20.30
181456,0.865224,-0.173240,0.411384,-45.220001,-3.500000,31.570000,20.30
181468,0.865712,-0.242536,0.402112,-24.850000,17.430000,22.680000,20.32
181479,0.853512,-0.287432,0.423096,-3.850000,2.240000,12.320000,20.32
181492,0.848144,-0.273280,0.437736,17.990000,6.300000,1.890000,20.32
181505,0.854976,-0.132248,0.462136,33.040001,9.870000,-8.260000,20.32
181517,0.836920,-0.125904,0.482144,49.560001,12.530000,-19.110001,20.33
181529,0.839848,-0.138104,0.533872,84.349998,14.140000,-31.360001,20.33
181542,0.865224,-0.265472,0.618784,123.410004,14.980000,-42.700001,20.34
181553,0.869616,-0.287432,0.666608,163.520004,14.630000,-49.840000,20.32
181565,0.883768,-0.275720,0.686128,196.419998,13.370000,-55.090000,20.32
181577,0.879376,-0.239120,0.661728,222.039993,12.390000,-57.049999,20.31
181589,0.864736,-0.267912,0.618296,241.990005,14.070000,-58.240002,20.31
181600,0.807640,-0.121024,0.591944,234.850006,10.850000,-52.220001,20.33
181611,0.744200,0.191784,0.539240,172.970001,1.680000,-42.279999,20.29
181623,0.776408,0.235704,0.487512,90.650002,-4.690000,-30.940001,20.29
181635,0.734440,0.342088,0.456768,0.980000,-8.890000,-16.030001,20.32
181646,0.720776,0.384544,0.486048,-78.680000,-16.100000,0.280000,20.32
181658,0.760792,0.427000,0.564128,-138.809998,-19.110001,13.860000,20.32
181669,0.790072,0.364536,0.601216,-172.899994,-20.719999,23.660000,20.30
181681,0.827160,0.271816,0.617808,-189.139999,-21.070000,32.060001,20.30
181692,0.862296,0.218136,0.633912,-196.350006,-21.070000,40.810001,20.29
181704,0.878400,0.169824,0.657824,-188.160004,-21.070000,46.340000,20.35
181715,0.884744,0.246440,0.587552,-176.960007,-23.379999,50.540001,20.35
181726,0.921344,0.201056,0.550952,-154.490005,-23.170000,52.570000,20.31
181738,0.895480,0.241072,0.512888,-128.520004,-19.320000,50.470001,20.31
181749,0.888160,0.154208,0.447008,-103.459999,-11.690000,46.410000,20.35
181760,0.866200,-0.039040,0.397720,-66.290001,-4.550000,38.430000,20.34
181772,0.860344,-0.194712,0.347456,-22.330000,0.700000,28.280001,20.34
181783,0.859368,-0.231800,0.335256,13.440000,4.970000,16.660000,20.35
181795,0.855952,-0.162016,0.379664,32.340000,8.960000,6.930000,20.35
181806,0.859368,-0.204960,0.453352,42.910000,13.370000,-2.940000,20.28
181818,0.832040,-0.249368,0.517280,63.700001,13.720000,-16.030001,20.26
181829,0.848632,-0.222040,0.567056,82.320000,12.600000,-27.299999,20.26
181841,0.860344,-0.268400,0.599752,103.809998,12.740000,-38.009998,20.36
181853,0.870592,-0.291336,0.639280,129.080002,11.550000,-44.730000,20.29
181864,0.873032,-0.244488,0.680760,147.070007,10.850000,-48.439999,20.29
181876,0.852536,-0.183976,0.670024,159.600006,8.960000,-49.840000,20.37
181887,0.849120,-0.142008,0.608048,163.589996,7.210000,-48.720001,20.37
181898,0.825208,-0.060024,0.580232,154.000000,4.270000,-44.099998,20.32
181910,0.785680,0.113704,0.571448,119.419998,-0.420000,-35.980000,20.29
181921,0.786168,0.158112,0.543632,71.680000,-3.570000,-28.000000,20.29
181933,0.774456,0.172264,0.549000,19.110001,-5.600000,-17.430000,20.32
181944,0.741272,0.255712,0.541680,-22.889999,-11.410000,-6.370000,20.32
181956,0.769576,0.314272,0.541680,-74.550003,-14.070000,7.350000,20.32
181967,0.804224,0.237656,0.560224,-110.110001,-15.610000,16.520000,20.28
181979,0.820816,0.189344,0.577304,-123.830002,-16.170000,21.910000,20.28
181991,0.832528,0.267424,0.576328,-130.339996,-17.570000,30.170000,20.32
182003,0.868152,0.240096,0.567056,-130.479996,-17.430000,35.349998,20.33
182014,0.873520,0.196664,0.579744,-122.639999,-16.870001,40.810001,20.33
182026,0.881816,0.192760,0.560712,-114.449997,-16.730000,43.400002,20.35
182037,0.896456,0.134200,0.540216,-106.959999,-14.000000,44.380001,20.35
182049,0.751032,0.050264,0.525088,-86.449997,-12.040000,42.070000,20.27
182061,0.874496,0.037088,0.523136,-67.900002,-10.430000,39.549999,20.33
182072,0.870104,-0.062464,0.483608,-51.450001,-7.350000,33.740002,20.33
182084,0.867176,-0.188856,0.446032,-29.889999,-3.220000,26.459999,20.34
182095,0.869616,-0.238632,0.421632,-5.810000,0.280000,17.780001,20.34
182107,0.861320,-0.225456,0.420168,16.590000,3.780000,7.980000,20.34
182119,0.852048,-0.106384,0.448960,26.950001,7.140000,-0.630000,20.37
182131,0.847168,-0.103456,0.498248,32.130001,10.010000,-8.890000,20.37
182142,0.849608,-0.192272,0.550952,44.799999,11.410000,-20.020000,20.31
182154,0.833504,-0.281088,0.584624,72.449997,10.290000,-32.689999,20.31
182165,0.870104,-0.331840,0.615368,107.029999,9.800000,-41.020000,20.31
182176,0.875472,-0.325496,0.639768,138.880005,8.960000,-45.570000,20.37
182187,0.864736,-0.232776,0.642696,157.850006,8.400000,-48.580002,20.33
182199,0.863760,-0.148840,0.597800,163.940002,5.950000,-50.259998,20.33
182211,0.842288,-0.107360,0.572912,159.529999,4.830000,-48.930000,20.35
182222,0.800320,-0.015128,0.541680,140.210007,2.450000,-44.450001,20.35
182234,0.767136,0.128344,0.560712,95.480003,-2.170000,-34.439999,20.35
182245,0.761768,0.236192,0.555344,34.509998,-7.070000,-24.850000,20.33
182257,0.757864,0.221552,0.537776,-22.680000,-8.050000,-12.460000,20.33
182269,0.754448,0.209840,0.532408,-67.339996,-11.970000,0.140000,20.32
182281,0.760792,0.263520,0.572424,-98.629997,-16.870001,12.320000,20.30
182292,0.793976,0.373320,0.613416,-122.150002,-19.600000,22.400000,20.30
182304,0.839360,0.417240,0.633912,-136.080002,-19.809999,33.459999,20.31
182315,0.866688,0.345016,0.638792,-142.380005,-18.129999,39.549999,20.31
182327,0.872544,0.230824,0.618296,-141.820007,-16.870001,44.240002,20.32
182338,0.887672,0.142008,0.577792,-128.660004,-17.570000,46.549999,20.34
182350,0.884744,0.116144,0.532896,-107.099998,-17.080000,46.689999,20.34
182361,0.898896,0.064904,0.478728,-86.870003,-14.420000,45.639999,20.32
182373,0.890600,-0.009760,0.456768,-71.540001,-10.920000,42.349998,20.32
182384,0.879376,-0.094184,0.448472,-56.349998,-7.840000,37.169998,20.29
182396,0.867176,-0.142008,0.427488,-45.570000,-4.760000,30.799999,20.29
182407,0.865712,-0.254736,0.416752,-31.010000,-1.400000,24.080000,20.29
182419,0.855952,-0.285968,0.420168,-15.330000,0.770000,14.980000,20.34
182430,0.853024,-0.310856,0.427976,2.310000,3.710000,5.950000,20.34
182441,0.848632,-0.153232,0.446520,10.150000,7.280000,-1.960000,20.32
182452,0.846192,-0.084912,0.456768,12.320000,11.620000,-8.330000,20.27
182464,0.830576,-0.127856,0.470920,25.200001,13.720000,-18.200001,20.27
182475,0.825208,-0.174704,0.507032,52.919998,14.210000,-28.280001,20.35
182487,0.853512,-0.266936,0.558760,94.150002,13.860000,-40.040001,20.30
182498,0.881328,-0.327936,0.589016,138.669998,14.910000,-48.090000,20.30
182509,0.871568,-0.291824,0.626592,173.669998,14.980000,-53.830002,20.30
182521,0.853512,-0.211304,0.665632,191.729996,13.720000,-56.840000,20.30
182532,0.833992,-0.107360,0.664656,192.360001,10.220000,-57.330002,20.32
182543,0.832528,-0.061000,0.587064,175.210007,8.470000,-52.360001,20.29
182554,0.792024,-0.031720,0.536800,137.339996,4.690000,-45.709999,20.29
182566,0.737856,0.078568,0.550952,87.290001,-3.150000,-37.660000,20.30
182577,0.730048,0.302560,0.587552,27.020000,-10.780000,-24.780001,20.30
182588,0.745664,0.440664,0.610000,-27.580000,-13.020000,-11.550000,20.32
182600,0.772016,0.380640,0.627568,-56.910000,-13.300000,-0.630000,20.30
182611,0.785680,0.322568,0.589992,-84.910004,-12.950000,8.470000,20.30
182622,0.824232,0.208864,0.528504,-99.750000,-12.460000,16.799999,20.32
182633,0.840336,0.171776,0.507032,-100.099998,-12.670000,23.520000,20.32
182645,0.841312,0.236192,0.530944,-103.250000,-15.400000,31.990000,20.33
182656,0.861808,0.304024,0.595360,-112.349998,-16.170000,38.639999,20.32
182667,0.866688,0.278648,0.636352,-117.669998,-15.750000,43.259998,20.32
182678,0.869128,0.203984,0.616344,-117.879997,-15.470000,45.779999,20.36
182690,0.890112,0.096624,0.584624,-105.419998,-15.190000,45.709999,20.36
182704,0.900360,-0.006832,0.485072,-88.410004,-11.830000,43.540001,20.31
182715,0.892552,-0.099552,0.453352,-69.510002,-9.590000,39.480000,20.31
182727,0.875960,-0.099064,0.434320,-51.099998,-7.770000,17.920000,20.31
182738,0.873032,-0.127368,0.424560,-34.020000,-4.620000,30.170000,20.34
182749,0.864248,-0.189832,0.413824,-12.460000,-0.630000,21.139999,20.34
182761,0.857416,-0.183000,0.432856,6.300000,3.290000,11.620000,20.34
182772,0.848632,-0.182024,0.462136,20.370001,6.300000,3.500000,20.34
182784,0.843752,-0.081984,0.515328,31.290001,9.940000,-4.830000,20.34
182795,0.820816,-0.094672,0.561200,39.830002,11.900000,-14.630000,20.31
182806,0.828624,-0.203008,0.606096,62.369999,12.110000,-22.400000,20.30
182817,0.844728,-0.291824,0.632448,94.290001,11.340000,-33.040001,20.30
182829,0.856928,-0.296216,0.667584,120.260002,9.170000,-40.810001,20.29
182841,0.857904,-0.268888,0.679296,133.979996,6.860000,-45.150002,20.27
182852,0.848144,-0.121024,0.686616,123.129997,1.610000,-44.169998,20.27
182864,0.824720,-0.038552,0.652944,100.660004,-1.190000,-42.770000,20.33
182876,0.814960,-0.094184,0.568032,76.440002,-1.400000,-40.250000,20.33
182887,0.800320,-0.172264,0.500688,54.459999,-2.730000,-37.029999,20.36
182899,0.763720,0.013176,0.445056,17.990000,-6.300000,-25.549999,20.32
182911,0.768600,0.196176,0.460184,-32.480000,-10.850000,-10.780000,20.32
182922,0.785680,0.266448,0.484584,-78.050003,-12.110000,1.190000,20.34
182933,0.793976,0.298656,0.516304,-102.059998,-12.600000,10.290000,20.34
182944,0.814960,0.267424,0.563640,-115.639999,-11.620000,17.639999,20.27
182956,0.828624,0.224480,0.604632,-117.669998,-10.220000,23.520000,20.31
182967,0.845704,0.154208,0.630984,-110.389999,-9.660000,30.940001,20.31
182979,0.862296,0.139080,0.642696,-93.589996,-11.340000,36.680000,20.34
182991,0.878888,0.129808,0.617808,-82.040001,-12.810000,39.480000,20.35
183002,0.890600,0.139568,0.560712,-72.239998,-12.880000,42.000000,20.35
183013,0.899384,0.076616,0.546560,-58.660000,-12.810000,42.840000,20.32
183025,0.886696,0.092232,0.519232,-53.619999,-12.530000,42.279999,20.32
183036,0.879376,0.006832,0.514352,-51.660000,-9.240000,39.480000,20.28
183047,0.865712,-0.108824,0.512400,-45.290001,-6.860000,33.810001,20.32
183059,0.856440,-0.202032,0.494344,-32.830002,-4.480000,26.879999,20.32
183070,0.852536,-0.295240,0.478728,-13.790000,-3.220000,18.549999,20.35
183082,0.848632,-0.342576,0.468968,9.590000,-2.240000,9.730000,20.35
183093,0.844728,-0.278648,0.452864,28.139999,0.630000,1.120000,20.32
183104,0.847656,-0.135664,0.452376,32.830002,4.480000,-4.760000,20.27
183115,0.846680,-0.122976,0.441640,38.849998,9.940000,-11.550000,20.27
183127,0.824720,-0.149816,0.467992,52.430000,11.340000,-21.280001,20.37
183139,0.815448,-0.231800,0.514352,80.779999,10.780000,-33.320000,20.37
183150,0.840336,-0.301584,0.562176,107.589996,10.430000,-44.590000,20.34
183161,0.857904,-0.262056,0.605120,139.089996,9.870000,-52.990002,20.28
183172,0.855952,-0.177632,0.668072,152.179993,8.820000,-54.250000,20.28
183184,0.834968,-0.176656,0.699792,160.580002,7.490000,-56.349998,20.32
183195,0.818376,-0.098576,0.692960,159.039993,4.340000,-56.279999,20.32
183206,0.819352,-0.062952,0.627080,150.500000,1.680000,-54.459999,20.27
183218,0.780800,0.067832,0.538752,126.139999,-1.050000,-46.480000,20.36
183229,0.779824,0.143472,0.479704,81.269997,-3.850000,-35.840000,20.36
183240,0.769576,0.216672,0.466040,31.990000,-6.300000,-25.129999,20.32
183252,0.746152,0.378688,0.502152,-25.760000,-9.380000,-10.500000,20.32
183263,0.752008,0.403576,0.566080,-76.440002,-11.130000,3.430000,20.32
183275,0.782264,0.314760,0.619760,-104.790001,-10.010000,11.060000,20.34
183286,0.786168,0.274256,0.613904,-119.910004,-10.220000,18.969999,20.34
183297,0.826184,0.227408,0.598288,-125.510002,-10.220000,28.070000,20.36
183308,0.865712,0.113704,0.534360,-120.750000,-8.750000,31.780001,20.30
183319,0.886208,0.033184,0.515328,-107.449997,-6.790000,37.099998,20.30
183331,0.870592,0.075640,0.557296,-98.139999,-10.150000,41.299999,20.34
183342,0.891576,0.144936,0.595360,-99.260002,-11.130000,46.060001,20.34
183353,0.897920,0.163968,0.606096,-104.230003,-11.550000,47.950001,20.30
183364,0.910608,0.099064,0.596824,-98.489998,-10.710000,49.209999,20.33
183375,0.890112,0.058560,0.576816,-90.230003,-10.220000,47.950001,20.33
183387,0.884744,-0.013664,0.534360,-80.220001,-7.770000,43.889999,20.34
183398,0.874008,-0.150304,0.487024,-58.029999,-6.300000,37.029999,20.34
183409,0.866688,-0.228872,0.456768,-31.360001,-4.060000,29.400000,20.36
183421,0.860832,-0.280112,0.427000,-8.750000,-2.240000,21.209999,20.33
183432,0.857904,-0.293776,0.419680,17.780001,0.070000,11.550000,20.33
183443,0.853024,-0.241072,0.439688,35.000000,4.200000,2.240000,20.34
183455,0.837896,-0.243512,0.466528,47.599998,7.210000,-8.120000,20.34
183466,0.831552,-0.111264,0.508496,49.560001,9.240000,-13.580000,20.33
183477,0.817888,-0.143960,0.569496,69.860001,10.570000,-21.280001,20.32
183488,0.818864,-0.235704,0.612928,85.610001,9.240000,-31.709999,20.32
183500,0.832528,-0.245952,0.629520,93.660004,8.050000,-40.529999,20.31
183511,0.841800,-0.201056,0.639280,116.410004,6.440000,-46.759998,20.31
183522,0.858880,-0.183976,0.622688,135.869995,5.250000,-48.930000,20.30
183533,0.860832,-0.109800,0.604632,144.970001,4.900000,-49.770000,20.34
183544,0.852536,-0.048800,0.559736,148.050003,3.850000,-47.810001,20.34
183557,0.823744,-0.014640,0.549976,134.610001,3.500000,-42.630001,20.31
183568,0.791536,0.019520,0.551928,110.250000,0.700000,-36.610001,20.32
183579,0.760792,0.097112,0.577792,81.339996,-2.450000,-27.160000,20.32
183590,0.747128,0.232288,0.609024,36.750000,-6.930000,-16.730000,20.34
183602,0.767136,0.277672,0.568520,-11.200000,-7.770000,-4.130000,20.34
183614,0.786656,0.188368,0.576816,-44.450001,-9.590000,6.720000,20.33
183625,0.768600,0.306464,0.560712,-74.129997,-13.020000,15.820000,20.32
183636,0.820328,0.291336,0.550952,-91.769997,-13.440000,23.870001,20.32
183648,0.832040,0.181048,0.575840,-94.430000,-11.900000,28.840000,20.32
183659,0.840336,0.186904,0.606584,-95.760002,-12.320000,35.560001,20.32
183670,0.850096,0.183488,0.612440,-94.570000,-14.490000,41.020000,20.32
183681,0.860832,0.175192,0.588040,-92.959999,-14.770000,43.400002,20.33
183693,0.879376,0.147864,0.565104,-87.150002,-13.440000,45.500000,20.33
183704,0.873032,0.053680,0.534360,-71.889999,-12.250000,44.310001,20.33
183715,0.859856,0.084912,0.497272,-60.759998,-10.290000,42.000000,20.33
183727,0.864248,0.020496,0.468480,-52.290001,-6.160000,38.709999,20.35
183739,0.853024,-0.147376,0.440664,-31.639999,-2.240000,30.379999,20.29
183750,0.865224,-0.270352,0.417240,0.770000,0.700000,21.139999,20.29
183761,0.859368,-0.236680,0.426512,23.379999,3.080000,11.690000,20.33
183772,0.864248,-0.250832,0.451400,47.459999,6.160000,2.380000,20.33
183784,0.852536,-0.187880,0.486048,61.250000,8.470000,-7.210000,20.31
183795,0.836920,-0.126392,0.536312,64.330002,10.920000,-14.980000,20.30
183806,0.833504,-0.168848,0.573400,69.860001,10.850000,-24.219999,20.30
183818,0.834480,-0.233752,0.603656,84.699997,9.730000,-35.349998,20.30
183829,0.840336,-0.207400,0.646600,94.500000,6.860000,-43.400002,20.30
183840,0.837408,-0.213744,0.677832,106.959999,3.920000,-48.720001,20.32
183852,0.846680,-0.197152,0.692960,119.769997,1.610000,-51.310001,20.33
183863,0.841312,-0.120536,0.680272,124.180000,-0.560000,-51.380001,20.33
183875,0.833992,-0.121024,0.630984,127.540001,-1.330000,-51.029999,20.32
183887,0.810080,-0.058072,0.573888,126.629997,-1.540000,-46.970001,20.27
183898,0.788608,0.069296,0.546072,116.410004,-3.570000,-39.549999,20.27
183910,0.754936,0.311832,0.529968,76.930000,-6.650000,-29.260000,20.30
183922,0.777384,0.371856,0.480680,27.299999,-8.330000,-18.340000,20.30
183934,0.785680,0.337208,0.471408,-16.240000,-8.610000,-7.700000,20.33
183945,0.773968,0.348920,0.514840,-57.189999,-9.940000,3.430000,20.30
183957,0.752496,0.364048,0.582184,-92.260002,-14.630000,15.400000,20.30
183968,0.801784,0.223504,0.657824,-107.519997,-13.860000,22.049999,20.32
183980,0.795928,0.341112,0.669048,-124.459999,-14.840000,32.410000,20.30
183991,0.843752,0.234240,0.633912,-132.580002,-17.430000,37.029999,20.30
184002,0.866688,0.187880,0.593896,-131.250000,-18.549999,42.209999,20.28
184013,0.899872,0.154696,0.535824,-131.320007,-19.040001,48.090000,20.28
184025,0.899872,0.128832,0.554856,-124.739998,-20.020000,49.980000,20.30
184036,0.894016,0.162016,0.589016,-118.160004,-18.760000,51.099998,20.31
184047,0.884256,0.149328,0.588040,-114.169998,-15.610000,50.610001,20.31
184058,0.866200,0.003904,0.550952,-100.309998,-12.110000,46.060001,20.31
184069,0.857904,-0.086376,0.488000,-84.559998,-9.380000,38.849998,20.31
184080,0.869128,-0.252784,0.437248,-55.509998,-6.650000,30.030001,20.32
184091,0.860832,-0.305000,0.398208,-22.469999,-5.600000,19.879999,20.30
184102,0.855952,-0.318176,0.405040,4.900000,-3.360000,12.040000,20.30
184114,0.850584,-0.307928,0.437736,23.940001,-0.700000,3.360000,20.32
184125,0.847656,-0.287920,0.462624,33.529999,1.890000,-5.320000,20.32
184136,0.843264,-0.170800,0.477264,34.790001,4.830000,-14.980000,20.34
184147,0.832528,-0.099552,0.491904,27.650000,7.350000,-24.010000,20.29
184159,0.827648,-0.183488,0.488976,35.279999,9.030000,-33.250000,20.29
184170,0.822280,-0.253760,0.509472,63.139999,8.820000,-42.209999,20.32
184182,0.851560,-0.211304,0.537288,94.779999,8.400000,-49.980000,20.32
184193,0.859368,-0.180072,0.577792,120.120003,8.820000,-55.650002,20.32
184205,0.862296,-0.160064,0.574864,159.529999,8.750000,-60.480000,20.28
184217,0.864248,-0.146888,0.568032,182.910004,10.150000,-62.160000,20.28
184228,0.813984,0.036112,0.527528,176.750000,8.260000,-56.209999,20.34
184239,0.794464,0.046848,0.546560,142.029999,6.090000,-45.639999,20.34
184250,0.762256,0.053192,0.537776,84.209999,2.310000,-38.290001,20.31
184261,0.697840,0.164944,0.560224,5.740000,-4.620000,-19.879999,20.30
184272,0.672464,0.328912,0.603168,-60.830002,-15.470000,-0.980000,20.30
184283,0.713456,0.403576,0.659776,-132.020004,-20.370001,15.120000,20.26
184294,0.767624,0.354288,0.723216,-173.460007,-23.030001,28.840000,20.26
184305,0.822280,0.335744,0.738832,-190.610001,-23.520000,38.990002,20.37
184316,0.877424,0.336232,0.711016,-193.059998,-24.920000,49.770000,20.34
184328,0.933544,0.344528,0.637328,-187.039993,-24.080000,56.910000,20.34
184339,0.934520,0.361120,0.548512,-167.440002,-21.209999,64.120003,20.31
184350,0.908656,0.424560,0.502152,-145.110001,-17.290001,66.779999,20.31
184361,0.870104,0.264496,0.418216,-117.250000,-8.610000,62.720001,20.31
184372,0.853512,0.020984,0.335256,-69.089996,-2.520000,57.049999,20.34
184384,0.846192,-0.227896,0.268400,-19.040001,3.010000,46.900002,20.34
184395,0.855952,-0.345992,0.281576,20.370001,6.090000,19.670000,20.28
184406,0.855952,-0.413336,0.376736,42.000000,8.540000,24.709999,20.28
184418,0.846192,-0.372832,0.488488,43.680000,10.010000,9.240000,20.33
184429,0.833016,-0.404064,0.539728,39.970001,11.270000,0.210000,20.34
184440,0.825208,-0.365024,0.582184,38.500000,9.590000,-11.690000,20.34
184452,0.821792,-0.319152,0.589016,44.029999,8.890000,-22.959999,20.29
184463,0.839848,-0.273280,0.594384,54.180000,7.770000,-31.990000,20.29
184475,0.838384,-0.266448,0.586088,77.489998,6.720000,-42.700001,20.27
184486,0.870592,-0.271816,0.585600,112.419998,5.110000,-51.799999,20.32
184497,0.904752,-0.212280,0.588528,146.300003,5.950000,-58.099998,20.32
184508,0.900848,-0.154208,0.596824,173.669998,6.090000,-61.040001,20.29
184519,0.885232,-0.121024,0.574864,189.070007,6.020000,-61.320000,20.29
184531,0.856928,-0.043432,0.574376,194.039993,5.600000,-57.189999,20.32
184542,0.811544,0.014640,0.630984,182.000000,2.800000,-51.029999,20.29
184552,0.758840,0.228872,0.648064,132.369995,-4.620000,-42.840000,20.29
184564,0.773480,0.300120,0.602680,71.959999,-8.260000,-29.049999,20.33
184575,0.775432,0.188856,0.533872,-1.750000,-10.220000,-20.440001,20.33
184586,0.756400,0.173728,0.504592,-58.380001,-12.670000,-4.970000,20.26
184597,0.769088,0.255224,0.494344,-102.760002,-18.410000,6.650000,20.32
184608,0.811056,0.247416,0.505568,-129.500000,-18.340000,19.180000,20.32
184620,0.828136,0.205448,0.560712,-142.380005,-15.750000,29.469999,20.34
184631,0.839360,0.291824,0.617320,-154.139999,-16.520000,38.080002,20.34
184642,0.854976,0.297680,0.619760,-160.929993,-16.379999,43.540001,20.30
184653,0.882304,0.195688,0.623176,-158.059998,-14.910000,50.750000,20.27
184664,0.905728,0.103944,0.617320,-141.330002,-13.650000,53.130001,20.27
184675,0.880352,0.164456,0.575840,-126.070000,-14.700000,55.299999,20.33
184687,0.876448,0.146888,0.519720,-104.650002,-10.500000,52.849998,20.33
184698,0.844728,0.098576,0.434808,-80.779999,-4.130000,47.880001,20.31
184709,0.832528,-0.080032,0.376736,-50.400002,2.100000,40.599998,20.34
184720,0.822280,-0.284992,0.341112,-20.580000,5.880000,27.580000,20.34
184731,0.834968,-0.366000,0.374296,14.980000,8.540000,14.910000,20.32
184742,0.832528,-0.305488,0.431392,35.209999,11.200000,2.380000,20.32
184753,0.828624,-0.248880,0.474824,39.619999,13.790000,-5.110000,20.38
184765,0.814472,-0.228872,0.537776,40.110001,14.000000,-16.660000,20.32
184776,0.801784,-0.165920,0.598288,41.790001,10.850000,-27.020000,20.32
184787,0.814472,-0.226432,0.650504,57.400002,8.960000,-37.660000,20.30
184798,0.841800,-0.354776,0.682224,95.480003,5.390000,-48.580002,20.30
184809,0.871080,-0.312808,0.680760,127.820000,3.920000,-58.099998,20.30
184819,0.886208,-0.233264,0.665144,160.300003,3.640000,-62.090000,20.32
184830,0.876936,-0.153720,0.658800,182.419998,2.520000,-62.650002,20.32
184842,0.864248,-0.025864,0.624152,180.949997,2.030000,-57.330002,20.29
184853,0.827160,-0.015616,0.532408,154.770004,1.470000,-51.590000,20.29
184864,0.789096,0.013176,0.484584,100.449997,-1.610000,-37.939999,20.31
184875,0.690032,0.179584,0.534848,17.360001,-12.740000,-20.370001,20.30
184887,0.707112,0.327936,0.596824,-65.800003,-20.930000,-2.870000,20.30
184898,0.752008,0.291824,0.677832,-123.339996,-21.840000,7.070000,20.30
184909,0.760304,0.474824,0.684176,-169.470001,-25.200001,23.030001,20.30
184920,0.829112,0.247904,0.677832,-184.729996,-23.100000,31.150000,20.30
184931,0.882792,0.068808,0.640256,-169.889999,-20.510000,36.470001,20.32
184943,0.837408,0.229848,0.588528,-156.869995,-25.620001,41.790001,20.32
184954,0.916464,0.220088,0.579744,-139.860001,-25.410000,46.619999,20.29
184965,0.908656,0.223992,0.533384,-117.110001,-23.379999,48.650002,20.29
184976,0.884744,0.295728,0.498248,-88.830002,-19.879999,49.700001,20.32
184987,0.861320,0.192760,0.459696,-60.340000,-11.970000,46.619999,20.29
184998,0.838872,-0.058072,0.430416,-19.950001,-5.530000,38.290001,20.29
185009,0.837896,-0.158112,0.383568,10.150000,-1.190000,24.850000,20.27
185020,0.866200,-0.287432,0.376736,40.040001,0.420000,16.170000,20.27
185031,0.866200,-0.349408,0.439688,66.849998,2.590000,6.790000,20.33
185042,0.848144,-0.213256,0.507520,77.489998,4.620000,-3.500000,20.33
185053,0.846680,-0.112240,0.561200,74.339996,4.410000,-12.390000,20.36
185064,0.861320,-0.241560,0.600728,85.260002,5.180000,-23.870001,20.30
185075,0.871568,-0.351848,0.612928,114.379997,4.130000,-34.580002,20.30
185086,0.893528,-0.390400,0.610488,142.729996,4.270000,-45.009998,20.35
185097,0.917440,-0.423096,0.581208,182.910004,6.510000,-53.689999,20.35
185109,0.907192,-0.288408,0.573400,214.970001,7.910000,-56.560001,20.32
185120,0.880352,-0.158600,0.565104,223.929993,7.350000,-56.000000,20.31
185131,0.827648,0.032696,0.580720,196.070007,3.290000,-50.889999,20.31
185143,0.813984,0.139080,0.567544,146.860001,-1.400000,-44.869999,20.29
185155,0.773968,0.191296,0.544608,88.550003,-6.860000,-37.310001,20.31
185169,0.767136,0.203008,0.476288,12.880000,-10.080000,-24.290001,20.31
185181,0.772992,0.160552,0.487512,-43.119999,-10.080000,-12.110000,20.33
185192,0.749080,0.272304,0.454816,-103.809998,-14.140000,0.700000,20.23
185203,0.769576,0.378200,0.474824,-152.039993,-17.290001,16.730000,20.23
185215,0.822280,0.256688,0.511912,-173.740005,-15.820000,28.350000,20.33
185226,0.835944,0.180560,0.583160,-184.380005,-14.140000,35.700001,20.33
185237,0.840824,0.114192,0.604632,-182.979996,-15.750000,41.860001,20.30
185248,0.885232,0.040016,0.661240,-161.630005,-16.100000,43.820000,20.34
185260,0.863272,0.327936,0.528016,-155.190002,-21.559999,51.799999,20.34
185272,0.932080,0.296704,0.618784,-148.889999,-20.580000,57.189999,20.30
185284,0.898896,0.292800,0.580232,-132.649994,-17.709999,55.930000,20.30
185295,0.860832,0.161040,0.488488,-111.720001,-12.110000,51.310001,20.30
185307,0.851072,-0.098088,0.399184,-73.639999,-6.020000,41.230000,20.30
185318,0.843752,-0.246440,0.336232,-25.620001,-2.520000,31.920000,20.30
185330,0.846680,-0.352336,0.299632,20.719999,0.980000,19.320000,20.26
185341,0.858392,-0.251320,0.333304,47.950001,6.090000,6.160000,20.31
185353,0.864736,-0.162504,0.387472,56.840000,10.220000,-2.520000,20.31
185364,0.834480,-0.250832,0.480680,66.989998,13.300000,-15.470000,20.30
185375,0.818376,-0.319640,0.560224,90.510002,11.970000,-31.290001,20.30
185386,0.855952,-0.326960,0.616832,119.559998,9.660000,-41.299999,20.28
185397,0.874984,-0.293776,0.623176,146.580002,10.150000,-51.099998,20.29
185408,0.894992,-0.218624,0.621712,163.380005,11.410000,-56.279999,20.29
185420,0.890600,-0.187880,0.604632,181.440002,10.850000,-59.430000,20.28
185431,0.878400,-0.057096,0.583648,186.270004,9.100000,-58.660000,20.28
185442,0.860344,-0.006832,0.562664,176.190002,6.860000,-56.700001,20.34
185454,0.824720,0.040016,0.546560,154.070007,5.040000,-50.330002,20.28
185465,0.783728,0.105896,0.528992,117.389999,1.120000,-43.610001,20.28
185477,0.757864,0.159088,0.546072,67.970001,-3.360000,-31.990000,20.32
185488,0.744688,0.321592,0.536312,-0.070000,-7.560000,-18.969999,20.32
185499,0.765672,0.333792,0.515816,-50.820000,-8.750000,-3.080000,20.30
185510,0.753472,0.325496,0.553392,-114.239998,-10.290000,11.970000,20.35
185521,0.780312,0.253272,0.545096,-158.270004,-14.560000,22.120001,20.35
185532,0.787144,0.237168,0.593896,-181.649994,-19.809999,33.250000,20.35
185543,0.831552,0.289384,0.639280,-191.660004,-21.490000,42.000000,20.35
185554,0.879864,0.242536,0.702720,-188.229996,-18.760000,47.950001,20.31
185566,0.878400,0.235704,0.679784,-177.309998,-19.879999,51.240002,20.29
185577,0.934032,0.088328,0.602192,-146.229996,-20.860001,53.549999,20.29
185589,0.904264,0.242536,0.549976,-121.169998,-21.070000,55.160000,20.34
185601,0.908656,0.232288,0.464088,-105.839996,-17.570000,53.480000,20.34
185612,0.875960,0.053680,0.432856,-80.570000,-10.850000,47.669998,20.32
185623,0.852536,-0.110288,0.401136,-37.029999,-6.370000,39.270000,20.31
185634,0.847656,-0.271328,0.382592,-22.820000,-3.220000,28.700001,20.31
185645,0.855952,-0.381616,0.390400,9.170000,-1.330000,16.450001,20.28
185657,0.860344,-0.371856,0.435784,28.840000,-0.420000,5.740000,20.28
185668,0.861808,-0.328912,0.472384,35.419998,2.660000,-3.360000,20.32
185679,0.846680,-0.129808,0.494832,25.690001,4.760000,-11.970000,20.30
185690,0.857416,-0.123464,0.491416,16.240000,7.560000,-19.320000,20.30
185701,0.836920,-0.174704,0.478240,33.040001,7.700000,-30.520000,20.33
185713,0.853024,-0.204472,0.498248,64.400002,7.140000,-41.369999,20.33
185724,0.892064,-0.308416,0.529968,113.959999,8.960000,-48.930000,20.33
185736,0.891576,-0.383568,0.573400,173.320007,10.220000,-58.660000,20.35
185747,0.909632,-0.373320,0.589504,230.089996,13.160000,-63.279999,20.35
185758,0.863272,-0.143960,0.669536,247.800003,12.040000,-62.650002,20.33
185770,0.815936,0.108336,0.702720,200.899994,7.560000,-56.630001,20.33
185781,0.786168,0.115168,0.581696,126.070000,4.620000,-48.439999,20.35
185792,0.753960,-0.034160,0.528992,71.120003,-17.570000,-34.720001,20.38
185804,0.697840,0.107848,0.508984,-8.260000,-8.610000,-17.990000,20.38
185815,0.722728,0.254248,0.488000,-83.230003,-15.610000,-3.990000,20.32
185826,0.779336,0.292312,0.546072,-132.440002,-15.400000,12.740000,20.30
185840,0.812520,0.330864,0.629032,-174.789993,-16.520000,30.730000,20.30
185852,0.850096,0.330376,0.668072,-187.320007,-15.890000,43.259998,20.30
185863,0.879864,0.267912,0.739320,-180.179993,-17.080000,49.910000,20.30
185874,0.914512,0.303048,0.701256,-164.919998,-19.459999,55.509998,20.32
185886,0.915976,0.314760,0.622200,-139.720001,-19.110001,57.889999,20.30
185897,0.894016,0.368928,0.510448,-117.809998,-15.680000,58.169998,20.30
185909,0.857904,0.216184,0.386984,-83.860001,-8.540000,51.240002,20.34
185920,0.851072,-0.003416,0.280600,-40.110001,-1.610000,44.450001,20.32
185931,0.860832,-0.239608,0.231800,6.790000,4.900000,32.340000,20.32
185943,0.865712,-0.314760,0.276208,40.880001,9.800000,21.139999,20.32
185954,0.849608,-0.293776,0.401624,54.180000,12.390000,9.170000,20.32
185965,0.833992,-0.305976,0.523624,55.090000,13.230000,-2.660000,20.33
185977,0.824232,-0.218136,0.600240,49.910000,12.320000,-13.090000,20.32
185988,0.820816,-0.216184,0.624152,47.320000,10.780000,-23.520000,20.32
185999,0.836920,-0.239120,0.638792,60.830002,8.750000,-32.619999,20.34
186011,0.847168,-0.281576,0.633912,90.370003,7.070000,-43.959999,20.34
186022,0.882792,-0.282552,0.624152,128.869995,6.440000,-54.110001,20.31
186034,0.901824,-0.243512,0.615368,169.259995,6.020000,-62.160000,20.34
186045,0.898408,-0.168360,0.594872,203.699997,7.490000,-63.209999,20.34
186057,0.859856,0.001464,0.639768,214.830002,5.880000,-60.549999,20.30
186068,0.827160,0.152256,0.628544,195.300003,2.100000,-54.389999,20.30
186079,0.810568,0.105408,0.593896,153.580002,2.030000,-43.959999,20.27
186090,0.761280,0.075640,0.561200,103.599998,-3.220000,-39.060001,20.30
186101,0.729072,0.131272,0.547536,46.270000,-9.520000,-23.100000,20.30
186113,0.750544,0.248880,0.511424,-22.889999,-12.320000,-6.650000,20.33
186124,0.759328,0.339648,0.475800,-70.559998,-15.400000,7.910000,20.33
186135,0.775432,0.469944,0.468968,-124.250000,-18.900000,23.100000,20.36
186147,0.822768,0.355264,0.519720,-151.130005,-18.830000,32.970001,20.31
186158,0.850584,0.317200,0.589992,-161.559998,-15.750000,41.299999,20.31
186170,0.868152,0.234240,0.637328,-161.490005,-15.400000,48.580002,20.30
186181,0.871568,0.171288,0.658800,-157.570007,-15.260000,52.500000,20.29
186192,0.888648,0.123464,0.672464,-138.389999,-19.809999,59.080002,20.29
186204,0.896456,0.210816,0.623176,-121.309998,-21.910000,59.849998,20.33
186215,0.888160,0.341112,0.563640,-116.059998,-19.600000,60.970001,20.33
186227,0.870592,0.193248,0.467992,-103.599998,-11.620000,56.910000,20.32
186238,0.860832,0.009760,0.360144,-77.070000,-4.060000,49.139999,20.28
186249,0.842288,-0.161040,0.275720,-37.939999,0.770000,36.330002,20.28
186261,0.846192,-0.270840,0.273768,3.360000,5.530000,23.100000,20.26
186272,0.847168,-0.330864,0.327448,40.110001,8.680000,13.720000,20.26
186283,0.855464,-0.261080,0.421632,56.000000,11.970000,1.330000,20.30
186294,0.839848,-0.286456,0.509960,63.980000,11.550000,-10.500000,20.30
186306,0.832528,-0.246440,0.572912,69.230003,8.330000,-24.290001,20.30
186317,0.855952,-0.363560,0.621224,74.970001,7.000000,-36.189999,20.30
186328,0.871080,-0.313784,0.637816,91.559998,5.670000,-47.529999,20.30
186339,0.881328,-0.351360,0.649528,115.220001,4.760000,-57.189999,20.31
186350,0.891576,-0.316224,0.644648,136.710007,3.080000,-63.209999,20.32
186362,0.888160,-0.206912,0.636352,156.169998,1.330000,-64.330002,20.32
186373,0.878888,-0.166896,0.613904,172.130005,0.840000,-64.750000,20.35
186384,0.838872,-0.056120,0.606096,179.270004,-0.560000,-62.650002,20.35
186395,0.823256,0.025864,0.567544,175.279999,-2.030000,-59.150002,20.28
186407,0.781776,0.161528,0.533872,152.809998,-3.990000,-51.660000,20.29
186419,0.755912,0.337696,0.491904,114.099998,-8.120000,-40.880001,20.29
186430,0.733464,0.517768,0.491416,54.110001,-11.760000,-26.180000,20.32
186441,0.744200,0.558272,0.486536,3.780000,-12.040000,-12.600000,20.32
186452,0.752984,0.510936,0.512888,-45.150002,-11.620000,0.350000,20.29
186464,0.751520,0.449936,0.528504,-84.000000,-9.940000,12.600000,20.29
186475,0.777384,0.292800,0.494344,-108.919998,-7.210000,22.190001,20.29
186486,0.797392,0.173728,0.527040,-127.889999,-4.690000,32.619999,20.34
186497,0.797880,0.112728,0.528016,-141.399994,-6.020000,41.299999,20.34
186509,0.819840,0.019032,0.561200,-143.710007,-10.360000,49.630001,20.30
186520,0.845704,0.160552,0.593408,-143.080002,-14.000000,58.029999,20.29
186531,0.902312,0.166896,0.641232,-137.199997,-14.840000,60.689999,20.29
186542,0.895968,0.219112,0.696864,-134.960007,-16.590000,62.439999,20.33
186554,0.922320,0.197152,0.693448,-136.850006,-19.389999,64.680000,20.33
186565,0.921344,0.230336,0.646112,-135.100006,-18.830000,68.669998,20.31
186576,0.888648,0.180072,0.545584,-130.899994,-17.080000,65.239998,20.29
186587,0.873032,0.001464,0.424072,-109.059998,-11.200000,57.470001,20.29
186599,0.848144,-0.139568,0.320616,-70.139999,-6.580000,45.779999,20.30
186610,0.843264,-0.276208,0.265960,-22.820000,-1.330000,32.830002,20.24
186621,0.844728,-0.411872,0.289872,25.620001,2.100000,20.299999,20.24
186633,0.846192,-0.349896,0.368928,55.160000,6.160000,5.810000,20.36
186644,0.854000,-0.342576,0.443104,63.910000,9.240000,-5.740000,20.36
186655,0.833016,-0.222040,0.496784,63.349998,9.380000,-18.760000,20.33
186666,0.829600,-0.222040,0.570472,58.939999,9.450000,-26.320000,20.30
186677,0.817888,-0.303048,0.611464,73.360001,7.490000,-36.820000,20.30
186689,0.813984,-0.259616,0.637816,100.730003,3.570000,-49.419998,20.34
186700,0.841312,-0.174216,0.644648,140.630005,2.170000,-57.470001,20.34
186712,0.883280,-0.149328,0.639768,153.929993,1.400000,-64.470001,20.31
186723,0.897920,-0.142496,0.630008,185.779999,1.680000,-69.580002,20.26
186735,0.876936,-0.005368,0.630008,202.509995,0.630000,-68.529999,20.26
186746,0.857416,0.028792,0.608536,205.029999,-1.330000,-66.220001,20.32
186757,0.836920,0.009760,0.498248,189.419998,1.540000,-59.360001,20.32
186768,0.775920,0.036600,0.465064,144.270004,0.000000,-47.389999,20.31
186779,0.726632,0.233264,0.438712,95.339996,-6.720000,-31.360001,20.28
186791,0.723216,0.436760,0.455304,7.000000,-10.570000,-10.220000,20.28
186802,0.749080,0.462136,0.472384,-63.700001,-13.510000,1.470000,20.32
186813,0.796904,0.382104,0.476776,-110.389999,-10.430000,13.230000,20.32
186824,0.792024,0.331352,0.527528,-140.490005,-10.990000,24.080000,20.29
186836,0.828624,0.276696,0.533384,-155.190002,-11.340000,31.850000,20.30
186847,0.862296,0.267424,0.553880,-162.259995,-11.550000,41.860001,20.30
186859,0.874496,0.195200,0.595360,-170.729996,-11.970000,47.529999,20.29
186870,0.876936,0.131760,0.637328,-164.500000,-15.260000,51.590000,20.29
186881,0.899384,0.199104,0.613416,-158.059998,-17.780001,53.619999,20.33
186892,0.918904,0.162504,0.582184,-141.190002,-16.660000,53.410000,20.33
186904,0.877424,0.185928,0.523136,-120.959999,-13.440000,50.119999,20.33
186916,0.867664,0.098576,0.436272,-97.160004,-6.720000,43.189999,20.31
186928,0.845704,0.020008,0.354288,-65.519997,1.120000,34.230000,20.35
186940,0.846192,-0.176168,0.276208,-27.370001,8.330000,18.830000,20.35
186952,0.845216,-0.176168,0.302072,15.120000,12.180000,7.350000,20.31
186963,0.848632,-0.200080,0.410896,50.189999,16.030001,-4.200000,20.31
186974,0.828136,-0.242536,0.557784,84.910004,16.170000,-14.770000,20.32
186986,0.834480,-0.312320,0.644160,122.989998,14.490000,-29.330000,20.33
186998,0.860832,-0.345016,0.685152,154.139999,13.860000,-42.139999,20.33
187009,0.864736,-0.323544,0.707112,177.309998,12.250000,-50.470001,20.30
187020,0.859368,-0.234240,0.714432,188.860001,9.730000,-54.459999,20.30
187032,0.849120,-0.110776,0.687592,187.250000,7.140000,-55.160000,20.30
187043,0.832040,-0.067344,0.630496,177.589996,4.900000,-52.220001,20.27
187054,0.809592,0.020008,0.545096,138.880005,1.120000,-44.660000,20.27
187065,0.782752,0.063928,0.497760,77.769997,-3.500000,-32.549999,20.32
187077,0.745664,0.083936,0.478240,15.750000,-9.380000,-19.950001,20.26
187088,0.721264,0.227896,0.515816,-45.500000,-16.030001,-3.080000,20.26
187100,0.743712,0.581208,0.559736,-114.099998,-23.799999,12.880000,20.34
187111,0.852048,0.431880,0.615856,-151.479996,-20.510000,25.690001,20.34
187122,0.817400,0.438712,0.672952,-164.850006,-21.420000,36.820000,20.32
187134,0.852536,0.440664,0.679784,-180.669998,-24.080000,48.299999,20.30
187145,0.903776,0.214232,0.631472,-176.960007,-21.910000,52.849998,20.30
187157,0.894992,0.207888,0.597312,-156.729996,-21.280001,57.119999,20.34
187168,0.890600,0.256688,0.550464,-133.350006,-22.330000,57.119999,20.34
187179,0.900848,0.165432,0.500200,-106.330002,-17.639999,52.849998,20.30
187190,0.872544,0.085400,0.402600,-82.669998,-12.670000,47.740002,20.32
187201,0.879376,-0.043920,0.334768,-51.450001,-7.770000,42.209999,20.32
187212,0.876936,-0.236680,0.286944,-19.600000,-2.520000,32.689999,20.30
187223,0.875472,-0.349896,0.323056,6.650000,0.210000,22.469999,20.30
187235,0.861320,-0.348920,0.433344,18.760000,1.820000,12.390000,20.32
187246,0.849608,-0.351848,0.503128,21.070000,3.290000,3.990000,20.32
187257,0.838384,-0.313296,0.550464,18.340000,3.920000,-6.160000,20.32
187268,0.829112,-0.231800,0.556808,9.730000,4.620000,-12.250000,20.30
187279,0.824232,-0.103456,0.549000,0.910000,6.790000,-19.040001,20.30
187290,0.818376,-0.111752,0.534360,4.130000,7.980000,-27.860001,20.34
187301,0.831552,-0.126880,0.541680,26.600000,7.840000,-34.369999,20.33
187312,0.859368,-0.220088,0.554856,68.599998,7.490000,-44.099998,20.33
187323,0.872544,-0.254736,0.543144,108.849998,7.490000,-53.060001,20.32
187333,0.881328,-0.218136,0.579744,153.789993,7.910000,-56.630001,20.32
187344,0.884256,-0.200080,0.611464,190.050003,9.170000,-58.450001,20.36
187355,0.856440,-0.058072,0.645624,201.110001,7.840000,-57.889999,20.36
187366,0.833992,-0.010736,0.672464,198.729996,5.040000,-56.349998,20.35
187377,0.792512,0.045384,0.674416,167.860001,1.750000,-50.750000,20.32
187388,0.761280,0.120048,0.610976,124.250000,-4.690000,-42.490002,20.32
187399,0.767624,0.161528,0.554368,58.939999,-10.360000,-30.870001,20.34
187410,0.759328,0.276208,0.454328,-5.530000,-14.210000,-17.430000,20.34
187421,0.790072,0.326960,0.405040,-48.369999,-16.870001,-1.470000,20.30
187432,0.818864,0.305488,0.446520,-84.559998,-16.240000,11.970000,20.33
187443,0.835456,0.305976,0.496784,-113.750000,-14.420000,19.389999,20.33
187454,0.827160,0.268888,0.581208,-132.369995,-14.140000,31.010000,20.31
187465,0.823744,0.314760,0.630496,-134.050003,-16.730000,40.250000,20.31
187476,0.874008,0.401624,0.652456,-137.899994,-17.360001,48.720001,20.33
187487,0.906704,0.350872,0.596824,-138.600006,-17.360001,52.360001,20.30
187498,0.903288,0.213744,0.580232,-129.639999,-16.660000,54.880001,20.30
187509,0.915976,0.155672,0.534360,-108.360001,-15.050000,54.740002,20.30
187520,0.901336,0.146400,0.466528,-93.309998,-13.790000,52.709999,20.30
187532,0.902312,-0.063440,0.410408,-66.639999,-9.100000,50.049999,20.30
187543,0.873520,-0.074176,0.382104,-41.860001,-6.580000,44.799999,20.30
187554,0.873032,-0.125904,0.392352,-28.000000,-2.450000,37.799999,20.33
187565,0.863760,-0.249368,0.411872,-5.460000,0.490000,26.320000,20.27
187576,0.855464,-0.290848,0.430416,16.240000,2.800000,16.520000,20.27
187587,0.850584,-0.235704,0.464088,24.850000,4.130000,6.230000,20.33
187598,0.844240,-0.194712,0.474336,35.349998,5.880000,-4.270000,20.33
187609,0.839360,-0.113704,0.484096,40.459999,7.910000,-12.320000,20.33
187620,0.822280,-0.166408,0.493856,60.830002,8.680000,-24.780001,20.33
187631,0.851072,-0.288408,0.526552,91.769997,8.050000,-37.939999,20.33
187642,0.873032,-0.244000,0.555344,131.600006,7.560000,-48.299999,20.33
187653,0.892064,-0.266448,0.566568,170.729996,7.770000,-55.860001,20.33
187664,0.890600,-0.215696,0.580720,196.210007,7.630000,-59.290001,20.34
187674,0.865224,-0.111264,0.593408,209.229996,6.370000,-59.570000,20.35
187685,0.846192,-0.013176,0.599752,201.110001,4.130000,-58.169998,20.35
187696,0.808128,0.020008,0.634888,180.949997,2.520000,-53.480000,20.34
187707,0.772992,0.049288,0.589504,140.699997,0.980000,-46.759998,20.34
187718,0.747616,0.070760,0.564616,94.500000,-1.960000,-37.869999,20.31
187729,0.727120,0.305488,0.507520,24.500000,-8.050000,-24.570000,20.31
187740,0.770552,0.383080,0.386984,-19.950001,-9.240000,-9.240000,20.27
187751,0.808128,0.332328,0.378200,-67.830002,-6.090000,0.000000,20.29
187762,0.776896,0.436272,0.427000,-112.559998,-9.170000,13.580000,20.29
187773,0.822768,0.384544,0.477752,-141.190002,-8.750000,24.500000,20.33
187784,0.847656,0.161528,0.576816,-156.100006,-3.990000,32.130001,20.33
187795,0.831552,0.153720,0.640256,-154.210007,-5.670000,36.610001,20.33
187806,0.830576,0.244488,0.679296,-148.399994,-12.180000,43.259998,20.35
187817,0.882304,0.237656,0.681736,-144.339996,-14.070000,47.389999,20.35
187828,0.919880,0.189344,0.631472,-136.779999,-13.510000,48.720001,20.32
187839,0.915488,0.193248,0.579256,-129.570007,-12.320000,50.189999,20.32
187850,0.912072,0.140056,0.505568,-117.529999,-10.710000,47.810001,20.30
187861,0.899872,0.021960,0.454328,-94.290001,-6.230000,42.349998,20.26
187872,0.871568,-0.104432,0.429928,-60.549999,-2.870000,33.810001,20.26
187883,0.866688,-0.215696,0.415288,-30.870001,1.120000,24.080000,20.32
187894,0.863272,-0.262056,0.413824,8.050000,3.290000,12.670000,20.32
187905,0.866200,-0.154208,0.449448,28.280001,6.090000,5.670000,20.34
187916,0.852536,-0.123464,0.476776,39.549999,9.100000,-4.550000,20.34
187927,0.845704,-0.190808,0.524600,54.950001,10.640000,-16.379999,20.36
187938,0.844728,-0.190808,0.559248,79.589996,10.780000,-28.840000,20.30
187949,0.858880,-0.146888,0.578768,101.360001,9.590000,-37.099998,20.30
187960,0.878400,-0.237656,0.596824,132.089996,9.170000,-45.779999,20.29
187971,0.886696,-0.286944,0.628544,160.229996,9.240000,-51.450001,20.29
187982,0.864736,-0.236680,0.650016,187.110001,8.330000,-55.369999,20.32
187993,0.845704,-0.148840,0.653432,197.259995,5.320000,-56.139999,20.30
188004,0.810080,-0.055144,0.643672,188.929993,2.660000,-54.110001,20.30
188015,0.795928,0.034160,0.596336,163.449997,0.000000,-48.299999,20.33
188026,0.763232,0.122976,0.565104,124.320000,-4.130000,-41.020000,20.33
188037,0.726144,0.309392,0.571936,74.760002,-10.710000,-29.190001,20.33
188048,0.735904,0.487024,0.487512,-12.250000,-13.650000,-14.420000,20.33
188059,0.774456,0.418216,0.462136,-82.180000,-14.490000,-1.610000,20.33
188070,0.779336,0.243512,0.488488,-112.070000,-13.160000,7.420000,20.34
188081,0.771528,0.332328,0.535824,-140.000000,-14.140000,19.600000,20.34
188091,0.822280,0.270840,0.567544,-154.419998,-14.210000,27.370001,20.29
188102,0.843752,0.188368,0.580232,-156.520004,-13.580000,35.490002,20.29
188113,0.849120,0.223992,0.591944,-157.710007,-14.280000,43.259998,20.33
188124,0.872056,0.253272,0.623176,-155.259995,-16.590000,47.320000,20.29
188135,0.901336,0.325984,0.591944,-153.300003,-18.340000,52.779999,20.29
188146,0.918416,0.293776,0.564616,-147.139999,-16.799999,54.810001,20.31
188157,0.892064,0.223016,0.536800,-131.250000,-13.510000,53.619999,20.31
188168,0.881328,0.049776,0.494832,-104.089996,-9.660000,49.490002,20.35
188179,0.867176,-0.030744,0.430904,-78.750000,-5.600000,43.889999,20.30
188190,0.866688,-0.146400,0.377224,-45.500000,-2.520000,36.119999,20.30
188201,0.867664,-0.238632,0.361608,-9.030000,2.030000,27.930000,20.34
188212,0.851072,-0.282552,0.402600,20.719999,4.690000,17.290001,20.34
188223,0.855464,-0.266448,0.450912,37.590000,7.140000,5.950000,20.33
188234,0.842288,-0.161040,0.485560,41.650002,8.960000,-1.890000,20.29
188245,0.825696,-0.192272,0.538264,46.549999,10.220000,-12.880000,20.29
188256,0.818864,-0.248880,0.574864,61.459999,10.150000,-24.850000,20.33
188266,0.839848,-0.261080,0.585600,89.459999,8.750000,-33.740002,20.33
188277,0.877912,-0.300120,0.587552,123.480003,8.890000,-44.310001,20.31
188288,0.865712,-0.210816,0.601704,147.000000,8.260000,-52.849998,20.31
188299,0.870104,-0.177144,0.602192,171.919998,7.560000,-56.209999,20.32
188310,0.872056,-0.134200,0.581208,194.460007,7.560000,-59.150002,20.29
188321,0.850584,0.038064,0.596336,195.160004,4.970000,-56.419998,20.29
188332,0.818376,0.096624,0.618784,172.690002,2.030000,-50.750000,20.31
188343,0.795440,0.080520,0.573888,130.550003,0.210000,-45.360001,20.31
188354,0.778360,0.024888,0.544608,92.889999,-2.310000,-35.279999,20.36
188365,0.735904,0.137616,0.521184,35.700001,-8.680000,-20.860001,20.30
188376,0.734928,0.317688,0.495320,-31.570000,-14.000000,-7.490000,20.30
188387,0.763720,0.377712,0.512400,-76.790001,-16.309999,5.810000,20.32
188397,0.783728,0.444568,0.533384,-122.220001,-17.219999,19.180000,20.32
188408,0.819840,0.378688,0.557296,-149.800003,-17.430000,29.120001,20.34
188419,0.844240,0.306464,0.610976,-160.580002,-16.240000,36.680000,20.34
188430,0.854976,0.270840,0.649528,-164.570007,-15.470000,42.770000,20.33
188441,0.874496,0.265472,0.617808,-157.360001,-15.750000,49.349998,20.32
188452,0.907680,0.188368,0.593896,-140.210007,-14.350000,53.480000,20.32
188463,0.894016,0.185440,0.557784,-123.620003,-13.300000,53.130001,20.34
188474,0.882304,0.188856,0.496296,-103.459999,-11.690000,52.150002,20.34
188485,0.876936,0.059048,0.449936,-77.699997,-5.950000,46.549999,20.34
188496,0.866688,-0.029280,0.377224,-55.650002,-1.470000,39.830002,20.31
188507,0.866200,-0.144448,0.333792,-25.340000,4.270000,32.270000,20.31
188518,0.855464,-0.209840,0.337208,4.410000,9.940000,19.879999,20.31
188529,0.851072,-0.170800,0.379664,18.549999,14.420000,8.330000,20.31
188540,0.844728,-0.193248,0.446520,33.180000,16.660000,-0.770000,20.32
188550,0.828624,-0.199592,0.506544,45.639999,16.940001,-11.340000,20.32
188561,0.829112,-0.190320,0.576816,54.810001,15.610000,-22.540001,20.36
188572,0.835944,-0.242048,0.644648,73.919998,13.580000,-34.090000,20.28
188583,0.863272,-0.317200,0.669536,101.989998,12.670000,-42.630001,20.28
188594,0.874496,-0.318664,0.671000,126.699997,11.620000,-52.080002,20.33
188605,0.866200,-0.274744,0.661240,151.759995,9.450000,-56.419998,20.33
188616,0.852048,-0.143472,0.653920,163.449997,7.350000,-57.750000,20.31
188627,0.850584,-0.060512,0.597800,167.509995,5.040000,-57.400002,20.32
188638,0.817400,0.017568,0.557784,158.899994,3.570000,-52.080002,20.32
188649,0.795440,0.074664,0.516304,131.949997,1.330000,-45.570000,20.32
188660,0.738832,0.152256,0.558272,77.559998,-4.480000,-35.490002,20.32
188671,0.726632,0.321104,0.595848,32.759998,-9.240000,-21.000000,20.27
188682,0.717848,0.378688,0.627080,-32.480000,-13.090000,-7.980000,20.29
188693,0.735904,0.354776,0.623176,-79.379997,-16.170000,4.200000,20.29
188704,0.759816,0.411872,0.592432,-108.779999,-18.129999,14.840000,20.30
188715,0.809592,0.318664,0.572424,-126.419998,-17.920000,24.780001,20.30
188726,0.829112,0.317688,0.548024,-137.199997,-18.410000,32.270000,20.37
188737,0.857904,0.259616,0.568032,-137.270004,-17.709999,40.110001,20.37
188748,0.860344,0.294264,0.595848,-135.169998,-18.830000,44.939999,20.27
188759,0.893040,0.250832,0.595848,-130.899994,-17.639999,49.770000,20.33
188770,0.895968,0.173728,0.602192,-115.570000,-17.990000,51.450001,20.33
188781,0.877912,0.165920,0.579744,-104.580002,-17.500000,50.400002,20.31
188792,0.882304,0.132248,0.534360,-97.089996,-15.540000,48.720001,20.31
188803,0.879864,0.012200,0.464088,-82.529999,-10.920000,44.520000,20.31
188814,0.864736,-0.108824,0.421632,-64.190002,-7.700000,37.660000,20.28
188825,0.871080,-0.215696,0.396744,-37.660000,-4.620000,28.980000,20.28
188836,0.869128,-0.288408,0.406504,-9.450000,-1.820000,21.629999,20.30
188847,0.853024,-0.305000,0.443104,14.910000,-0.210000,11.550000,20.30
188857,0.853512,-0.292800,0.473848,29.680000,2.660000,0.770000,20.32
