timestamp_ms,ax,ay,az,gx,gy,gz,tempC
12192,0.692960,0.276696,0.674904,-20.930000,-88.269997,4.900000,20.11
12206,0.720776,0.244488,0.663680,-18.340000,-84.910004,7.910000,20.09
12218,0.726144,0.261080,0.640256,-15.470000,-82.529999,14.000000,20.09
12229,0.732976,0.231312,0.595360,-16.309999,-84.000000,13.720000,20.09
12240,0.742248,0.199592,0.550464,-10.430000,-81.339996,15.120000,20.09
12252,0.752496,0.184952,0.508984,5.320000,-70.279999,21.350000,20.11
12263,0.709552,0.115168,0.530944,20.020000,-81.550003,27.299999,20.09
12274,0.825208,0.260104,0.430904,23.940001,-66.220001,30.590000,20.09
12286,0.738344,0.148840,0.449936,14.420000,-70.839996,7.770000,20.15
12298,0.770552,0.219600,0.440176,8.470000,-62.160000,4.620000,20.15
12309,0.745664,0.166896,0.419192,4.970000,-64.470001,-0.280000,20.12
12321,0.747128,0.122488,0.409920,12.040000,-61.810001,-3.710000,20.17
12332,0.741272,0.173240,0.421144,23.590000,-60.549999,-4.200000,20.17
12344,0.749568,0.185440,0.385032,26.040001,-56.630001,-4.550000,20.14
12355,0.765184,0.138592,0.366488,40.040001,-44.590000,-3.010000,20.05
12367,0.736392,0.235216,0.342088,44.310001,-44.869999,-1.750000,20.05
12378,0.756888,0.232288,0.355752,41.020000,-38.709999,-1.610000,20.10
12389,0.724680,0.245464,0.369904,38.990002,-39.060001,-3.220000,20.10
12401,0.730536,0.329400,0.384544,29.889999,-36.540001,0.140000,20.11
12413,0.772504,0.321592,0.372344,16.379999,-33.810001,1.330000,20.12
12424,0.756400,0.327448,0.380640,8.260000,-28.350000,5.530000,20.12
12435,0.729072,0.387960,0.353800,-3.780000,-32.130001,11.270000,20.10
12446,0.806664,0.365024,0.338184,-13.020000,-23.730000,13.930000,20.10
12458,0.802272,0.364048,0.355752,-22.540001,-18.340000,17.850000,20.12
12469,0.810080,0.340136,0.383080,-30.870001,-13.790000,21.700001,20.11
12481,0.802760,0.345992,0.403576,-41.509998,-14.210000,25.480000,20.11
12492,0.816424,0.313784,0.400648,-51.660000,-13.720000,28.980000,20.12
12504,0.834480,0.202032,0.412848,-53.900002,-11.900000,29.889999,20.08
12515,0.845704,0.212280,0.404064,-64.959999,-9.870000,33.669998,20.08
12527,0.848144,0.164456,0.420168,-74.970001,-9.870000,36.330002,20.11
12538,0.854000,0.151280,0.469456,-82.110001,-5.600000,41.369999,20.11
12550,0.854976,0.091744,0.498736,-84.839996,-7.140000,41.160000,20.11
12562,0.872544,0.009272,0.545584,-83.440002,-6.930000,35.910000,20.09
12574,0.872544,-0.045384,0.567544,-78.610001,-9.520000,31.920000,20.09
12586,0.881816,-0.061000,0.562176,-76.650002,-12.460000,27.440001,20.14
12598,0.903776,-0.133712,0.580232,-69.930000,-13.230000,21.490000,20.09
12610,0.892552,-0.125416,0.578280,-60.900002,-15.260000,17.290001,20.09
12621,0.900848,-0.141032,0.550464,-50.119999,-14.000000,17.010000,20.14
12633,0.894992,-0.175192,0.533384,-38.009998,-19.040001,-0.350000,20.14
12645,0.894992,-0.167872,0.502640,-25.200001,-20.790001,-10.080000,20.12
12657,0.894992,-0.084912,0.510936,-17.780001,-23.520000,-16.520000,20.10
12669,0.896944,-0.073688,0.499224,-10.150000,-25.200001,-23.590000,20.10
12681,0.899872,-0.117120,0.476776,10.010000,-25.760000,-32.270000,20.11
12692,0.893528,-0.046848,0.467016,31.219999,-27.510000,-38.779999,20.14
12704,0.905240,-0.011224,0.426512,52.150002,-27.580000,-44.590000,20.14
12715,0.917928,0.048312,0.394792,74.269997,-26.740000,-49.349998,20.11
12727,0.922808,0.124928,0.326472,89.879997,-22.750000,-51.380001,20.11
12739,0.932568,0.121512,0.329888,104.230003,-18.690001,-49.840000,20.09
12750,0.906216,0.188368,0.314760,110.809998,-16.379999,-47.669998,20.13
12762,0.892552,0.231312,0.315248,116.900002,-12.600000,-39.200001,20.13
12774,0.863272,0.359168,0.300608,109.199997,-9.660000,-30.309999,20.12
12785,0.875960,0.346480,0.291336,96.669998,-3.080000,-20.090000,20.09
12797,0.850096,0.483608,0.284504,68.250000,-3.710000,-11.200000,20.09
12809,0.847656,0.527528,0.279136,23.520000,-0.210000,2.800000,20.11
12820,0.861808,0.483120,0.294752,-12.320000,4.970000,14.980000,20.11
12831,0.835944,0.515328,0.330864,-55.090000,6.510000,28.629999,20.08
12842,0.845216,0.389424,0.346480,-86.309998,7.420000,38.009998,20.09
12854,0.860832,0.341112,0.365512,-106.889999,9.870000,46.410000,20.09
12865,0.881816,0.305000,0.366488,-119.349998,12.250000,56.279999,20.10
12877,0.898896,0.298168,0.388448,-132.860001,12.880000,65.800003,20.14
12888,0.923296,0.244488,0.389912,-140.770004,14.350000,74.760002,20.14
12900,0.910608,0.149816,0.402112,-141.190002,14.980000,78.540001,20.06
12912,0.930128,0.016104,0.412848,-130.270004,16.520000,76.650002,20.06
12923,0.897920,-0.033672,0.406992,-114.449997,15.540000,72.589996,20.14
12935,0.890112,-0.140544,0.435784,-96.529999,15.260000,65.730003,20.08
12946,0.876448,-0.246440,0.496296,-83.019997,13.790000,56.419998,20.08
12958,0.870104,-0.372344,0.557784,-62.160000,12.250000,44.869999,20.11
12970,0.860344,-0.461160,0.566568,-41.860001,8.050000,30.240000,20.13
12981,0.866688,-0.453840,0.556320,-24.709999,4.410000,13.510000,20.13
12992,0.852536,-0.425536,0.546560,-14.910000,-0.420000,-1.120000,20.12
13004,0.853024,-0.404552,0.536312,-1.890000,-4.830000,-15.610000,20.12
13015,0.864248,-0.342088,0.528992,10.290000,-6.510000,-28.000000,20.15
13027,0.863272,-0.301096,0.541192,22.120001,-9.590000,-39.900002,20.09
13039,0.861808,-0.256200,0.532896,40.320000,-11.620000,-52.500000,20.09
13051,0.877912,-0.219112,0.528504,63.209999,-14.280000,-62.160000,20.11
13062,0.880352,-0.141520,0.516304,82.040001,-13.650000,-66.010002,20.11
13074,0.869616,-0.164456,0.500200,105.839996,-14.210000,-73.220001,20.12
13085,0.871568,-0.059536,0.464088,128.449997,-14.700000,-71.820000,20.11
13097,0.864736,0.118096,0.410896,132.089996,-15.540000,-65.449997,20.11
13108,0.858392,0.294752,0.348920,126.279999,-16.100000,-56.910000,20.14
13120,0.854000,0.362096,0.319640,115.080002,-14.070000,-49.560001,20.12
13131,0.851072,0.461160,0.333304,88.339996,-12.040000,-37.799999,20.12
13142,0.855464,0.501664,0.303048,51.099998,-9.730000,-24.290001,20.11
13154,0.871080,0.427000,0.312320,18.620001,-4.340000,-10.570000,20.11
13166,0.757864,0.431880,0.264984,-6.440000,-9.800000,-2.030000,20.11
13177,0.850584,0.485560,0.313296,-31.709999,0.210000,15.610000,20.11
13188,0.888160,0.432368,0.346480,-54.040001,7.910000,26.950001,20.11
13200,0.877912,0.383568,0.361608,-72.589996,11.200000,34.860001,20.11
13211,0.887672,0.243512,0.347944,-81.129997,9.940000,42.000000,20.11
13222,0.928176,0.171288,0.349408,-85.820000,14.070000,50.400002,20.13
13233,0.923296,0.159576,0.339160,-95.690002,14.280000,57.470001,20.10
13245,0.913048,0.140544,0.385520,-105.980003,12.040000,62.299999,20.10
13256,0.920368,0.094184,0.462624,-115.500000,13.930000,67.129997,20.07
13267,0.903776,0.020008,0.525088,-118.720001,10.640000,64.610001,20.07
13279,0.913536,-0.073688,0.569984,-116.970001,9.240000,58.590000,20.10
13290,0.897920,-0.272792,0.591456,-103.459999,6.930000,50.470001,20.12
13302,0.902312,-0.327448,0.577792,-86.239998,4.410000,43.610001,20.12
13313,0.887672,-0.378688,0.539240,-66.150002,-0.840000,32.060001,20.15
13325,0.892064,-0.426512,0.503616,-44.099998,-3.150000,17.780001,20.14
13336,0.877912,-0.471896,0.469944,-17.360001,-5.250000,3.570000,20.14
13348,0.869616,-0.427488,0.464576,8.820000,-9.520000,-13.930000,20.10
13359,0.881328,-0.331840,0.466040,29.820000,-9.730000,-27.370001,20.10
13371,0.875472,-0.271328,0.473848,47.740002,-9.520000,-40.040001,20.12
13383,0.870104,-0.156648,0.492392,56.700001,-10.850000,-51.169998,20.12
13394,0.879376,-0.131272,0.513864,66.639999,-13.020000,-57.889999,20.12
13406,0.890600,-0.125904,0.500200,85.820000,-14.420000,-65.660004,20.15
13417,0.906704,-0.091744,0.482632,104.930000,-14.000000,-71.400002,20.15
13428,0.914512,-0.038552,0.431880,129.429993,-11.200000,-70.209999,20.09
13440,0.913536,-0.013664,0.406992,141.470001,-8.190000,-68.739998,20.11
13452,0.868640,0.125416,0.419680,131.880005,-6.720000,-57.959999,20.11
13464,0.840824,0.321592,0.353312,98.209999,-7.770000,-43.889999,20.12
13475,0.842288,0.369904,0.312320,63.000000,-6.860000,-29.260000,20.07
13486,0.849120,0.446520,0.277672,30.450001,-4.830000,-16.940001,20.07
13498,0.766160,0.451400,0.334768,-0.910000,-3.710000,-5.950000,20.10
13510,0.836432,0.430416,0.366000,-34.230000,4.130000,10.920000,20.10
13521,0.853024,0.349408,0.405528,-60.970001,8.820000,26.459999,20.15
13533,0.874008,0.299632,0.419680,-79.730003,10.150000,39.270000,20.09
13545,0.866688,0.277672,0.433832,-92.889999,6.370000,48.930000,20.09
13556,0.891576,0.220576,0.463112,-102.830002,6.720000,57.889999,20.11
13568,0.912560,0.199104,0.516304,-112.349998,7.210000,64.120003,20.10
13579,0.936472,0.009272,0.517768,-117.250000,5.740000,65.449997,20.10
13591,0.925736,-0.016592,0.506544,-115.080002,4.270000,66.150002,20.14
13602,0.914512,-0.114680,0.509960,-104.860001,0.210000,60.270000,20.14
13614,0.900848,-0.223016,0.517280,-90.089996,-0.980000,52.639999,20.11
13625,0.902800,-0.245952,0.508984,-75.529999,-0.420000,43.259998,20.11
13636,0.884744,-0.369416,0.495808,-56.070000,-1.190000,29.049999,20.11
13648,0.885720,-0.426024,0.488488,-25.690001,-2.310000,13.860000,20.11
13659,0.871568,-0.432368,0.475312,4.970000,-6.300000,-2.170000,20.11
13671,0.874496,-0.382104,0.440176,30.799999,-8.890000,-17.990000,20.14
13683,0.888160,-0.299144,0.450912,48.090000,-8.400000,-30.309999,20.12
13694,0.867176,-0.265960,0.467504,62.090000,-9.100000,-41.720001,20.12
13705,0.872544,-0.209352,0.470920,78.540001,-10.570000,-52.290001,20.11
13717,0.878400,-0.106384,0.481656,91.209999,-11.130000,-60.270000,20.09
13728,0.880352,-0.075152,0.474336,105.559998,-10.850000,-64.610001,20.09
13740,0.890600,-0.030744,0.449448,125.370003,-10.290000,-69.370003,20.11
13752,0.908168,0.052216,0.378200,137.899994,-8.960000,-69.019997,20.11
13763,0.912072,0.110776,0.366000,134.259995,-4.060000,-61.180000,20.15
13775,0.910608,0.086864,0.358680,123.339996,3.850000,-56.070000,20.11
13786,0.839360,0.101992,0.370392,110.459999,0.840000,-49.490002,20.11
13797,0.807640,0.196176,0.406992,77.769997,2.870000,-34.160000,20.12
13809,0.777872,0.413336,0.403088,30.240000,-0.840000,-17.010000,20.12
13820,0.814960,0.498736,0.375760,-28.840000,-1.820000,1.400000,20.12
13832,0.836432,0.499712,0.351848,-73.080002,0.980000,16.940001,20.07
13843,0.870104,0.317200,0.377224,-92.540001,4.970000,28.209999,20.07
13855,0.872056,0.310368,0.413824,-102.480003,7.490000,39.830002,20.14
13867,0.888160,0.314760,0.459696,-111.510002,7.070000,52.919998,20.14
13878,0.909144,0.310856,0.491904,-123.339996,4.970000,63.560001,20.14
13890,0.933056,0.144448,0.503616,-121.099998,4.410000,68.110001,20.12
13901,0.932568,0.089792,0.526552,-110.809998,1.960000,69.300003,20.12
13912,0.928664,-0.000488,0.534848,-97.019997,2.590000,67.830002,20.12
13923,0.907192,-0.056120,0.515328,-85.820000,3.010000,61.389999,20.14
13935,0.905728,-0.112240,0.488976,-72.379997,3.570000,54.950001,20.14
13947,0.884256,-0.274256,0.465552,-59.500000,6.090000,41.720001,20.12
13958,0.883280,-0.460672,0.473848,-35.770000,5.530000,26.040001,20.12
13969,0.867664,-0.516792,0.479216,-6.510000,3.080000,8.820000,20.06
13980,0.854976,-0.463600,0.480192,16.450001,-1.330000,-4.480000,20.07
13992,0.879376,-0.409920,0.488000,34.930000,-3.850000,-19.950001,20.07
14004,0.881328,-0.307928,0.513376,46.410000,-5.110000,-51.099998,20.12
14015,0.877424,-0.290360,0.533872,60.200001,-6.930000,-49.770000,20.14
14028,0.883280,-0.277184,0.564128,82.320000,-9.800000,-62.090000,20.14
14039,0.905728,-0.240584,0.572424,111.790001,-10.780000,-71.959999,20.11
14051,0.911584,-0.177632,0.563152,145.039993,-10.290000,-79.029999,20.11
14064,0.904264,-0.017568,0.507032,168.839996,-8.750000,-77.139999,20.13
14075,0.917928,-0.005856,0.462136,178.639999,-9.030000,-76.370003,20.11
14087,0.878888,0.180560,0.416752,150.779999,-8.190000,-65.870003,20.11
14098,0.847168,0.249856,0.341600,95.339996,-8.820000,-50.889999,20.09
14110,0.809592,0.298656,0.348920,67.900002,-8.680000,-35.980000,20.05
14121,0.786168,0.417240,0.364048,14.070000,-9.450000,-19.110001,20.05
14132,0.800320,0.475800,0.355752,-39.130001,-8.750000,-1.400000,20.13
14144,0.822280,0.508008,0.366488,-81.059998,-6.090000,16.940001,20.13
14156,0.846680,0.431880,0.423584,-110.320000,-3.640000,32.270000,20.09
14167,0.871080,0.395768,0.431880,-123.129997,-1.680000,44.799999,20.10
14179,0.900360,0.445544,0.436760,-130.550003,-2.240000,58.520000,20.10
14191,0.930128,0.358680,0.416752,-135.940002,0.000000,66.430000,20.12
14202,0.946720,0.277672,0.431392,-132.860001,3.430000,71.889999,20.07
14213,0.929152,0.208376,0.447008,-126.489998,4.900000,73.220001,20.07
14225,0.909632,-0.011712,0.458720,-109.269997,7.490000,68.739998,20.12
14239,0.882792,-0.160064,0.450424,-82.459999,7.070000,58.450001,20.08
14250,0.881816,-0.277184,0.433344,-60.759998,8.540000,47.320000,20.08
14262,0.876448,-0.408456,0.443104,-34.509998,9.100000,33.250000,20.12
14274,0.862784,-0.485560,0.465064,-6.440000,6.720000,16.870001,20.12
14285,0.858392,-0.459208,0.486048,16.870001,1.960000,0.210000,20.15
14296,0.878400,-0.369904,0.490928,28.420000,-0.770000,-15.120000,20.11
14308,0.883768,-0.315736,0.492880,45.779999,-2.310000,-28.840000,20.11
14320,0.871568,-0.245952,0.522160,57.049999,-4.970000,-42.910000,20.12
14332,0.880840,-0.279136,0.556320,89.110001,-7.630000,-56.490002,20.12
14344,0.896456,-0.261080,0.582184,126.769997,-9.450000,-69.160004,20.11
14355,0.896944,-0.176656,0.593408,162.399994,-9.660000,-77.279999,20.14
14367,0.909144,-0.034160,0.511912,185.919998,-9.870000,-79.099998,20.14
14379,0.916464,0.113704,0.429928,180.320007,-9.520000,-74.339996,20.12
14390,0.898408,0.178608,0.346968,157.639999,-7.840000,-64.680000,20.13
14402,0.864248,0.113704,0.312808,132.860001,-4.620000,-56.700001,20.13
14413,0.774944,0.266448,0.312808,100.870003,-5.110000,-41.090000,20.11
14425,0.778360,0.460672,0.335256,49.770000,-7.210000,-22.260000,20.11
14436,0.790560,0.610488,0.335744,-8.820000,-5.250000,-2.450000,20.13
14448,0.819840,0.579744,0.366976,-57.889999,-0.630000,15.820000,20.11
14459,0.836920,0.503128,0.366976,-89.389999,2.380000,31.430000,20.11
14470,0.846680,0.434320,0.410896,-109.550003,5.880000,45.709999,20.13
14482,0.854976,0.335256,0.471408,-124.879997,4.830000,57.119999,20.14
14493,0.878400,0.319640,0.531920,-133.139999,3.570000,66.709999,20.14
14505,0.909144,0.331840,0.527528,-140.979996,-0.070000,76.300003,20.16
14516,0.935008,0.208864,0.511912,-138.949997,-1.540000,79.660004,20.16
14528,0.923784,0.165432,0.494344,-133.210007,-0.980000,81.129997,20.17
14539,0.913048,0.034648,0.479704,-122.010002,0.280000,75.529999,20.08
14551,0.898896,-0.150304,0.473360,-105.839996,3.640000,66.360001,20.08
14562,0.877912,-0.306952,0.467992,-77.139999,6.650000,53.480000,20.10
14574,0.866200,-0.463112,0.446032,-42.700001,6.370000,35.419998,20.10
14585,0.864248,-0.543144,0.420168,3.220000,3.010000,15.330000,20.10
14596,0.869616,-0.521672,0.419680,41.369999,0.280000,-2.030000,20.10
14608,0.896944,-0.525088,0.461648,77.699997,-0.280000,-16.520000,20.10
14620,0.874496,-0.308416,0.528016,93.379997,-3.220000,-35.910000,20.09
14632,0.877912,-0.331840,0.587552,104.790001,-4.620000,-50.610001,20.11
14643,0.868152,-0.339648,0.611464,125.510002,-7.560000,-65.800003,20.11
14655,0.879376,-0.268888,0.606096,150.570007,-9.590000,-76.650002,20.14
14667,0.892064,-0.162016,0.557784,173.600006,-11.060000,-82.040001,20.14
14678,0.896456,-0.018544,0.468480,185.779999,-10.640000,-79.800003,20.09
14691,0.891576,0.123464,0.391376,172.690002,-10.500000,-72.519997,20.12
14702,0.882792,0.134200,0.345504,146.300003,-8.540000,-64.959999,20.12
14714,0.823256,0.172264,0.316224,107.099998,-7.140000,-53.130001,20.11
14726,0.768600,0.469456,0.323056,47.110001,-10.010000,-34.160000,20.11
14737,0.784704,0.501664,0.360144,0.560000,-8.610000,-16.379999,20.11
14749,0.774456,0.616832,0.392352,-52.430000,-5.670000,1.750000,20.14
14760,0.796904,0.617320,0.395280,-94.080002,-2.800000,20.440001,20.14
14772,0.824232,0.541192,0.410408,-121.169998,0.140000,34.650002,20.07
14783,0.858392,0.379176,0.418216,-133.490005,4.130000,46.689999,20.04
14794,0.871080,0.298168,0.455792,-141.960007,5.390000,55.580002,20.04
14806,0.886208,0.299632,0.470432,-149.380005,2.450000,67.129997,20.12
14817,0.910120,0.241560,0.491416,-153.160004,0.140000,75.599998,20.12
14828,0.924760,0.168848,0.512400,-151.130005,1.330000,78.610001,20.10
14840,0.917928,0.143472,0.510936,-145.740005,1.470000,79.730003,20.12
14851,0.920368,0.026840,0.484096,-135.380005,3.220000,75.320000,20.12
14863,0.899872,-0.106384,0.449448,-120.120003,8.820000,66.989998,20.07
14874,0.878888,-0.345992,0.415288,-90.790001,12.670000,51.099998,20.11
14886,0.857904,-0.541192,0.422608,-45.990002,12.460000,32.340000,20.11
14897,0.847168,-0.565104,0.433344,-0.490000,8.050000,15.190000,20.16
14909,0.861808,-0.542168,0.448960,34.930000,4.270000,0.910000,20.16
14920,0.884744,-0.459208,0.476288,60.270000,3.220000,-16.940001,20.09
14932,0.881816,-0.394304,0.529968,71.820000,1.680000,-31.150000,20.08
14944,0.869616,-0.318176,0.571936,77.839996,-1.330000,-48.439999,20.08
14955,0.865224,-0.310856,0.598776,90.720001,-4.060000,-62.230000,20.07
14966,0.879864,-0.298168,0.622688,112.910004,-6.930000,-74.480003,20.07
14978,0.874008,-0.235704,0.614880,144.479996,-8.400000,-82.809998,20.10
14989,0.891576,-0.147376,0.567544,190.470001,-8.750000,-87.360001,20.10
15001,0.894504,-0.022448,0.515816,200.970001,-8.610000,-85.190002,20.10
15012,0.871080,0.156648,0.483608,200.899994,-9.800000,-78.330002,20.09
15024,0.856928,0.195688,0.403088,166.039993,-8.540000,-67.339996,20.11
15036,0.829600,0.143960,0.345992,126.629997,-6.510000,-55.439999,20.11
15047,0.748104,0.405040,0.312808,75.879997,-11.410000,-36.189999,20.11
15058,0.740784,0.628056,0.309880,9.730000,-15.050000,-14.910000,20.11
15070,0.781776,0.617808,0.345016,-49.910000,-10.360000,2.030000,20.14
15082,0.809592,0.677832,0.369904,-92.470001,-3.430000,21.420000,20.11
15093,0.826184,0.600728,0.389912,-117.250000,-0.070000,32.689999,20.11
15104,0.857904,0.475312,0.396744,-129.639999,4.620000,45.500000,20.13
15115,0.878888,0.316712,0.426512,-128.660004,7.000000,56.349998,20.13
15127,0.879864,0.280112,0.458720,-128.660004,5.390000,63.840000,20.16
15139,0.896456,0.263520,0.468480,-130.199997,2.030000,71.680000,20.12
15150,0.932568,0.155672,0.504592,-127.680000,2.800000,74.830002,20.12
15162,0.915000,0.112728,0.509960,-125.510002,2.100000,73.989998,20.10
15173,0.906216,-0.013176,0.508984,-117.459999,2.520000,69.230003,20.12
15185,0.906216,-0.091744,0.492392,-91.070000,4.620000,64.400002,20.12
15197,0.889624,-0.203008,0.476776,-95.620003,8.050000,53.759998,20.06
15208,0.870104,-0.372344,0.473848,-72.379997,7.770000,38.779999,20.06
15220,0.871568,-0.515328,0.479704,-36.959999,5.950000,21.910000,20.10
15231,0.868152,-0.526064,0.473848,1.470000,2.170000,5.180000,20.14
15242,0.882304,-0.445544,0.462624,30.870001,-0.350000,-7.630000,20.14
15254,0.892552,-0.404064,0.471408,57.750000,-1.050000,-23.030001,20.09
15265,0.870104,-0.224480,0.527528,67.339996,-2.590000,-35.560001,20.13
15277,0.860344,-0.157624,0.570472,73.570000,-4.200000,-47.529999,20.13
15289,0.862296,-0.209840,0.597312,94.290001,-5.320000,-60.060001,20.12
15300,0.873520,-0.213256,0.596824,128.449997,-5.600000,-69.580002,20.12
15311,0.873032,-0.128832,0.575352,152.669998,-6.510000,-74.550003,20.12
15322,0.901336,-0.065880,0.510448,175.139999,-5.250000,-71.680000,20.10
15333,0.904752,-0.019032,0.446520,171.779999,-2.870000,-67.970001,20.10
15344,0.891088,-0.100528,0.404552,164.429993,0.490000,-60.200001,20.15
15355,0.781776,0.174704,0.390888,126.629997,-3.010000,-47.950001,20.15
15366,0.740296,0.424072,0.365024,60.270000,-12.040000,-31.639999,20.14
15377,0.763232,0.507520,0.375760,-7.770000,-12.600000,-14.560000,20.14
15388,0.777384,0.586088,0.428952,-54.250000,-8.960000,2.030000,20.11
15399,0.795928,0.589504,0.465552,-98.559998,-6.440000,15.120000,20.05
15409,0.836432,0.488488,0.483608,-121.099998,-2.590000,28.840000,20.05
15420,0.851072,0.393816,0.487024,-126.559998,0.770000,40.040001,20.11
15431,0.869128,0.357704,0.481656,-128.380005,0.980000,50.470001,20.11
15442,0.895968,0.318176,0.457744,-126.839996,0.770000,60.970001,20.13
15453,0.913048,0.204960,0.438712,-114.800003,1.400000,66.220001,20.07
15463,0.918904,0.191784,0.452864,-104.019997,4.060000,70.349998,20.07
15475,0.918904,0.136152,0.488488,-96.879997,5.670000,70.699997,20.13
15486,0.884744,0.005856,0.494344,-89.250000,4.830000,66.010002,20.13
15496,0.883768,-0.116632,0.505568,-75.739998,6.930000,61.180000,20.12
15507,0.873032,-0.239608,0.516304,-61.180000,8.680000,51.029999,20.12
15518,0.866200,-0.379176,0.533384,-47.599998,8.470000,37.660000,20.08
15529,0.861808,-0.488976,0.549000,-23.799999,6.090000,21.629999,20.09
15540,0.856440,-0.473848,0.537288,-0.980000,1.680000,9.660000,20.09
15551,0.866200,-0.434320,0.512400,14.630000,-0.700000,-6.300000,20.13
15562,0.872544,-0.372344,0.532896,30.940001,-2.030000,-20.650000,20.13
15574,0.856928,-0.293776,0.572912,41.439999,-4.340000,-34.509998,20.18
15585,0.846192,-0.312320,0.599752,60.970001,-6.930000,-46.830002,20.15
15596,0.864248,-0.359656,0.621712,93.519997,-10.010000,-61.529999,20.15
15607,0.874496,-0.316712,0.637328,123.199997,-11.410000,-73.919998,20.12
15618,0.872056,-0.239608,0.588040,158.899994,-10.430000,-80.919998,20.12
15629,0.875960,-0.114680,0.534848,186.130005,-9.520000,-80.779999,20.08
15640,0.875472,0.041480,0.468480,182.910004,-9.940000,-74.830002,20.08
15651,0.864736,0.142496,0.396744,153.789993,-9.310000,-64.820000,20.08
15662,0.822768,0.119072,0.350872,117.809998,-8.750000,-57.750000,20.15
15673,0.753960,0.256688,0.322080,89.739998,-11.690000,-43.680000,20.15
15684,0.733464,0.454816,0.355264,38.080002,-13.090000,-25.200001,20.14
15694,0.741760,0.533872,0.397720,-18.900000,-12.250000,-12.530000,20.08
15705,0.758840,0.593408,0.445056,-60.689999,-8.190000,8.750000,20.08
15716,0.776896,0.632936,0.433344,-102.760002,-6.580000,25.690001,20.11
15727,0.816424,0.574864,0.403576,-128.240005,-3.500000,38.500000,20.11
15738,0.852536,0.409920,0.423096,-135.240005,0.490000,50.680000,20.17
15748,0.869128,0.308416,0.431880,-133.350006,3.220000,59.360001,20.17
15759,0.873520,0.264984,0.447008,-130.690002,2.240000,68.809998,20.14
15770,0.897432,0.225456,0.447984,-122.709999,2.730000,76.580002,20.12
15780,0.907680,0.197640,0.478728,-114.239998,4.130000,79.730003,20.12
15791,0.889136,0.166896,0.506056,-110.599998,4.480000,80.290001,20.11
15802,0.874496,0.075640,0.502640,-106.330002,6.930000,77.000000,20.11
15813,0.866200,-0.090280,0.497272,-93.730003,11.690000,70.279999,20.12
15824,0.851072,-0.244976,0.477752,-79.099998,14.140000,57.750000,20.12
15835,0.840824,-0.430416,0.496296,-52.500000,14.140000,41.230000,20.10
15846,0.843752,-0.585600,0.528992,-19.320000,10.640000,28.139999,20.14
15857,0.843264,-0.587064,0.563152,1.540000,5.600000,11.410000,20.14
15867,0.849608,-0.562664,0.571448,22.610001,2.100000,-2.590000,20.10
15878,0.870592,-0.476776,0.559248,36.330002,-0.280000,-19.389999,20.10
15889,0.868152,-0.423096,0.569008,46.830002,-2.660000,-36.540001,20.12
15901,0.860344,-0.337696,0.582184,58.169998,-4.690000,-52.779999,20.11
15911,0.868152,-0.367464,0.627080,78.470001,-7.280000,-65.589996,20.11
15922,0.865712,-0.406504,0.663192,106.120003,-10.920000,-80.570000,20.15
15933,0.895968,-0.395768,0.664656,148.820007,-12.040000,-91.279999,20.15
15944,0.908656,-0.294752,0.631472,191.100006,-12.530000,-96.599998,20.13
15955,0.910608,-0.159088,0.567056,222.039993,-13.650000,-98.629997,20.13
15966,0.913536,0.020496,0.519720,246.960007,-14.910000,-93.309998,20.12
15977,0.871080,0.255712,0.476776,225.330002,-16.170000,-83.650002,20.10
15988,0.863272,0.308416,0.384544,190.889999,-16.660000,-72.730003,20.10
15999,0.833504,0.290848,0.361608,150.289993,-14.980000,-58.240002,20.14
16010,0.746152,0.444080,0.356240,86.379997,-15.400000,-38.430000,20.14
16021,0.761768,0.493856,0.331840,20.440001,-14.700000,-21.980000,20.11
16032,0.750544,0.569008,0.321104,-27.299999,-9.730000,0.910000,20.09
16043,0.758352,0.661728,0.309392,-90.160004,-7.980000,23.660000,20.09
16054,0.804712,0.619760,0.338672,-136.289993,-3.640000,40.040001,20.10
16065,0.825208,0.519720,0.366000,-156.240005,1.820000,55.650002,20.10
16075,0.837896,0.400648,0.409920,-165.130005,5.320000,68.459999,20.11
16086,0.852536,0.252784,0.446032,-158.270004,7.910000,74.900002,20.11
16097,0.844240,0.266936,0.511424,-157.990005,7.700000,85.050003,20.13
16108,0.862296,0.249368,0.531432,-159.600006,3.430000,91.699997,20.12
16118,0.888160,0.165432,0.514352,-154.630005,2.520000,93.940002,20.12
16129,0.897432,0.138104,0.500688,-151.759995,3.850000,94.639999,20.13
16140,0.884744,0.040016,0.457256,-144.199997,7.840000,91.279999,20.13
16151,0.858880,-0.089792,0.417240,-131.250000,12.110000,81.410004,20.13
16163,0.838384,-0.264008,0.383080,-90.230003,16.379999,66.779999,20.08
16174,0.833504,-0.553392,0.395280,-69.580002,18.270000,47.180000,20.08
16185,0.820328,-0.651968,0.438224,-23.799999,15.400000,30.799999,20.16
16195,0.821304,-0.656848,0.467992,14.840000,9.730000,10.430000,20.16
16206,0.840336,-0.550464,0.490440,35.910000,7.210000,-9.520000,20.13
16217,0.865224,-0.496296,0.531432,48.790001,5.880000,-24.709999,20.10
16228,0.840824,-0.385032,0.583160,53.480000,1.750000,-43.119999,20.10
16239,0.830576,-0.307440,0.609024,53.619999,-1.470000,-58.939999,20.06
16249,0.832040,-0.343064,0.647088,65.940002,-5.530000,-71.540001,20.06
16260,0.822280,-0.290360,0.676368,85.959999,-9.870000,-84.699997,20.11
16271,0.835456,-0.238632,0.660264,118.790001,-12.460000,-93.169998,20.11
16283,0.856440,-0.114680,0.610000,155.889999,-14.000000,-97.370003,20.13
16294,0.858392,0.007320,0.558760,186.199997,-16.379999,-98.279999,20.14
16305,0.862784,0.194224,0.459208,192.009995,-17.780001,-90.370003,20.14
16316,0.854976,0.235216,0.367952,177.869995,-16.379999,-80.010002,20.13
16329,0.781776,0.251320,0.369416,148.539993,-16.450001,-68.809998,20.08
16341,0.723704,0.543144,0.362584,97.790001,-21.490000,-46.410000,20.08
16353,0.727608,0.660264,0.348920,32.200001,-21.350000,-25.760000,20.11
16364,0.766160,0.626592,0.348920,-24.570000,-15.400000,-8.260000,20.11
16375,0.781776,0.685152,0.331352,-75.599998,-10.710000,7.770000,20.14
16386,0.817888,0.657824,0.310368,-109.199997,-7.070000,27.160000,20.11
16397,0.851560,0.502152,0.338184,-136.149994,-1.750000,42.000000,20.11
16408,0.875960,0.373808,0.377712,-144.830002,3.430000,51.169998,20.12
16419,0.893040,0.218136,0.409432,-141.050003,6.440000,60.759998,20.12
16430,0.908656,0.184952,0.466528,-132.789993,6.160000,67.339996,20.12
16441,0.922320,0.197640,0.527040,-131.389999,4.620000,73.709999,20.14
16452,0.929152,0.192272,0.561200,-130.059998,0.840000,76.370003,20.14
16463,0.932080,0.237168,0.575840,-138.740005,-0.070000,79.800003,20.12
16474,0.942816,0.104920,0.535336,-140.279999,3.640000,78.470001,20.12
16485,0.930616,-0.141032,0.513864,-118.930000,8.610000,69.440002,20.14
16496,0.887184,-0.237656,0.509960,-97.720001,9.520000,57.049999,20.14
16507,0.861320,-0.432856,0.510936,-64.260002,8.750000,40.810001,20.12
16518,0.856440,-0.550952,0.532408,-24.850000,6.720000,27.160000,20.10
16529,0.840336,-0.552904,0.545584,3.500000,1.540000,9.100000,20.10
16540,0.851072,-0.510448,0.553392,31.639999,-1.610000,-9.450000,20.12
16551,0.866200,-0.460672,0.551928,53.830002,-3.290000,-22.889999,20.12
16562,0.854488,-0.379176,0.577304,71.470001,-6.090000,-39.549999,20.14
16573,0.847168,-0.347456,0.602192,88.129997,-9.240000,-54.320000,20.09
16584,0.854488,-0.320616,0.624640,114.379997,-11.480000,-69.019997,20.09
16595,0.873032,-0.298168,0.641232,148.119995,-13.720000,-78.260002,20.14
16606,0.882792,-0.286456,0.640744,187.669998,-14.630000,-88.410004,20.14
16617,0.879864,-0.163968,0.605120,209.300003,-14.630000,-90.860001,20.13
16628,0.865712,0.113216,0.595848,212.520004,-15.750000,-85.680000,20.13
16639,0.839848,0.179584,0.382592,186.619995,-17.219999,-78.750000,20.13
16650,0.840824,0.104920,0.466040,165.059998,-16.309999,-70.000000,20.11
16661,0.783240,0.186904,0.447496,124.250000,-16.240000,-62.439999,20.11
16671,0.736880,0.346480,0.412848,64.540001,-17.990000,-42.910000,20.15
16682,0.741272,0.449936,0.348432,13.580000,-17.920000,-24.430000,20.15
16693,0.775920,0.467992,0.325496,-39.830002,-13.090000,-9.240000,20.12
16704,0.778360,0.592920,0.331352,-86.519997,-7.630000,10.780000,20.11
16715,0.799344,0.595360,0.338672,-115.290001,-4.690000,29.260000,20.11
16726,0.857416,0.409920,0.399184,-123.620003,4.060000,37.590000,20.12
16736,0.840336,0.350872,0.458720,-119.209999,9.520000,48.090000,20.12
16747,0.846192,0.412848,0.505568,-120.400002,9.030000,59.639999,20.09
16758,0.881816,0.353800,0.483120,-123.129997,9.240000,65.379997,20.09
16769,0.913048,0.146400,0.497272,-117.320000,9.730000,68.669998,20.09
16779,0.895968,0.133712,0.514352,-111.440002,7.840000,69.860001,20.15
16790,0.909144,0.237656,0.510448,-118.089996,5.180000,72.029999,20.15
16801,0.918904,0.122488,0.491416,-118.790001,9.310000,69.019997,20.16
16812,0.875472,-0.015616,0.492392,-108.709999,11.200000,59.290001,20.16
16823,0.873032,-0.205448,0.493856,-89.110001,12.460000,49.209999,20.13
16834,0.857904,-0.371856,0.494344,-62.930000,11.830000,32.410000,20.12
16845,0.857416,-0.409432,0.486536,-25.549999,9.870000,14.560000,20.12
16856,0.859856,-0.372344,0.491904,5.880000,6.020000,1.540000,20.17
16867,0.874984,-0.361120,0.512888,28.629999,3.850000,-13.720000,20.17
16878,0.867176,-0.306952,0.574864,54.180000,1.330000,-29.260000,20.11
16889,0.863760,-0.277184,0.639280,74.269997,-2.730000,-41.090000,20.16
16900,0.853512,-0.359656,0.696864,98.629997,-7.140000,-57.259998,20.16
16910,0.871568,-0.376736,0.706624,138.320007,-9.310000,-70.070000,20.11
16921,0.878888,-0.315736,0.676368,176.190002,-11.900000,-77.629997,20.11
16932,0.882792,-0.213744,0.620248,203.979996,-15.050000,-82.529999,20.13
16943,0.891088,-0.015616,0.491904,216.020004,-15.680000,-80.010002,20.13
16954,0.882792,0.113704,0.393816,205.309998,-16.520000,-74.410004,20.13
16965,0.840336,0.198128,0.374296,167.229996,-18.410000,-66.010002,20.11
16976,0.792024,0.346968,0.321592,134.050003,-20.020000,-54.459999,20.11
16987,0.787632,0.366000,0.303048,81.830002,-19.180000,-42.139999,20.09
16998,0.757864,0.511424,0.331840,18.200001,-16.590000,-26.040001,20.09
17008,0.757864,0.646600,0.337208,-26.600000,-13.370000,-5.250000,20.15
17019,0.780312,0.675880,0.313784,-81.480003,-8.540000,9.380000,20.07
17031,0.809104,0.606096,0.337696,-114.449997,-1.890000,27.299999,20.07
17041,0.818376,0.546072,0.354776,-129.429993,2.240000,40.810001,20.14
17052,0.841800,0.459208,0.392840,-132.649994,6.230000,50.750000,20.14
17063,0.854000,0.454328,0.413824,-135.449997,9.100000,62.580002,20.11
17074,0.870592,0.387472,0.450424,-137.899994,9.870000,71.330002,20.11
17084,0.868152,0.265960,0.521184,-138.600006,8.540000,76.440002,20.15
17095,0.880840,0.206912,0.542168,-139.089996,5.250000,81.339996,20.09
17106,0.906704,0.085888,0.562664,-131.669998,4.060000,81.900002,20.09
17116,0.893040,0.062952,0.585112,-128.520004,2.520000,80.639999,20.14
17127,0.897432,-0.004392,0.585112,-125.019997,3.010000,78.820000,20.14
17138,0.874984,-0.115168,0.561200,-117.040001,2.310000,69.650002,20.15
17149,0.856928,-0.278160,0.529480,-102.339996,2.240000,56.700001,20.15
17160,0.851560,-0.416264,0.500688,-71.260002,1.470000,43.330002,20.13
17171,0.850584,-0.554856,0.496784,-30.799999,-0.910000,24.570000,20.11
17181,0.846192,-0.536312,0.501176,-2.100000,-3.290000,6.160000,20.11
17192,0.860832,-0.527528,0.534360,26.740000,-5.880000,-7.700000,20.12
17203,0.871568,-0.525088,0.564616,46.830002,-7.980000,-24.780001,20.12
17214,0.864248,-0.397720,0.585112,61.529999,-10.570000,-41.930000,20.15
17225,0.867176,-0.361120,0.585600,68.529999,-13.020000,-55.230000,20.17
17236,0.870592,-0.333792,0.575840,78.750000,-14.630000,-69.650002,20.17
17247,0.878400,-0.375272,0.561688,99.540001,-16.100000,-80.360001,20.15
17258,0.883280,-0.271328,0.537288,122.500000,-16.799999,-87.220001,20.15
17269,0.887184,-0.209840,0.489464,143.710007,-16.940001,-91.070000,20.15
17280,0.893528,-0.138592,0.423584,171.500000,-13.720000,-91.349998,20.15
17291,0.863272,0.029280,0.409920,178.220001,-12.250000,-87.080002,20.17
17302,0.811544,0.222040,0.387960,156.309998,-12.320000,-77.489998,20.16
17313,0.794464,0.301584,0.345992,133.139999,-11.340000,-66.500000,20.16
17323,0.777872,0.430904,0.348432,102.760002,-9.380000,-52.150002,20.13
17335,0.741272,0.618296,0.332328,52.009998,-7.910000,-20.510000,20.13
17345,0.776408,0.535824,0.314760,9.240000,-0.980000,-22.120001,20.12
17356,0.779824,0.588040,0.293288,-20.930000,5.390000,-3.710000,20.10
17367,0.768600,0.622200,0.306464,-62.790001,8.610000,12.180000,20.10
17378,0.809104,0.529968,0.340136,-87.849998,13.160000,29.540001,20.12
17388,0.822280,0.376248,0.423584,-105.910004,17.010000,43.540001,20.12
17399,0.798856,0.378200,0.500200,-120.260002,15.610000,53.549999,20.12
17410,0.810080,0.407480,0.584136,-129.639999,10.920000,64.750000,20.12
17421,0.854000,0.391864,0.605608,-144.619995,9.030000,73.709999,20.15
17432,0.915488,0.269864,0.610488,-147.699997,8.330000,79.870003,20.12
17443,0.918416,0.229848,0.575840,-148.750000,6.720000,82.739998,20.12
17453,0.912072,0.149328,0.532896,-146.160004,7.070000,82.879997,20.16
17464,0.872544,0.050752,0.537776,-139.509995,7.560000,77.769997,20.16
17475,0.856440,-0.060024,0.478728,-128.309998,9.380000,67.059998,20.14
17486,0.842288,-0.325496,0.471896,-93.940002,11.480000,54.389999,20.16
17497,0.831552,-0.513376,0.476776,-54.740002,8.680000,35.980000,20.16
17509,0.837408,-0.572912,0.499712,-0.490000,4.200000,17.080000,20.15
17520,0.846680,-0.547536,0.520696,26.320000,1.260000,-2.100000,20.15
17530,0.849608,-0.491416,0.550464,48.020000,-1.120000,-16.799999,20.12
17541,0.852536,-0.435784,0.572424,59.709999,-4.410000,-32.619999,20.12
17552,0.856928,-0.334280,0.562664,64.400002,-6.930000,-48.509998,20.14
17563,0.852536,-0.263032,0.580720,64.540001,-8.610000,-58.730000,20.13
17574,0.853024,-0.256200,0.570472,74.760002,-10.080000,-71.400002,20.13
17585,0.852536,-0.249368,0.563640,94.709999,-11.900000,-83.580002,20.09
17596,0.854976,-0.113216,0.573888,120.190002,-12.880000,-90.019997,20.09
17608,0.849120,0.019032,0.545584,136.080002,-11.830000,-86.730003,20.14
17619,0.870592,0.052216,0.498248,134.539993,-10.360000,-84.000000,20.11
17630,0.881328,0.015616,0.452864,130.619995,-6.720000,-77.000000,20.11
17641,0.828624,0.088328,0.376248,126.209999,-5.810000,-68.040001,20.14
17652,0.749080,0.341600,0.353312,98.839996,-8.960000,-52.290001,20.14
17662,0.743224,0.554856,0.359168,53.759998,-10.640000,-32.200001,20.10
17673,0.756400,0.744200,0.371856,-5.180000,-7.490000,-13.790000,20.11
17684,0.760304,0.697352,0.394304,-57.820000,-1.890000,2.030000,20.11
17695,0.782752,0.636352,0.441152,-91.070000,3.710000,20.440001,20.13
17705,0.814960,0.572424,0.466528,-117.459999,8.610000,32.900002,20.13
17716,0.842776,0.424560,0.486536,-123.129997,12.670000,49.560001,20.13
17727,0.850584,0.416264,0.499224,-127.050003,12.110000,64.610001,20.13
17738,0.886696,0.427488,0.493368,-126.139999,10.710000,74.059998,20.15
17748,0.911584,0.395768,0.507520,-125.790001,12.110000,82.669998,20.11
17759,0.898408,0.328424,0.498248,-124.110001,13.160000,85.540001,20.11
17770,0.875960,0.122000,0.498248,-115.500000,16.590000,84.629997,20.15
17780,0.847168,0.031720,0.528504,-103.389999,16.450001,77.559998,20.15
17791,0.831552,-0.153720,0.546560,-86.309998,17.430000,69.089996,20.17
17802,0.829600,-0.401624,0.604632,-64.120003,16.450001,53.900002,20.17
17812,0.820328,-0.488000,0.626104,-36.119999,11.690000,40.250000,20.14
17823,0.822280,-0.495808,0.630496,-18.969999,5.950000,20.440001,20.15
17834,0.835456,-0.519232,0.616832,-2.870000,2.170000,5.670000,20.15
17845,0.846680,-0.458232,0.590480,10.850000,-2.730000,-13.370000,20.13
17856,0.845704,-0.453840,0.615856,23.799999,-8.260000,-30.590000,20.13
17866,0.850584,-0.402112,0.636352,43.189999,-10.570000,-43.750000,20.13
17877,0.853024,-0.388448,0.643672,73.360001,-13.090000,-60.970001,20.13
17888,0.859368,-0.315248,0.640744,102.129997,-15.400000,-76.230003,20.13
17899,0.882304,-0.278160,0.644160,143.500000,-16.940001,-84.070000,20.14
17910,0.878400,-0.203496,0.603656,193.270004,-17.639999,-92.400002,20.14
17920,0.882304,-0.067344,0.573888,202.300003,-17.709999,-92.120003,20.18
17931,0.858880,0.159576,0.535824,198.660004,-18.410000,-85.750000,20.18
17942,0.862296,0.117608,0.404064,192.919998,-12.950000,-79.169998,20.09
17953,0.816912,0.061976,0.445544,192.710007,-10.150000,-71.680000,20.10
17964,0.685152,0.419192,0.407968,142.240005,-12.600000,-56.840000,20.10
17975,0.688080,0.559736,0.377712,87.919998,-16.100000,-34.930000,20.14
17985,0.707112,0.610000,0.329888,16.870001,-12.740000,-1.050000,20.14
17996,0.735416,0.752008,0.314760,-39.689999,-7.350000,4.550000,20.12
18007,0.747616,0.750544,0.289872,-97.580002,-2.730000,26.250000,20.12
18018,0.787144,0.645136,0.300120,-133.279999,4.340000,40.389999,20.14
18029,0.819840,0.496296,0.339648,-145.529999,13.720000,58.799999,20.14
18040,0.809104,0.368928,0.464088,-142.449997,18.200001,74.129997,20.14
18050,0.793976,0.369416,0.540216,-133.979996,17.080000,83.580002,20.12
18061,0.811544,0.399672,0.607072,-131.179993,13.860000,92.610001,20.12
18072,0.872056,0.368440,0.638792,-133.000000,11.620000,100.730003,20.12
18082,0.882792,0.199592,0.604632,-129.710007,10.570000,105.000000,20.12
18093,0.868640,0.215208,0.575352,-131.880005,7.490000,105.349998,20.11
18104,0.871568,0.079056,0.553880,-132.440002,8.610000,101.919998,20.12
18115,0.838872,-0.094184,0.510448,-123.550003,12.600000,91.629997,20.12
18127,0.815448,-0.375760,0.503128,-92.959999,12.600000,74.760002,20.14
18140,0.807152,-0.645136,0.529480,-49.630001,9.030000,49.070000,20.07
18153,0.812032,-0.711504,0.557296,0.000000,3.150000,24.850000,20.07
18164,0.824232,-0.649528,0.568520,28.980000,-2.590000,2.170000,20.13
18176,0.854976,-0.605608,0.581208,43.820000,-5.950000,-18.410000,20.13
18189,0.843264,-0.551928,0.626104,63.139999,-10.570000,-45.290001,20.16
18201,0.820328,-0.395768,0.677344,74.760002,-15.960000,-65.660004,20.15
18212,0.820816,-0.425536,0.713944,98.279999,-20.930000,-80.010002,20.15
18223,0.838872,-0.395280,0.695888,134.190002,-25.900000,-96.180000,20.16
18235,0.867664,-0.276208,0.639768,162.330002,-28.840000,-102.970001,20.04
18246,0.886696,-0.144448,0.561688,172.059998,-27.580000,-98.489998,20.04
18258,0.873520,-0.069296,0.498736,163.380005,-25.830000,-92.680000,20.14
18270,0.820816,-0.063928,0.408944,134.539993,-24.360001,-83.510002,20.07
18281,0.728584,0.189344,0.320128,77.769997,-27.580000,-65.519997,20.07
18292,0.711504,0.337208,0.277672,31.080000,-30.940001,-42.770000,20.12
18303,0.689544,0.696376,0.374296,-37.450001,-30.590000,-18.969999,20.12
18315,0.765672,0.911584,0.363560,-110.529999,-25.129999,9.520000,20.13
18326,0.834480,0.723216,0.398208,-143.289993,-11.900000,24.360001,20.14
18337,0.847656,0.651480,0.425536,-151.479996,0.070000,42.139999,20.14
18349,0.875472,0.579744,0.428464,-144.619995,7.070000,60.759998,20.16
18360,0.887672,0.445056,0.424072,-127.540001,11.900000,74.830002,20.16
18371,0.883768,0.408944,0.452376,-111.370003,11.970000,88.410004,20.11
18382,0.885720,0.374784,0.469456,-94.220001,11.620000,96.809998,20.15
18394,0.877424,0.287920,0.462136,-86.099998,14.840000,98.769997,20.15
18406,0.860832,0.126392,0.453840,-84.209999,18.690001,96.739998,20.11
18418,0.816912,-0.179096,0.497760,-77.070000,23.660000,85.120003,20.11
18429,0.802760,-0.486048,0.543632,-55.160000,22.959999,67.269997,20.11
18440,0.792024,-0.618296,0.594872,-26.809999,18.410000,48.299999,20.14
18452,0.804224,-0.650504,0.611952,-2.240000,12.040000,31.010000,20.14
18463,0.815448,-0.627568,0.609512,16.730000,6.020000,11.830000,20.12
18474,0.834480,-0.641720,0.608536,40.459999,1.330000,-10.710000,20.12
18486,0.849120,-0.513864,0.630496,57.330002,-2.520000,-30.170000,20.15
18497,0.850096,-0.497272,0.663192,79.169998,-7.980000,-50.889999,20.16
18509,0.829600,-0.523136,0.691008,115.849998,-12.950000,-70.000000,20.16
18520,0.872544,-0.453352,0.711504,156.520004,-15.890000,-84.980003,20.09
18532,0.861320,-0.312808,0.695400,195.369995,-19.250000,-94.080002,20.09
18543,0.848144,-0.116144,0.656360,204.679993,-20.020000,-88.410004,20.09
18555,0.874984,-0.000488,0.522648,196.699997,-23.379999,-87.220001,20.13
18566,0.895968,-0.031232,0.368928,193.270004,-19.110001,-80.360001,20.13
18577,0.785680,0.233264,0.329400,175.839996,-21.980000,-66.849998,20.20
18589,0.719800,0.589016,0.363560,100.239998,-27.090000,-45.150002,20.12
18600,0.753472,0.557784,0.368928,38.990002,-24.010000,-24.570000,20.12
18612,0.714920,0.604144,0.389424,-21.209999,-18.480000,-6.300000,20.08
18623,0.731024,0.703696,0.354776,-76.580002,-15.470000,17.780001,20.08
18634,0.813984,0.572424,0.345992,-109.550003,-8.260000,35.419998,20.11
18646,0.831552,0.471896,0.384056,-119.419998,2.100000,52.009998,20.12
18657,0.837896,0.476288,0.424560,-120.400002,5.880000,67.900002,20.12
18669,0.841800,0.463112,0.467504,-122.430000,7.140000,79.449997,20.13
18680,0.878400,0.331840,0.495808,-116.620003,8.750000,86.800003,20.11
18691,0.888160,0.203008,0.489952,-104.510002,10.570000,90.160004,20.11
18703,0.874496,0.156648,0.494344,-98.699997,9.940000,90.860001,20.15
18714,0.868640,-0.017568,0.508496,-90.580002,12.670000,85.750000,20.15
18726,0.848144,-0.126392,0.516792,-82.739998,15.540000,75.599998,20.12
18738,0.825696,-0.387472,0.532408,-67.620003,13.860000,60.270000,20.12
18749,0.823256,-0.557784,0.547536,-37.660000,9.520000,39.759998,20.12
18761,0.830576,-0.592432,0.583648,-5.600000,4.760000,19.110001,20.11
18773,0.854000,-0.648064,0.652944,25.900000,-0.280000,-0.560000,20.11
18784,0.857904,-0.607072,0.698816,55.720001,-5.250000,-20.580000,20.14
18795,0.865712,-0.485560,0.734440,74.690002,-9.520000,-38.500000,20.13
18807,0.850584,-0.407968,0.736392,86.029999,-15.890000,-53.759998,20.13
18818,0.880840,-0.447984,0.663680,112.769997,-20.160000,-64.820000,20.14
18830,0.894992,-0.428952,0.588040,145.600006,-21.209999,-73.220001,20.11
18841,0.892064,-0.198128,0.508984,153.229996,-22.820000,-71.610001,20.11
18855,0.864736,0.049776,0.466528,127.190002,-25.270000,-62.509998,20.11
18868,0.817400,0.369904,0.380152,82.320000,-26.320000,-47.880001,20.11
18881,0.812520,0.317688,0.327448,37.029999,-20.930000,-35.349998,20.11
18892,0.779336,0.345016,0.342576,0.490000,-16.520000,-23.240000,20.13
18903,0.777872,0.446520,0.350872,-32.549999,-11.690000,-3.290000,20.13
18915,0.805688,0.567056,0.336720,-72.449997,-6.160000,18.410000,20.14
18926,0.835456,0.504592,0.355752,-99.470001,0.840000,37.869999,20.10
18938,0.840336,0.425048,0.416264,-112.000000,7.700000,54.389999,20.10
18949,0.850096,0.365024,0.448472,-112.070000,10.220000,65.309998,20.12
18960,0.863760,0.322080,0.462624,-109.550003,12.670000,78.820000,20.15
18971,0.866688,0.312320,0.491416,-113.680000,14.700000,88.550003,20.15
18983,0.852536,0.206912,0.520696,-115.849998,16.450001,92.190002,20.14
18994,0.823744,0.020496,0.557296,-113.959999,17.639999,88.199997,20.14
19005,0.772992,-0.183976,0.589016,-106.120003,17.360001,76.650002,20.11
19016,0.766648,-0.422608,0.618784,-87.570000,15.050000,61.810001,20.16
19029,0.765184,-0.719800,0.631960,-43.750000,9.240000,35.000000,20.16
19041,0.768600,-0.692472,0.619272,-16.240000,2.380000,9.380000,20.12
19052,0.796416,-0.771528,0.624640,21.070000,-4.830000,-13.860000,20.12
19064,0.812520,-0.638792,0.665144,45.919998,-11.550000,-37.169998,20.11
19076,0.822280,-0.608048,0.714920,69.650002,-17.780001,-59.009998,20.16
19088,0.828136,-0.591456,0.737856,92.820000,-24.639999,-78.470001,20.16
19099,0.856928,-0.499224,0.725168,126.489998,-30.450001,-93.940002,20.16
19110,0.868640,-0.303536,0.663680,154.419998,-33.669998,-102.620003,20.08
19122,0.863760,-0.187880,0.531920,176.889999,-36.259998,-102.760002,20.08
19133,0.921344,-0.111264,0.440176,185.009995,-30.940001,-96.529999,20.11
19144,0.870104,0.030256,0.358680,171.919998,-28.559999,-87.989998,20.11
19155,0.822768,0.327448,0.297680,138.320007,-28.700001,-71.260002,20.13
19167,0.784704,0.444080,0.215696,81.269997,-26.740000,-50.680000,20.13
19178,0.800808,0.384544,0.231800,35.770000,-18.059999,-33.669998,20.13
19189,0.758352,0.621712,0.244000,-19.670000,-11.830000,-15.260000,20.13
19200,0.806664,0.678320,0.237168,-63.700001,-5.460000,9.940000,20.13
19211,0.851072,0.616832,0.258152,-97.089996,4.270000,31.990000,20.11
19222,0.847656,0.636840,0.300120,-113.959999,13.580000,48.509998,20.09
19232,0.872056,0.545096,0.351360,-120.260002,20.860001,65.589996,20.09
19243,0.879864,0.403576,0.434320,-120.190002,25.410000,79.379997,20.13
19254,0.869128,0.341600,0.496784,-115.570000,26.459999,87.919998,20.13
19265,0.864248,0.309392,0.536312,-115.150002,24.430000,95.059998,20.16
19276,0.861808,0.199104,0.554368,-117.459999,23.660000,96.739998,20.16
19286,0.841312,0.046360,0.580720,-119.699997,23.100000,94.500000,20.15
19297,0.817400,-0.165920,0.596824,-118.650002,22.260000,85.540001,20.10
19309,0.795440,-0.458232,0.630984,-105.139999,20.020000,70.419998,20.10
19320,0.789096,-0.626104,0.637328,-77.629997,13.580000,55.299999,20.15
19330,0.796904,-0.731024,0.632936,-45.080002,6.230000,33.740002,20.15
19344,0.811056,-0.758840,0.629520,-13.300000,-0.700000,6.510000,20.12
19355,0.837408,-0.681248,0.612440,14.840000,-5.880000,-17.219999,20.13
19366,0.857904,-0.599264,0.616832,35.000000,-10.080000,-34.090000,20.13
19377,0.857416,-0.560712,0.617320,50.889999,-15.470000,-53.200001,20.14
19388,0.868640,-0.569008,0.617808,84.070000,-19.740000,-72.309998,20.14
19399,0.869128,-0.466040,0.623176,122.010002,-23.379999,-84.349998,20.16
19410,0.878888,-0.359168,0.605608,164.360001,-25.620001,-94.779999,20.14
19422,0.890112,-0.257176,0.566080,207.619995,-26.530001,-101.779999,20.14
19433,0.896944,-0.076616,0.524600,231.279999,-25.340000,-100.099998,20.12
19444,0.880840,0.069296,0.447984,238.770004,-26.950001,-97.650002,20.12
19455,0.853024,0.188856,0.404552,209.860001,-25.690001,-88.830002,20.14
19466,0.814960,0.286456,0.327936,175.910004,-24.709999,-75.949997,20.12
19476,0.773968,0.353312,0.288896,123.129997,-22.190001,-56.560001,20.12
19488,0.745176,0.459696,0.258640,65.940002,-21.770000,-22.750000,20.14
19499,0.754936,0.579744,0.225944,6.720000,-15.540000,-18.129999,20.14
19510,0.768600,0.716384,0.223016,-32.830002,-6.720000,4.690000,20.14
19521,0.799832,0.772504,0.234240,-77.279999,2.240000,27.510000,20.09
19533,0.830088,0.631472,0.271328,-104.160004,14.350000,46.830002,20.09
19544,0.824232,0.560712,0.329400,-117.110001,21.420000,64.680000,20.17
19555,0.830088,0.479704,0.380640,-117.529999,24.990000,79.099998,20.17
19566,0.826184,0.357704,0.444568,-114.379997,28.139999,86.660004,20.14
19577,0.828136,0.388448,0.489464,-115.639999,24.500000,96.809998,20.11
19588,0.850096,0.325008,0.521184,-118.019997,24.080000,103.250000,20.11
19599,0.849120,0.237168,0.552416,-123.269997,23.660000,107.169998,20.15
19610,0.837896,0.061000,0.570960,-124.949997,22.330000,106.680000,20.15
19621,0.831552,-0.089304,0.571936,-121.519997,22.190001,100.940002,20.13
19632,0.826672,-0.227896,0.576816,-115.010002,21.280001,93.940002,20.12
19643,0.825208,-0.455792,0.557296,-96.250000,19.110001,81.059998,20.12
19654,0.818376,-0.702232,0.579256,-69.720001,14.000000,63.349998,20.13
19665,0.817400,-0.715408,0.610488,-39.689999,7.910000,48.509998,20.13
19676,0.817400,-0.770552,0.635864,-14.840000,2.030000,27.370001,20.18
19687,0.827648,-0.787632,0.650992,3.570000,-2.030000,2.800000,20.18
19697,0.830576,-0.689056,0.637328,16.379999,-7.630000,-15.540000,20.15
19708,0.841800,-0.681248,0.636352,24.430000,-11.340000,-36.820000,20.11
19719,0.821304,-0.685640,0.653920,50.189999,-16.379999,-56.630001,20.11
19730,0.812032,-0.547048,0.645136,71.330002,-22.260000,-73.779999,20.16
19741,0.832528,-0.517768,0.638792,98.769997,-25.270000,-86.239998,20.16
19752,0.844728,-0.444568,0.610488,129.710007,-27.860001,-100.239998,20.12
19763,0.863760,-0.319640,0.538752,166.039993,-27.580000,-105.699997,20.16
19774,0.865224,-0.250832,0.485072,185.360001,-28.629999,-109.059998,20.16
19785,0.848144,-0.062952,0.453840,177.589996,-30.100000,-99.540001,20.14
19797,0.760792,0.172264,0.387472,157.990005,-38.500000,-89.250000,20.14
19808,0.804224,0.423584,0.343552,115.150002,-35.139999,-70.209999,20.14
19818,0.785192,0.505080,0.336232,76.930000,-30.730000,-59.080002,20.12
19829,0.772016,0.626592,0.344040,42.139999,-22.469999,-40.880001,20.12
19840,0.774456,0.677832,0.322568,-1.750000,-18.059999,-19.740000,20.11
19851,0.802272,0.695888,0.299144,-38.290001,-8.400000,-1.470000,20.11
19862,0.816424,0.652456,0.267424,-56.910000,0.630000,19.670000,20.14
19873,0.822280,0.568520,0.262544,-65.379997,7.700000,37.730000,20.14
19884,0.830088,0.533872,0.291824,-70.559998,15.470000,49.700001,20.15
19895,0.832040,0.495808,0.318176,-76.580002,21.700001,64.540001,20.13
19906,0.824720,0.389912,0.378200,-77.769997,24.360001,73.290001,20.13
19917,0.845704,0.265472,0.459696,-76.860001,27.299999,79.730003,20.13
19928,0.841312,0.176656,0.506544,-81.620003,28.280001,82.320000,20.13
19939,0.842776,0.051240,0.558272,-88.269997,26.879999,82.809998,20.10
19950,0.840824,-0.073200,0.601216,-96.110001,24.850000,78.750000,20.12
19961,0.836432,-0.261568,0.639280,-99.889999,20.580000,71.330002,20.12
19972,0.833504,-0.388936,0.672952,-102.199997,15.680000,59.360001,20.17
19983,0.829600,-0.520696,0.684664,-96.809998,9.310000,42.560001,20.17
19994,0.835456,-0.617320,0.682224,-78.470001,2.170000,25.620001,20.12
20005,0.861808,-0.764696,0.676368,-44.450001,-3.150000,2.800000,20.12
20016,0.868640,-0.771528,0.687104,-13.300000,-10.710000,-19.809999,20.11
20027,0.868152,-0.738832,0.710528,20.160000,-16.870001,-43.750000,20.11
20038,0.884744,-0.677344,0.711504,51.520000,-22.820000,-60.200001,20.11
20049,0.875472,-0.548512,0.695400,73.570000,-28.139999,-76.510002,20.12
20060,0.892552,-0.527040,0.643672,102.970001,-30.940001,-87.779999,20.12
20071,0.893528,-0.437736,0.572912,127.680000,-35.000000,-92.400002,20.16
20082,0.875472,-0.259616,0.508496,142.520004,-39.619999,-93.309998,20.14
20093,0.825696,0.095160,0.468968,134.050003,-44.240002,-85.889999,20.14
20104,0.810080,0.449936,0.437736,89.739998,-45.639999,-71.190002,20.15
20115,0.817400,0.482144,0.253272,42.279999,-41.160000,-61.529999,20.15
20126,0.785680,0.441640,0.328424,18.900000,-32.830002,-48.439999,20.16
20136,0.770064,0.585112,0.272792,-14.770000,-28.490000,-28.420000,20.11
20148,0.795440,0.590968,0.230824,-48.020000,-20.090000,-10.080000,20.11
20159,0.814472,0.598288,0.211304,-69.370003,-10.220000,13.090000,20.13
20170,0.821792,0.621224,0.227408,-82.389999,-3.640000,35.070000,20.13
20180,0.847168,0.612928,0.238632,-95.690002,4.340000,49.770000,20.14
20191,0.869128,0.481168,0.266936,-97.580002,14.070000,64.330002,20.14
20202,0.863272,0.419192,0.304024,-97.930000,18.969999,77.980003,20.16
20213,0.863272,0.358192,0.363072,-101.779999,21.629999,86.239998,20.11
20224,0.841312,0.197640,0.431880,-103.389999,23.590000,91.629997,20.11
20235,0.829600,0.023912,0.492880,-102.830002,24.360001,90.580002,20.13
20246,0.806664,-0.104920,0.528504,-96.949997,24.639999,84.629997,20.13
20257,0.793976,-0.314272,0.544120,-84.419998,23.799999,73.639999,20.12
20268,0.793976,-0.594384,0.548512,-58.240002,19.110001,55.299999,20.10
20279,0.804712,-0.626592,0.561688,-26.600000,14.420000,34.509998,20.10
20290,0.830576,-0.733464,0.590480,8.470000,9.590000,17.360001,20.16
20300,0.829600,-0.743712,0.654408,35.419998,2.100000,-7.490000,20.16
20311,0.854976,-0.732976,0.709552,64.260002,-3.430000,-26.530001,20.14
20322,0.865224,-0.711992,0.741272,89.250000,-10.710000,-49.840000,20.15
20333,0.873520,-0.649040,0.758352,110.389999,-17.360001,-69.440002,20.15
20344,0.879864,-0.524112,0.719312,139.160004,-21.629999,-84.279999,20.11
20355,0.887672,-0.411872,0.617808,173.110001,-25.549999,-93.589996,20.11
20366,0.909632,-0.266448,0.497272,206.080002,-27.299999,-98.699997,20.11
20377,0.902312,-0.012688,0.377712,209.020004,-26.600000,-91.769997,20.11
20388,0.885720,0.127368,0.288408,197.330002,-26.809999,-85.330002,20.18
20399,0.789584,0.236192,0.238144,174.860001,-29.540001,-72.449997,20.15
20410,0.807152,0.440664,0.293776,138.039993,-19.389999,-55.090000,20.15
20421,0.745176,0.541680,0.308904,78.889999,-16.520000,-38.919998,20.15
20432,0.768112,0.539728,0.288896,19.600000,-6.720000,-22.330000,20.15
20443,0.760792,0.638792,0.253760,-41.230000,-3.080000,-0.210000,20.14
20454,0.800808,0.640256,0.218624,-76.930000,3.360000,22.820000,20.16
20465,0.831064,0.593408,0.255224,-111.860001,11.270000,38.570000,20.16
20476,0.834480,0.582184,0.320616,-131.389999,17.360001,57.540001,20.14
20487,0.877912,0.412360,0.397720,-131.949997,25.549999,71.190002,20.14
20498,0.866688,0.335256,0.440664,-129.429993,27.510000,82.250000,20.14
20509,0.870592,0.195688,0.499224,-122.430000,24.360001,87.709999,20.13
20520,0.883768,0.139568,0.519232,-116.690002,23.450001,92.400002,20.13
20530,0.885232,0.078080,0.568520,-112.769997,23.660000,93.239998,20.13
20542,0.863760,-0.012688,0.598776,-112.839996,22.540001,89.599998,20.13
20553,0.833992,-0.172752,0.598288,-108.709999,21.910000,81.690002,20.15
20564,0.814960,-0.378688,0.581696,-97.930000,19.110001,67.129997,20.15
20575,0.824232,-0.543632,0.566080,-72.940002,16.660000,48.299999,20.10
20586,0.822768,-0.643184,0.580720,-38.990002,12.880000,31.150000,20.14
20597,0.824720,-0.717848,0.598776,-8.610000,6.860000,8.540000,20.14
20608,0.841800,-0.732976,0.635376,26.950001,1.610000,-12.950000,20.18
20619,0.863760,-0.676856,0.666120,53.970001,-3.360000,-30.660000,20.18
20630,0.857416,-0.633912,0.701744,72.239998,-8.610000,-49.419998,20.13
20641,0.859856,-0.612440,0.707600,97.440002,-12.740000,-66.779999,20.12
20652,0.877912,-0.613416,0.659776,133.419998,-17.500000,-80.919998,20.12
20663,0.859368,-0.438712,0.585600,162.259995,-20.790001,-86.169998,20.11
20674,0.835944,-0.127856,0.510448,166.740005,-26.600000,-85.400002,20.11
20685,0.843752,0.196664,0.463600,145.740005,-30.240000,-74.620003,20.13
20696,0.848144,0.352824,0.430904,105.839996,-31.570000,-66.080002,20.14
20707,0.846680,0.438712,0.404064,55.790001,-28.420000,-54.320000,20.14
20718,0.836432,0.422608,0.382592,42.490002,-23.870001,-40.950001,20.15
20729,0.804712,0.480680,0.361608,10.080000,-18.129999,-27.650000,20.15
20740,0.821304,0.527528,0.350384,-21.840000,-11.830000,-4.620000,20.13
20751,0.830576,0.557296,0.330864,-46.060001,-6.160000,16.799999,20.13
20762,0.852048,0.509960,0.331840,-66.919998,-0.070000,36.330002,20.16
20773,0.851560,0.510936,0.356240,-87.010002,4.760000,49.279999,20.12
20784,0.863272,0.463600,0.372832,-101.360001,10.640000,62.720001,20.12
20794,0.897920,0.244488,0.399184,-105.559998,16.799999,74.480003,20.15
20805,0.862784,0.171288,0.438224,-104.230003,19.110001,77.489998,20.15
20816,0.845216,0.150792,0.485072,-112.349998,17.360001,80.500000,20.09
20827,0.841312,-0.063928,0.524600,-117.250000,18.830000,75.389999,20.13
20838,0.803248,-0.221552,0.556320,-114.519997,18.480000,65.589996,20.13
20849,0.772992,-0.393328,0.585112,-102.059998,15.470000,45.639999,20.18
20860,0.792512,-0.627080,0.598776,-80.779999,9.800000,25.340000,20.18
20871,0.799344,-0.840824,0.632936,-35.000000,3.920000,-0.980000,20.15
20882,0.815448,-0.859856,0.686128,17.360001,-4.970000,-21.209999,20.11
20893,0.835944,-0.783240,0.746152,61.040001,-14.770000,-44.590000,20.11
20904,0.856440,-0.647576,0.793488,85.260002,-21.000000,-66.919998,20.15
20915,0.862296,-0.562664,0.781288,111.860001,-28.700001,-84.839996,20.15
20926,0.872056,-0.418704,0.711016,130.899994,-32.689999,-92.400002,20.16
20937,0.902312,-0.416752,0.650016,144.550003,-35.349998,-99.820000,20.16
20948,0.874496,-0.219600,0.510448,149.729996,-37.590000,-95.620003,20.13
20959,0.847168,0.131272,0.406504,129.149994,-39.130001,-85.610001,20.13
20970,0.845704,0.362584,0.299144,89.459999,-35.910000,-70.209999,20.13
20981,0.819352,0.468968,0.268888,57.959999,-31.219999,-51.380001,20.15
20992,0.764696,0.606584,0.275720,15.470000,-25.900000,-20.020000,20.15
21003,0.787632,0.777384,0.269376,-35.349998,-17.290001,-12.320000,20.16
21014,0.826184,0.765672,0.245464,-68.669998,-5.810000,14.140000,20.15
21025,0.848144,0.611952,0.254248,-86.239998,5.110000,35.910000,20.15
21036,0.847168,0.537776,0.284016,-86.660004,15.610000,50.330002,20.13
21047,0.842288,0.508008,0.306464,-89.529999,20.860001,66.220001,20.13
21058,0.855464,0.326472,0.357216,-87.779999,24.709999,77.070000,20.12
21069,0.858392,0.206912,0.427000,-86.099998,28.840000,84.139999,20.11
21080,0.847168,0.057584,0.517768,-86.940002,27.160000,87.500000,20.11
21090,0.847168,-0.016104,0.568520,-92.610001,23.309999,87.430000,20.11
21101,0.842776,-0.151280,0.576816,-97.019997,21.700001,83.510002,20.11
21112,0.829600,-0.301096,0.563152,-100.029999,20.930000,71.470001,20.13
21123,0.810568,-0.514352,0.544120,-88.410004,18.059999,53.410000,20.13
21134,0.805200,-0.663192,0.543632,-58.590000,14.210000,35.630001,20.11
21145,0.813008,-0.707600,0.534848,-17.360001,10.080000,11.760000,20.10
21156,0.847656,-0.788120,0.561200,18.620001,4.690000,-11.480000,20.10
21167,0.867664,-0.838384,0.614880,68.389999,1.260000,-37.310001,20.14
21178,0.868640,-0.707600,0.666120,103.809998,-5.390000,-55.439999,20.14
21189,0.882304,-0.645624,0.700280,126.910004,-11.830000,-76.790001,20.14
21200,0.864736,-0.500200,0.711992,155.750000,-16.590000,-93.029999,20.12
21211,0.888160,-0.387472,0.638792,184.309998,-20.790001,-101.080002,20.12
21222,0.838872,-0.230824,0.560224,210.419998,-27.020000,-105.629997,20.15
21233,0.873032,0.077592,0.469944,197.050003,-25.620001,-97.580002,20.15
21244,0.858392,0.224480,0.343552,164.360001,-28.840000,-90.650002,20.16
21255,0.854000,0.279136,0.287432,133.630005,-24.150000,-79.309998,20.12
21266,0.779336,0.394304,0.276208,109.620003,-23.379999,-62.650002,20.12
21277,0.765184,0.529968,0.268400,70.769997,-18.620001,-43.820000,20.14
21288,0.753472,0.590480,0.292800,27.510000,-9.590000,-24.080000,20.14
21299,0.752008,0.777384,0.277672,-25.900000,-3.010000,-0.070000,20.13
21310,0.797392,0.772016,0.238144,-64.050003,5.670000,23.379999,20.13
21321,0.837408,0.670024,0.264496,-94.779999,14.630000,44.799999,20.16
21332,0.865712,0.455304,0.322080,-101.010002,23.590000,57.400002,20.13
21343,0.859856,0.411872,0.402112,-97.720001,26.600000,71.610001,20.13
21354,0.870104,0.424560,0.482144,-103.110001,25.760000,86.099998,20.14
21365,0.904264,0.317200,0.528992,-108.220001,24.639999,94.500000,20.14
21376,0.917440,0.280112,0.578280,-115.360001,21.559999,103.669998,20.11
21386,0.922808,0.240584,0.590480,-131.389999,20.790001,108.150002,20.14
21397,0.846680,0.103944,0.604632,-146.860001,22.959999,104.160004,20.14
21408,0.795440,-0.109800,0.584624,-154.419998,22.820000,94.220001,20.13
21419,0.788120,-0.583160,0.603656,-138.320007,23.730000,77.279999,20.13
21431,0.769576,-0.761280,0.623664,-96.389999,18.059999,56.209999,20.19
21442,0.787632,-0.844728,0.636840,-48.930000,10.640000,20.650000,20.13
21454,0.803736,-0.817400,0.632936,-8.470000,4.130000,11.900000,20.13
21466,0.816424,-0.703696,0.602680,16.520000,-0.140000,-8.330000,20.18
21477,0.849120,-0.587552,0.566080,29.680000,-2.240000,-31.010000,20.18
21489,0.843752,-0.640744,0.587552,51.660000,-6.580000,-52.779999,20.13
21500,0.822768,-0.469944,0.576328,70.070000,-13.580000,-70.769997,20.16
21512,0.806664,-0.345992,0.596824,94.919998,-17.430000,-84.699997,20.16
21523,0.834968,-0.217648,0.589016,139.369995,-16.379999,-90.230003,20.16
21535,0.833992,-0.111264,0.525088,165.130005,-17.219999,-99.610001,20.16
21546,0.850096,0.047824,0.443104,203.699997,-14.840000,-98.699997,20.12
21558,0.861808,0.164456,0.406992,210.419998,-11.760000,-91.139999,20.14
21569,0.832528,0.318664,0.370392,180.740005,-9.170000,-74.620003,20.14
21580,0.773480,0.363560,0.368440,141.820007,-10.430000,-59.080002,20.18
21592,0.724192,0.441640,0.359656,99.680000,-10.640000,-42.770000,20.14
21603,0.699792,0.601216,0.393816,39.970001,-8.330000,-21.139999,20.14
21614,0.697352,0.745664,0.395280,-29.540001,-5.740000,1.260000,20.10
21626,0.769088,0.701744,0.401624,-77.139999,0.560000,22.680000,20.10
21637,0.806176,0.565592,0.412848,-117.669998,6.720000,40.320000,20.12
21648,0.831552,0.378688,0.480192,-136.990005,8.960000,56.419998,20.15
21659,0.839848,0.269864,0.521672,-144.199997,9.870000,67.900002,20.15
21671,0.870592,0.181536,0.571448,-147.630005,6.510000,76.510002,20.14
21682,0.870592,0.159576,0.572424,-147.350006,1.190000,82.529999,20.14
21693,0.898408,0.207888,0.589992,-154.000000,-1.680000,89.040001,20.14
21704,0.891088,0.118584,0.569008,-158.550003,-0.770000,85.470001,20.12
21716,0.854976,-0.048312,0.548512,-154.350006,1.890000,75.110001,20.12
21727,0.834480,-0.322568,0.528016,-130.830002,5.320000,62.580002,20.15
21738,0.833016,-0.505080,0.489952,-91.980003,6.090000,41.930000,20.15
21749,0.831064,-0.628056,0.474824,-44.660000,3.430000,20.090000,20.18
21761,0.837896,-0.676856,0.478240,14.350000,-0.420000,0.910000,20.13
21772,0.855464,-0.622688,0.501176,38.360001,-3.430000,-19.389999,20.13
21784,0.873032,-0.582184,0.548512,74.059998,-4.130000,-38.990002,20.17
21796,0.864736,-0.520208,0.587552,108.430000,-6.580000,-57.470001,20.17
21807,0.863760,-0.440176,0.610488,144.759995,-8.330000,-73.360001,20.12
21818,0.870104,-0.339160,0.589992,185.289993,-9.030000,-82.389999,20.14
21830,0.876936,-0.200080,0.547536,220.220001,-7.560000,-85.120003,20.14
21841,0.826184,-0.053680,0.520696,230.649994,-10.360000,-80.570000,20.10
21853,0.878888,0.122488,0.486536,191.309998,-6.510000,-72.309998,20.14
21865,0.841800,0.036600,0.406992,150.429993,-5.390000,-62.790001,20.14
21876,0.740784,0.195688,0.386008,89.320000,-8.190000,-47.599998,20.17
21888,0.723704,0.400160,0.384544,19.740000,-16.030001,-27.860001,20.17
21899,0.728096,0.557784,0.432368,-44.869999,-14.910000,-8.190000,20.14
21910,0.772992,0.711504,0.455792,-102.620003,-10.360000,14.560000,20.16
21922,0.816424,0.579744,0.498248,-135.380005,-5.390000,31.360001,20.16
21933,0.836432,0.471896,0.540704,-146.580002,0.490000,46.619999,20.15
21945,0.857416,0.348920,0.554368,-151.970001,0.980000,59.779999,20.15
21956,0.890112,0.231800,0.543144,-146.160004,-0.350000,70.769997,20.16
21967,0.887184,0.187392,0.580720,-134.610001,-3.640000,76.790001,20.14
21979,0.882304,0.228384,0.572912,-128.869995,-6.860000,82.250000,20.14
21990,0.894504,0.138592,0.565592,-123.480003,-4.690000,80.849998,20.16
22001,0.862296,0.019520,0.537288,-116.410004,-0.700000,74.410004,20.16
22013,0.837408,-0.176656,0.471408,-105.000000,4.340000,63.000000,20.14
22024,0.833016,-0.466040,0.430416,-73.919998,6.930000,45.080002,20.11
22035,0.813984,-0.581696,0.435296,-31.709999,5.530000,30.100000,20.11
22046,0.816912,-0.624152,0.448472,13.790000,4.550000,11.550000,20.15
22057,0.841800,-0.490440,0.467992,42.840000,2.660000,-5.880000,20.15
22069,0.845704,-0.445544,0.506544,59.220001,3.500000,-22.889999,20.14
22080,0.838384,-0.472872,0.564128,74.199997,1.680000,-42.490002,20.18
22092,0.835944,-0.484584,0.628544,96.949997,-1.680000,-59.220001,20.18
22103,0.868640,-0.516304,0.657336,130.479996,-3.990000,-74.059998,20.16
22115,0.841312,-0.437248,0.626592,169.960007,-8.400000,-84.699997,20.15
22127,0.884256,-0.317688,0.568520,202.509995,-2.940000,-86.870003,20.15
22138,0.852048,-0.203008,0.485560,215.600006,-4.340000,-84.209999,20.13
22150,0.814960,0.057096,0.488000,180.669998,-5.600000,-72.800003,20.13
22162,0.753960,0.132248,0.470432,127.260002,-14.000000,-62.790001,20.14
22173,0.711016,0.390400,0.466040,62.580002,-15.610000,-43.259998,20.13
22184,0.679784,0.721264,0.497760,-8.470000,-19.879999,-24.920000,20.13
22196,0.722240,0.714920,0.474336,-77.699997,-19.389999,-4.620000,20.12
22207,0.793000,0.640744,0.432368,-116.339996,-12.670000,12.040000,20.10
22219,0.815448,0.565592,0.448960,-133.490005,-5.880000,28.139999,20.10
22230,0.837896,0.464576,0.474336,-137.970001,-0.840000,45.709999,20.16
22242,0.843752,0.401624,0.497760,-136.360001,0.350000,60.270000,20.16
22253,0.862784,0.371368,0.536800,-133.770004,-1.330000,72.029999,20.16
22265,0.884744,0.329400,0.544120,-129.360001,-1.050000,79.099998,20.09
22276,0.883768,0.203496,0.539728,-119.910004,1.260000,80.989998,20.09
22290,0.872544,-0.000488,0.510448,-107.099998,3.220000,75.809998,20.20
22302,0.837408,-0.180072,0.487024,-93.449997,7.700000,67.620003,20.14
22313,0.827160,-0.402112,0.478728,-71.470001,9.730000,53.549999,20.14
22325,0.815448,-0.544120,0.489464,-40.250000,7.910000,36.959999,20.14
22336,0.811056,-0.589016,0.505568,-6.090000,6.300000,17.709999,20.14
22348,0.828136,-0.563152,0.518744,24.500000,5.460000,0.210000,20.13
22359,0.848632,-0.547536,0.546072,49.349998,6.090000,-16.940001,20.16
22371,0.838872,-0.463600,0.572424,70.139999,3.850000,-34.369999,20.16
22382,0.833016,-0.478728,0.614392,97.370003,1.190000,-48.930000,20.12
22395,0.843752,-0.423096,0.633912,130.550003,-2.380000,-68.529999,20.16
22406,0.872056,-0.348920,0.631472,164.009995,-4.060000,-77.349998,20.16
22417,0.890600,-0.279624,0.600240,197.190002,-3.920000,-82.879997,20.15
22429,0.875960,-0.021960,0.525088,217.490005,-3.640000,-81.199997,20.15
22441,0.875960,-0.055632,0.461648,214.410004,-1.610000,-74.199997,20.12
22452,0.830088,0.017080,0.493368,193.059998,-3.640000,-66.220001,20.11
22464,0.704672,0.372832,0.501176,130.830002,-10.430000,-47.810001,20.11
22476,0.701744,0.523624,0.551928,48.509998,-16.940001,-29.680000,20.13
22487,0.708088,0.520696,0.538752,-20.860001,-15.680000,-13.510000,20.14
22499,0.729072,0.573400,0.481168,-79.660004,-14.980000,1.260000,20.14
22511,0.787144,0.518744,0.464576,-120.820000,-12.320000,21.490000,20.16
22523,0.813496,0.451400,0.489464,-137.270004,-9.170000,38.990002,20.16
22534,0.849120,0.414800,0.532896,-139.789993,-7.000000,50.470001,20.12
22546,0.860344,0.429928,0.546560,-145.529999,-6.230000,65.800003,20.17
22558,0.912560,0.294264,0.562664,-144.479996,-4.760000,73.570000,20.17
22570,0.878888,0.286944,0.572912,-135.729996,-6.650000,79.379997,20.16
22582,0.865224,0.204960,0.569496,-131.250000,-6.930000,79.800003,20.16
22594,0.866688,-0.048800,0.554368,-116.339996,-3.220000,74.199997,20.16
22605,0.846680,-0.216184,0.507032,-93.099998,0.770000,65.449997,20.17
22617,0.846680,-0.309880,0.455792,-68.879997,2.730000,53.270000,20.17
22628,0.831552,-0.506544,0.440176,-42.560001,2.730000,35.560001,20.11
22640,0.833504,-0.597800,0.456768,-4.270000,2.100000,17.500000,20.14
22652,0.836432,-0.546560,0.482632,28.139999,1.540000,0.280000,20.14
22663,0.862784,-0.495320,0.506544,47.880001,2.240000,-15.750000,20.16
22674,0.849608,-0.416264,0.529480,58.169998,1.890000,-27.440001,20.14
22685,0.834968,-0.376736,0.563152,69.440002,0.350000,-43.119999,20.14
22697,0.835944,-0.318176,0.590968,86.449997,-1.400000,-57.750000,20.16
22709,0.848144,-0.322568,0.601216,117.389999,-1.960000,-70.419998,20.16
22720,0.870104,-0.280600,0.595360,156.800003,-1.890000,-78.889999,20.14
22732,0.878888,-0.217648,0.561688,196.559998,-0.490000,-83.510002,20.13
22744,0.877912,-0.105408,0.380640,215.039993,2.380000,-77.419998,20.13
22755,0.855464,-0.021960,0.505080,200.199997,0.840000,-72.660004,20.13
22767,0.785192,0.051240,0.511912,155.119995,-1.330000,-57.680000,20.14
22778,0.706136,0.313784,0.527040,86.379997,-12.040000,-44.590000,20.14
22790,0.687592,0.514840,0.473360,12.180000,-18.129999,-23.520000,20.15
22801,0.726144,0.497272,0.497760,-47.529999,-16.940001,-7.770000,20.15
22814,0.749568,0.611952,0.497272,-97.300003,-14.630000,9.030000,20.14
22825,0.803736,0.572912,0.490440,-129.429993,-12.390000,26.250000,20.14
22836,0.850096,0.452376,0.524600,-141.050003,-7.840000,39.759998,20.14
22848,0.853512,0.410408,0.534848,-142.729996,-6.230000,54.529999,20.14
22860,0.879376,0.353800,0.539728,-135.729996,-7.420000,65.029999,20.14
22871,0.899384,0.274256,0.525576,-121.449997,-6.440000,71.959999,20.17
22884,0.893040,0.303048,0.495320,-108.430000,-5.530000,75.599998,20.17
22896,0.886208,0.143472,0.465552,-95.410004,-1.050000,71.959999,20.17
22908,0.872056,-0.010248,0.452864,-80.709999,6.020000,64.610001,20.16
22920,0.848632,-0.195688,0.434320,-63.490002,10.570000,54.110001,20.18
22933,0.834480,-0.407968,0.453352,-32.340000,10.920000,21.139999,20.18
22945,0.836432,-0.482632,0.484584,-6.230000,9.100000,19.600000,20.17
22956,0.845704,-0.467504,0.533384,13.510000,8.190000,7.980000,20.14
22969,0.853512,-0.460672,0.570472,27.650000,5.390000,-8.400000,20.14
22980,0.845704,-0.377712,0.598288,38.990002,4.130000,-23.730000,20.14
22992,0.848144,-0.359168,0.622688,51.169998,1.260000,-36.400002,20.14
23003,0.850584,-0.359168,0.641720,72.940002,-1.260000,-51.380001,20.14
23014,0.859856,-0.364536,0.653920,105.629997,-3.430000,-61.810001,20.18
23026,0.882792,-0.320616,0.621712,140.490005,-3.360000,-70.910004,20.18
23037,0.901336,-0.283040,0.578768,175.559998,-1.470000,-74.269997,20.17
23049,0.869128,-0.183976,0.536312,196.070007,-2.240000,-73.709999,20.17
23061,0.831064,0.021960,0.535824,183.750000,-7.840000,-67.830002,20.17
23074,0.776408,0.325984,0.545096,130.690002,-16.309999,-53.340000,20.14
23085,0.755424,0.397232,0.563640,59.570000,-19.879999,-40.250000,20.13
23096,0.748104,0.373808,0.548512,-10.990000,-20.930000,-28.000000,20.13
23108,0.742248,0.354776,0.486048,-68.389999,-21.209999,-13.930000,20.17
23119,0.756888,0.376248,0.461160,-110.879997,-20.719999,-1.750000,20.17
23131,0.787144,0.400160,0.473360,-147.839996,-19.040001,20.160000,20.16
23142,0.819352,0.408456,0.496296,-172.059998,-19.040001,33.040001,20.15
23153,0.829112,0.431880,0.556808,-181.789993,-19.110001,47.389999,20.15
23165,0.864248,0.477264,0.549488,-194.460007,-17.780001,61.040001,20.15
23177,0.935496,0.303536,0.546072,-185.009995,-13.440000,69.089996,20.15
23188,0.887672,0.360632,0.519720,-161.910004,-11.550000,75.809998,20.13
23200,0.891088,0.299632,0.474824,-147.910004,-6.440000,78.400002,20.18
23211,0.752496,0.019520,0.435784,-120.889999,1.330000,74.760002,20.18
23223,0.820816,-0.177632,0.409920,-83.370003,3.990000,64.959999,20.13
23235,0.817888,-0.388448,0.396256,-43.400002,6.720000,50.820000,20.16
23246,0.812032,-0.462624,0.385520,-4.410000,7.140000,33.599998,20.16
23257,0.823744,-0.561200,0.413824,35.560001,7.910000,19.040001,20.16
23271,0.843752,-0.562176,0.462624,77.000000,8.750000,-6.790000,20.13
23283,0.847168,-0.502640,0.528016,102.480003,8.470000,-20.719999,20.13
23294,0.841312,-0.484096,0.596824,127.680000,6.440000,-38.009998,20.12
23307,0.848144,-0.404552,0.669536,152.039993,3.780000,-56.279999,20.12
23318,0.848144,-0.341600,0.707112,176.050003,0.490000,-68.949997,20.11
23329,0.864248,-0.242536,0.695888,194.039993,-2.520000,-75.739998,20.08
23341,0.875472,-0.086376,0.616344,197.539993,-2.870000,-75.949997,20.08
23352,0.890112,-0.072712,0.525088,186.270004,-1.890000,-68.739998,20.14
23365,0.856440,-0.050264,0.472872,153.020004,-3.780000,-59.360001,20.14
23377,0.754448,0.153232,0.456768,84.769997,-11.340000,-44.730000,20.14
23389,0.707600,0.396744,0.486048,28.070000,-20.090000,-26.040001,20.19
23400,0.711504,0.501664,0.541680,-42.700001,-20.930000,-8.820000,20.19
23412,0.752496,0.549000,0.551928,-98.769997,-19.389999,7.770000,20.18
23423,0.809104,0.412848,0.540216,-124.739998,-14.350000,22.750000,20.16
23435,0.836920,0.358192,0.547048,-130.759995,-10.150000,33.599998,20.16
23447,0.854000,0.383080,0.503128,-133.210007,-9.380000,48.930000,20.16
23458,0.889624,0.250832,0.483608,-128.940002,-9.310000,59.080002,20.12
23470,0.905240,0.356728,0.492880,-123.269997,-7.630000,67.129997,20.12
23481,0.893528,0.325496,0.483608,-117.599998,-7.140000,70.839996,20.19
23493,0.894016,0.128344,0.496784,-98.629997,-1.890000,68.879997,20.19
23504,0.861808,-0.040992,0.515816,-75.250000,1.820000,64.470001,20.14
23515,0.845704,-0.158600,0.529968,-57.119999,4.130000,56.419998,20.16
23527,0.843752,-0.325008,0.513376,-37.380001,4.900000,45.290001,20.16
23539,0.842288,-0.446520,0.502152,-13.580000,3.640000,31.500000,20.17
23550,0.845704,-0.437248,0.499712,5.530000,2.240000,17.080000,20.18
23563,0.862296,-0.477264,0.491416,26.110001,3.150000,0.490000,20.18
23574,0.863760,-0.351360,0.494344,40.669998,4.130000,-10.010000,20.17
23586,0.844240,-0.299632,0.517768,55.160000,4.900000,-24.290001,20.17
23598,0.839848,-0.345504,0.563152,82.669998,3.920000,-38.570000,20.14
23609,0.845704,-0.323544,0.605120,115.290001,1.750000,-54.880001,20.19
23620,0.877424,-0.315736,0.633912,150.850006,1.330000,-64.959999,20.19
23632,0.879864,-0.247904,0.619760,181.300003,1.960000,-70.000000,20.15
23644,0.887672,-0.150792,0.573888,190.259995,2.240000,-68.110001,20.15
23655,0.858880,-0.087840,0.537288,177.100006,0.210000,-63.910000,20.13
23666,0.812032,-0.054168,0.527040,138.389999,-3.220000,-54.389999,20.13
23678,0.744200,0.084912,0.536800,77.349998,-11.200000,-43.470001,20.13
23690,0.717848,0.310856,0.501664,-12.810000,-19.250000,-26.950001,20.16
23702,0.726632,0.427000,0.497760,-56.560001,-21.209999,-13.020000,20.16
23713,0.766648,0.475800,0.516792,-121.589996,-18.270000,2.380000,20.16
23725,0.807640,0.405040,0.538264,-131.460007,-14.000000,19.389999,20.15
23736,0.822768,0.319640,0.549000,-140.770004,-11.620000,29.889999,20.15
23747,0.839360,0.401624,0.548024,-146.229996,-11.760000,43.680000,20.12
23759,0.890600,0.397720,0.540216,-146.720001,-12.810000,54.180000,20.14
23770,0.902800,0.387960,0.523136,-138.460007,-11.690000,62.720001,20.14
23781,0.892064,0.365024,0.503616,-125.089996,-8.470000,68.669998,20.16
23793,0.892552,0.235704,0.476776,-107.940002,-2.660000,68.389999,20.16
23804,0.860832,0.073200,0.441640,-92.330002,3.080000,65.029999,20.16
23815,0.843752,-0.154696,0.423096,-70.000000,7.140000,55.720001,20.13
23827,0.837408,-0.349408,0.428952,-42.630001,8.400000,43.750000,20.13
23838,0.829112,-0.430904,0.462624,-14.700000,7.070000,29.330000,20.16
23849,0.836432,-0.514352,0.488488,13.440000,6.370000,17.360001,20.14
23860,0.852048,-0.453352,0.499224,36.259998,6.370000,3.920000,20.14
23872,0.852536,-0.355752,0.513864,44.380001,6.930000,-10.290000,20.17
23883,0.835456,-0.350384,0.519720,60.060001,6.580000,-24.709999,20.17
23895,0.835944,-0.299632,0.558272,77.559998,6.510000,-38.360001,20.18
23906,0.835944,-0.310368,0.605608,101.360001,4.480000,-52.290001,20.13
23917,0.871568,-0.361608,0.626104,135.449997,4.480000,-61.599998,20.13
23929,0.885232,-0.325008,0.602680,171.009995,5.950000,-68.949997,20.14
23940,0.876936,-0.226432,0.578768,196.630005,5.180000,-70.629997,20.14
23952,0.856440,-0.117608,0.563640,203.350006,3.080000,-68.669998,20.16
23963,0.826672,0.010248,0.527040,190.750000,2.380000,-61.110001,20.17
23974,0.775432,0.095160,0.570960,155.610001,-3.920000,-53.270000,20.17
23986,0.729072,0.256688,0.564616,94.220001,-9.170000,-40.529999,20.15
23997,0.717360,0.396744,0.544608,23.799999,-14.350000,-24.639999,20.15
24009,0.734928,0.445056,0.534848,-39.549999,-15.050000,-8.470000,20.18
24021,0.770064,0.467504,0.504592,-88.339996,-14.700000,6.020000,20.15
24032,0.783240,0.426024,0.487024,-119.559998,-13.160000,19.670000,20.15
24044,0.821792,0.294264,0.528016,-133.490005,-11.340000,30.660000,20.16
24055,0.833504,0.283040,0.554856,-137.690002,-10.500000,42.000000,20.12
24067,0.854488,0.260104,0.579256,-137.339996,-11.410000,50.049999,20.12
24078,0.892552,0.222040,0.584624,-130.970001,-12.530000,56.349998,20.17
24089,0.908168,0.205448,0.563152,-123.269997,-11.830000,59.990002,20.17
24100,0.895480,0.159576,0.554368,-117.809998,-10.360000,61.529999,20.14
24112,0.882304,0.056608,0.539728,-105.699997,-7.350000,58.240002,20.12
24124,0.864736,-0.015128,0.489952,-95.550003,-2.940000,52.639999,20.12
24135,0.860344,-0.171776,0.445056,-76.650002,1.960000,43.119999,20.18
24147,0.850096,-0.356240,0.427000,-39.270000,4.830000,29.540001,20.18
24159,0.840824,-0.459696,0.445544,-0.630000,5.320000,15.120000,20.17
24171,0.845216,-0.444568,0.478240,32.549999,5.530000,0.980000,20.17
24182,0.851560,-0.336720,0.525088,48.720001,6.510000,-11.690000,20.17
24194,0.839360,-0.262544,0.550952,49.770000,6.370000,-23.590000,20.18
24205,0.827648,-0.243024,0.559248,51.939999,5.390000,-36.330002,20.16
24217,0.828136,-0.183000,0.593896,58.520000,3.570000,-48.020000,20.16
24228,0.843752,-0.259128,0.605608,78.750000,2.170000,-57.889999,20.15
24240,0.877424,-0.308416,0.596336,114.589996,2.520000,-66.779999,20.15
24251,0.877912,-0.246928,0.588040,152.949997,3.430000,-70.769997,20.20
24263,0.856440,-0.159088,0.571936,182.210007,2.240000,-72.309998,20.16
24274,0.854488,-0.072224,0.531920,189.770004,1.890000,-67.059998,20.16
24287,0.803248,0.047824,0.526064,170.940002,-0.070000,-59.009998,20.21
24300,0.736880,0.174216,0.571448,113.400002,-4.830000,-45.779999,20.16
24313,0.721752,0.406504,0.538752,41.860001,-12.600000,-26.950001,20.16
24324,0.731512,0.377712,0.525576,-20.580000,-12.880000,-12.530000,20.14
24336,0.729072,0.428464,0.539240,-69.510002,-13.580000,3.010000,20.11
24347,0.765184,0.479704,0.547536,-108.010002,-14.140000,18.129999,20.11
24359,0.802760,0.451888,0.572912,-131.809998,-14.070000,32.340000,20.19
24370,0.850584,0.363072,0.557296,-141.539993,-12.110000,43.049999,20.19
24382,0.874008,0.340624,0.537288,-142.729996,-10.850000,52.080002,20.16
24393,0.906704,0.263520,0.538264,-137.479996,-11.480000,59.220001,20.16
24405,0.898896,0.210328,0.548024,-126.769997,-11.480000,62.580002,20.16
24416,0.898896,0.202032,0.529480,-116.900002,-11.130000,63.980000,20.14
24428,0.891088,0.115168,0.508496,-103.180000,-7.840000,62.509998,20.15
24439,0.866200,0.058072,0.473360,-89.040001,-3.010000,56.630001,20.15
24450,0.848144,-0.143472,0.453840,-56.279999,2.100000,45.849998,20.18
24462,0.845216,-0.354776,0.441640,-45.009998,4.760000,31.990000,20.18
24473,0.834968,-0.412848,0.461648,-11.270000,3.780000,18.270000,20.19
24485,0.843752,-0.386984,0.473360,15.470000,3.360000,4.200000,20.18
24496,0.860832,-0.283528,0.488000,28.910000,4.620000,-7.210000,20.18
24507,0.848632,-0.236680,0.495320,34.509998,6.160000,-35.700001,20.20
24519,0.831552,-0.295240,0.524112,53.480000,5.390000,-34.020000,20.20
24531,0.835456,-0.301096,0.561200,81.690002,2.590000,-47.950001,20.17
24542,0.861320,-0.332328,0.597800,117.879997,2.100000,-57.680000,20.16
24554,0.881328,-0.319640,0.625128,156.309998,3.500000,-68.320000,20.16
24567,0.872056,-0.209840,0.619760,185.360001,4.200000,-70.489998,20.16
24579,0.862784,-0.157624,0.610976,193.339996,3.710000,-66.430000,20.15
24590,0.830576,-0.056608,0.598288,172.339996,-0.770000,-61.389999,20.15
24602,0.759328,0.115168,0.562176,131.320007,-9.380000,-51.660000,20.17
24614,0.728584,0.352824,0.554856,70.279999,-16.379999,-36.540001,20.17
24626,0.757376,0.372832,0.538264,1.680000,-17.010000,-24.850000,20.14
24637,0.764696,0.403576,0.517280,-41.790001,-14.630000,-13.930000,20.14
24649,0.774456,0.460184,0.487024,-78.959999,-15.260000,1.610000,20.14
24661,0.816912,0.435296,0.459696,-101.709999,-12.950000,15.750000,20.23
24672,0.835456,0.344528,0.489464,-108.639999,-8.890000,28.209999,20.18
24684,0.827648,0.320128,0.542168,-113.330002,-7.840000,37.939999,20.18
24695,0.837896,0.331840,0.560712,-116.620003,-8.330000,47.459999,20.18
24706,0.876448,0.319152,0.547536,-117.529999,-8.820000,55.369999,20.18
24717,0.897920,0.239608,0.531432,-109.760002,-6.650000,58.380001,20.14
24728,0.879864,0.269864,0.519720,-109.900002,-6.790000,60.970001,20.16
24740,0.891576,0.143472,0.476776,-110.949997,-2.310000,61.389999,20.16
24751,0.888648,-0.064416,0.484096,-99.610001,2.520000,56.560001,20.14
24762,0.865224,-0.154208,0.500688,-83.440002,3.710000,50.189999,20.14
24774,0.851072,-0.263520,0.504592,-63.560001,4.060000,41.020000,20.15
24785,0.847656,-0.337208,0.499712,-38.779999,4.620000,29.540001,20.20
24798,0.846192,-0.373808,0.494832,-14.700000,3.990000,17.290001,20.20
24810,0.847168,-0.356240,0.496296,8.400000,5.320000,2.730000,20.15
24821,0.860832,-0.278648,0.495320,19.600000,6.370000,-8.680000,20.16
24832,0.845704,-0.261568,0.510448,29.330000,7.210000,-22.120001,20.16
24843,0.831064,-0.276208,0.534848,45.080002,6.510000,-34.020000,20.17
24854,0.837896,-0.301096,0.565104,68.040001,4.830000,-43.820000,20.17
24866,0.854000,-0.348432,0.606584,100.449997,4.760000,-55.650002,20.19
24877,0.864736,-0.336720,0.629520,138.600006,4.130000,-65.730003,20.11
24890,0.857904,-0.270840,0.652456,172.270004,3.290000,-72.519997,20.11
24901,0.847656,-0.135176,0.637816,188.300003,0.490000,-73.779999,20.18
24913,0.828624,0.069784,0.573400,164.149994,-0.910000,-66.430000,20.14
24924,0.815448,0.076616,0.551440,130.130005,-4.200000,-61.320000,20.14
24936,0.757376,0.105896,0.554856,102.690002,-6.860000,-50.400002,20.17
24947,0.722240,0.306952,0.516304,53.830002,-11.270000,-36.330002,20.17
24958,0.738832,0.349408,0.505080,-1.190000,-11.620000,-21.420000,20.18
24971,0.718336,0.477264,0.518744,-54.950001,-13.510000,-5.670000,20.15
24984,0.757376,0.563640,0.518256,-91.980003,-14.000000,13.720000,20.15
24996,0.823256,0.400160,0.540216,-112.279999,-9.800000,26.670000,20.18
25007,0.828136,0.307440,0.549000,-114.239998,-6.020000,36.820000,20.16
25019,0.840824,0.271328,0.564128,-105.279999,-5.880000,46.830002,20.16
25031,0.848144,0.298656,0.562664,-101.989998,-7.420000,53.270000,20.16
25042,0.883280,0.233264,0.574864,-98.070000,-8.890000,58.310001,20.16
25054,0.896456,0.234240,0.550952,-94.570000,-8.190000,60.130001,20.16
25065,0.891088,0.201544,0.515328,-96.110001,-6.090000,60.200001,20.17
25076,0.881816,0.041968,0.505080,-93.449997,-2.870000,56.279999,20.17
25087,0.868640,-0.120048,0.498248,-81.410004,0.000000,47.810001,20.17
25099,0.851560,-0.258640,0.501664,-65.099998,1.190000,37.660000,20.17
25110,0.846192,-0.363072,0.504104,-35.700001,0.910000,24.639999,20.18
25122,0.850096,-0.353800,0.487512,-5.530000,0.770000,10.990000,20.18
25133,0.855464,-0.307928,0.480680,19.320000,1.610000,-0.560000,20.18
25145,0.857416,-0.275232,0.510448,38.009998,3.080000,-13.790000,20.18
25156,0.841800,-0.260592,0.542168,53.619999,3.010000,-26.530001,20.11
25167,0.841312,-0.249856,0.566568,71.120003,1.750000,-37.240002,20.11
25179,0.848632,-0.261568,0.581696,93.309998,1.330000,-50.049999,20.14
25191,0.870104,-0.275232,0.608536,121.099998,1.680000,-57.400002,20.14
25202,0.861808,-0.234240,0.600240,147.910004,1.540000,-63.980000,20.21
25214,0.867176,-0.165920,0.593896,161.699997,0.700000,-65.309998,20.14
25227,0.859368,-0.048312,0.495320,153.789993,0.770000,-60.340000,20.14
25238,0.836920,-0.124440,0.466528,136.710007,1.400000,-55.720001,20.17
25249,0.748104,0.053192,0.510936,100.099998,-3.360000,-42.349998,20.17
25261,0.693936,0.345992,0.573888,35.910000,-12.180000,-29.190001,20.17
25272,0.717360,0.462136,0.593896,-29.400000,-14.490000,-14.350000,20.19
25284,0.755912,0.439200,0.571936,-74.550003,-12.320000,0.420000,20.19
25295,0.761768,0.501664,0.553392,-101.150002,-13.650000,13.790000,20.12
25307,0.820816,0.393328,0.535336,-108.779999,-10.570000,24.709999,20.19
25318,0.826672,0.367464,0.553392,-108.639999,-8.190000,35.349998,20.19
25329,0.842776,0.367464,0.536800,-106.260002,-7.700000,45.360001,20.18
25341,0.871080,0.342088,0.557296,-100.309998,-7.420000,52.080002,20.18
25353,0.883280,0.280600,0.543144,-92.750000,-6.230000,55.790001,20.19
25365,0.872056,0.183488,0.528016,-83.089996,-4.410000,55.090000,20.18
25377,0.869128,0.058560,0.506544,-68.739998,-1.260000,51.869999,20.18
25388,0.871080,-0.060024,0.488488,-58.169998,1.890000,45.570000,20.16
25400,0.870104,-0.202520,0.492392,-43.400002,3.360000,36.470001,20.13
25411,0.862784,-0.281576,0.514352,-29.049999,3.220000,25.620001,20.13
25422,0.856928,-0.337696,0.528504,-11.060000,2.590000,13.720000,20.13
25434,0.851560,-0.282064,0.543144,4.830000,1.680000,4.200000,20.13
25445,0.863760,-0.207888,0.536800,13.930000,2.450000,-6.860000,20.21
25456,0.854976,-0.251808,0.548024,32.970001,3.640000,-19.110001,20.11
25467,0.840824,-0.257664,0.573400,54.950001,2.170000,-32.689999,20.11
25479,0.857416,-0.300120,0.607560,88.339996,1.190000,-45.990002,20.18
25490,0.875472,-0.317200,0.622688,127.610001,2.310000,-56.419998,20.18
25502,0.873032,-0.246440,0.599752,162.259995,2.520000,-62.580002,20.14
25513,0.885232,-0.161528,0.556808,176.820007,1.680000,-61.250000,20.17
25525,0.848632,0.024400,0.523624,155.050003,0.140000,-55.020000,20.17
25536,0.813008,0.022936,0.540216,122.919998,-2.870000,-50.400002,20.13
25547,0.757864,0.077104,0.564128,83.720001,-6.300000,-41.930000,20.21
25558,0.736392,0.241560,0.551440,32.759998,-9.660000,-30.240000,20.21
25570,0.732976,0.369904,0.518256,-11.410000,-11.130000,-16.590000,20.16
25581,0.760792,0.398208,0.492392,-57.610001,-11.340000,-2.170000,20.16
25593,0.776896,0.467016,0.484096,-90.089996,-10.360000,11.970000,20.15
25605,0.800320,0.438224,0.507520,-107.029999,-7.350000,23.940001,20.13
25616,0.822768,0.357216,0.544608,-108.989998,-3.780000,33.389999,20.13
25628,0.820328,0.354776,0.562176,-104.580002,-3.360000,41.930000,20.15
25639,0.845704,0.277672,0.560712,-97.230003,-2.870000,49.910000,20.15
25651,0.863272,0.205936,0.555344,-83.300003,-2.240000,52.290001,20.16
25662,0.866688,0.182512,0.547048,-71.959999,-1.820000,53.480000,20.12
25674,0.889136,0.139080,0.528504,-68.110001,-0.700000,53.759998,20.12
25685,0.874984,0.048800,0.528504,-67.620003,1.120000,51.520000,20.17
25697,0.854000,-0.064904,0.541192,-65.239998,1.190000,45.150002,20.16
25708,0.854000,-0.207400,0.549000,-55.299999,1.750000,36.189999,20.16
25720,0.843752,-0.311832,0.551928,-35.419998,1.470000,24.709999,20.18
25731,0.848632,-0.277184,0.539240,-15.400000,0.630000,12.110000,20.18
25743,0.844240,-0.255224,0.524600,1.330000,0.910000,0.700000,20.18
25754,0.856928,-0.234240,0.525576,21.139999,1.960000,-10.710000,20.14
25765,0.840336,-0.253760,0.546560,45.150002,2.450000,-23.590000,20.14
25777,0.844728,-0.268888,0.574864,70.139999,1.260000,-37.240002,20.19
25788,0.870104,-0.371856,0.571448,109.830002,2.030000,-47.880001,20.19
25799,0.893528,-0.426024,0.549000,157.429993,4.200000,-58.799999,20.15
25811,0.875472,-0.352336,0.520696,196.000000,4.900000,-64.190002,20.17
25822,0.833504,-0.086864,0.542168,193.690002,1.470000,-61.320000,20.17
25833,0.804712,0.184464,0.543632,158.130005,-4.550000,-54.599998,20.19
25845,0.812032,0.152256,0.544120,107.730003,-6.020000,-49.490002,20.19
25856,0.761280,0.168848,0.568032,64.120003,-6.720000,-40.040001,20.16
25868,0.727120,0.297680,0.586576,22.120001,-10.080000,-28.559999,20.20
25879,0.727608,0.475800,0.556320,-22.120001,-10.780000,-11.970000,20.20
25891,0.752984,0.477752,0.519232,-56.700001,-9.870000,4.690000,20.14
25902,0.771528,0.445544,0.511424,-75.389999,-7.490000,17.360001,20.18
25914,0.793976,0.471896,0.514840,-92.470001,-4.620000,28.490000,20.18
25926,0.803248,0.447008,0.517280,-103.459999,-3.570000,40.459999,20.19
25937,0.833016,0.343552,0.554856,-101.570000,-1.680000,48.369999,20.19
25949,0.845216,0.341600,0.571936,-100.940002,0.070000,55.650002,20.18
25960,0.842288,0.264984,0.569984,-100.379997,-0.350000,59.220001,20.15
25972,0.859368,0.109800,0.560712,-95.410004,0.700000,59.080002,20.15
25983,0.859368,0.017080,0.563640,-90.089996,1.260000,56.840000,20.18
25994,0.858392,-0.092232,0.542168,-80.430000,1.680000,50.680000,20.18
26006,0.854976,-0.175192,0.524112,-69.019997,2.520000,42.910000,20.14
26017,0.851072,-0.255712,0.525088,-53.060001,3.150000,34.860001,20.11
26028,0.838872,-0.321104,0.543632,-34.299999,2.450000,22.190001,20.11
26040,0.839848,-0.337208,0.552416,-13.440000,1.750000,4.970000,20.17
26052,0.843752,-0.283040,0.557296,3.430000,1.120000,-8.050000,20.16
26063,0.841800,-0.288896,0.578768,20.930000,0.770000,-18.830000,20.16
26074,0.835456,-0.241560,0.605608,39.549999,-0.770000,-32.060001,20.16
26086,0.843752,-0.308904,0.644648,68.669998,-2.310000,-45.430000,20.16
26098,0.851072,-0.323544,0.658800,107.449997,-3.430000,-57.540001,20.18
26109,0.883280,-0.312808,0.629520,153.160004,-2.590000,-64.889999,20.15
26121,0.876448,-0.236192,0.562176,184.520004,-2.100000,-68.459999,20.15
26133,0.861320,-0.074176,0.507032,182.979996,-3.080000,-64.330002,20.19
26145,0.807640,0.101992,0.523136,146.300003,-7.770000,-56.700001,20.17
26156,0.764696,0.145424,0.558272,98.070000,-10.990000,-47.320000,20.17
26168,0.722728,0.252296,0.589016,45.360001,-14.140000,-36.470001,20.14
26179,0.722240,0.360144,0.567056,-9.450000,-14.420000,-21.209999,20.14
26190,0.731024,0.400648,0.536312,-46.200001,-14.000000,-6.930000,20.16
26203,0.760792,0.453352,0.482632,-83.720001,-13.300000,7.910000,20.13
26214,0.813496,0.378200,0.457256,-97.790001,-9.730000,20.930000,20.13
26226,0.812032,0.389912,0.472384,-102.199997,-6.720000,32.480000,20.15
26238,0.818864,0.430416,0.515328,-106.400002,-5.460000,42.630001,20.18
26250,0.847168,0.398696,0.546072,-105.559998,-3.500000,50.400002,20.18
26261,0.864736,0.316224,0.569008,-100.099998,-1.190000,56.419998,20.17
26276,0.867664,0.229360,0.544608,-93.029999,-0.210000,58.939999,20.12
26288,0.862784,0.038064,0.551440,-83.930000,1.610000,56.139999,20.12
26299,0.855952,-0.065880,0.553392,-70.000000,3.010000,51.939999,20.18
26310,0.849120,-0.162992,0.557296,-55.160000,2.730000,44.799999,20.18
26321,0.847168,-0.254248,0.550464,-42.419998,2.100000,34.720001,20.11
26332,0.850584,-0.325496,0.536312,-21.350000,1.820000,22.120001,20.16
26343,0.856928,-0.336232,0.527528,2.100000,1.610000,11.130000,20.16
26355,0.852536,-0.279624,0.524600,24.430000,1.820000,-4.480000,20.19
26366,0.849120,-0.248880,0.546072,41.790001,2.450000,-14.770000,20.19
26377,0.847168,-0.262056,0.586576,58.939999,2.450000,-27.790001,20.17
26388,0.833016,-0.271328,0.636352,81.970001,0.490000,-42.279999,20.18
26399,0.845704,-0.272792,0.668560,109.199997,-1.400000,-51.029999,20.18
26410,0.851560,-0.214720,0.673440,134.960007,-2.730000,-59.570000,20.18
26421,0.860832,-0.203984,0.622688,157.990005,-3.640000,-64.260002,20.18
26433,0.856928,-0.069784,0.564128,170.169998,-5.180000,-64.050003,20.18
26443,0.845216,0.060024,0.503128,151.970001,-6.930000,-58.590000,20.16
26454,0.828136,-0.044408,0.484584,131.179993,-6.860000,-52.570000,20.16
26465,0.787632,-0.029280,0.493856,107.589996,-8.120000,-44.310001,20.20
26476,0.711992,0.354288,0.516304,48.580002,-13.790000,-26.879999,20.20
26487,0.697840,0.460672,0.532896,-23.799999,-19.600000,-15.050000,20.17
26499,0.739808,0.492392,0.524112,-73.709999,-17.639999,0.070000,20.17
26509,0.771040,0.509472,0.520696,-99.680000,-15.960000,13.300000,20.17
26520,0.806664,0.425048,0.519232,-112.489998,-11.620000,21.770000,20.19
26531,0.818376,0.367952,0.532896,-112.980003,-8.470000,31.080000,20.19
26542,0.841312,0.357216,0.511912,-112.209999,-4.830000,42.279999,20.22
26553,0.867176,0.279624,0.514352,-104.300003,-4.620000,50.049999,20.22
26564,0.860832,0.286456,0.519720,-93.800003,-4.970000,52.570000,20.18
26581,0.873032,0.277672,0.514840,-86.449997,-2.660000,56.490002,20.18
26593,0.854488,0.154696,0.519720,-81.059998,0.490000,54.459999,20.12
26603,0.850096,-0.010248,0.518256,-75.809998,3.710000,48.230000,20.12
26614,0.848144,-0.201056,0.531432,-63.000000,5.390000,38.779999,20.15
26625,0.845704,-0.291336,0.538752,-43.610001,5.320000,30.379999,20.15
26636,0.845704,-0.343552,0.537776,-20.510000,3.780000,18.410000,20.19
26647,0.850096,-0.345992,0.515816,1.680000,3.080000,6.090000,20.19
26658,0.860344,-0.236680,0.492880,22.190001,3.780000,-3.150000,20.14
26669,0.848632,-0.171776,0.521672,37.450001,5.460000,-14.280000,20.16
26681,0.830088,-0.159576,0.551440,57.750000,5.740000,-26.250000,20.16
26691,0.835456,-0.219112,0.597312,80.500000,5.880000,-39.830002,20.16
26702,0.854976,-0.219112,0.629520,114.169998,5.810000,-48.860001,20.16
26714,0.865712,-0.178120,0.637328,146.860001,7.210000,-56.209999,20.19
26725,0.883280,-0.156160,0.595848,169.889999,7.280000,-60.060001,20.16
26735,0.885720,-0.112728,0.541192,182.699997,7.630000,-57.959999,20.16
26746,0.834968,-0.041968,0.565592,160.440002,4.410000,-54.110001,20.19
26757,0.787632,0.039040,0.555832,114.589996,-1.680000,-44.169998,20.19
26768,0.763232,0.116144,0.560224,70.489998,-5.670000,-32.830002,20.16
26779,0.722240,0.304512,0.561688,3.710000,-11.620000,-21.770000,20.20
26791,0.716872,0.410896,0.593408,-58.660000,-16.520000,-6.860000,20.20
26802,0.752984,0.444080,0.606096,-99.959999,-17.570000,6.650000,20.16
26813,0.793488,0.497760,0.583160,-119.629997,-17.010000,19.809999,20.16
26825,0.825696,0.382592,0.579744,-129.080002,-13.020000,30.240000,20.18
26836,0.848632,0.353312,0.583160,-128.729996,-11.130000,41.650002,20.17
26846,0.867176,0.311344,0.538752,-116.760002,-8.470000,47.529999,20.17
26857,0.860832,0.285480,0.528504,-103.809998,-7.700000,53.480000,20.16
26869,0.855464,0.263520,0.528504,-90.019997,-6.790000,55.090000,20.16
26880,0.871568,0.203984,0.507032,-78.610001,-3.360000,53.340000,20.17
26891,0.858392,0.062464,0.488000,-64.190002,0.910000,49.419998,20.11
26902,0.849120,-0.091256,0.484584,-51.869999,4.060000,41.930000,20.11
26913,0.845704,-0.220576,0.498736,-34.580002,5.600000,32.619999,20.15
26924,0.838872,-0.304024,0.535336,-14.070000,5.600000,24.080000,20.15
26935,0.837408,-0.354776,0.562176,5.530000,4.970000,11.830000,20.16
26947,0.844240,-0.307440,0.568520,19.459999,3.640000,0.910000,20.14
26958,0.843264,-0.193248,0.574376,25.129999,3.360000,-9.380000,20.14
26969,0.834480,-0.107360,0.586576,26.809999,3.080000,-18.270000,20.17
26980,0.813008,-0.118584,0.614880,34.299999,2.450000,-27.650000,20.17
26991,0.824232,-0.195200,0.627080,60.549999,1.750000,-38.990002,20.18
27002,0.844728,-0.210816,0.644648,96.809998,1.820000,-49.139999,20.18
27013,0.854000,-0.190808,0.639280,124.879997,2.380000,-57.259998,20.19
27024,0.880352,-0.187392,0.585600,154.910004,3.290000,-59.290001,20.19
27035,0.869616,-0.168360,0.545096,166.880005,5.180000,-54.669998,20.19
27046,0.804712,-0.058560,0.580720,152.250000,-0.420000,-49.279999,20.18
27057,0.780312,0.008784,0.575352,109.690002,-4.690000,-37.730000,20.18
27068,0.733464,0.174216,0.593408,45.639999,-11.760000,-26.670000,20.18
27079,0.703696,0.394792,0.602680,-18.200001,-19.110001,-13.930000,20.16
27090,0.721264,0.472384,0.644160,-63.419998,-21.139999,-1.680000,20.16
27102,0.764696,0.488488,0.613904,-100.589996,-20.230000,10.640000,20.16
27113,0.801784,0.411384,0.569496,-112.629997,-17.360001,18.200001,20.16
27123,0.846192,0.338184,0.525576,-111.440002,-13.650000,28.629999,20.15
27134,0.862784,0.316224,0.513376,-101.430000,-9.590000,36.959999,20.20
27145,0.861808,0.297680,0.475312,-83.860001,-6.720000,41.930000,20.20
27156,0.851560,0.246928,0.468968,-62.790001,-5.950000,45.290001,20.18
27167,0.861808,0.250344,0.474336,-52.009998,-3.430000,47.180000,20.18
27178,0.854000,0.179096,0.486536,-42.910000,0.140000,45.080002,20.21
27189,0.846680,0.041968,0.505568,-33.669998,4.340000,41.299999,20.13
27200,0.841800,-0.069296,0.524600,-26.879999,7.350000,34.650002,20.13
27212,0.835456,-0.203008,0.545096,-14.280000,7.980000,24.920000,20.19
27223,0.837896,-0.229848,0.562176,0.630000,7.840000,13.930000,20.19
27233,0.831552,-0.117120,0.584624,5.180000,6.930000,6.580000,20.20
27244,0.832040,-0.160552,0.582672,10.500000,6.930000,-0.420000,20.20
27255,0.840336,-0.211304,0.573888,27.719999,7.630000,-11.760000,20.21
27266,0.826184,-0.150792,0.595848,47.599998,6.790000,-20.650000,20.16
27277,0.840336,-0.200568,0.607072,68.949997,5.040000,-31.780001,20.16
27288,0.853024,-0.203008,0.601216,98.209999,5.320000,-42.910000,20.18
27299,0.867176,-0.165432,0.604144,124.879997,5.320000,-48.439999,20.18
27310,0.876448,-0.149816,0.576328,145.320007,5.320000,-52.570000,20.20
27322,0.858392,-0.044896,0.550952,143.639999,6.230000,-45.849998,20.12
27332,0.821304,-0.046848,0.578280,115.080002,1.400000,-40.389999,20.12
27344,0.779336,-0.081984,0.592920,75.809998,-2.730000,-33.880001,20.14
27355,0.722728,0.171776,0.613416,24.570000,-11.270000,-23.030001,20.14
27365,0.727120,0.346968,0.626104,-18.760000,-16.660000,-10.920000,20.21
27377,0.754448,0.392840,0.640744,-64.400002,-18.480000,-1.190000,20.16
27387,0.775432,0.438224,0.632448,-95.760002,-18.340000,6.930000,20.16
27398,0.814472,0.353312,0.581696,-104.790001,-15.890000,15.120000,20.19
27409,0.834968,0.286456,0.541192,-103.389999,-13.370000,24.850000,20.19
27420,0.843264,0.272792,0.517280,-97.019997,-11.270000,31.780001,20.20
27431,0.856440,0.272304,0.510936,-87.989998,-9.730000,38.500000,20.20
27442,0.850584,0.293288,0.529968,-72.870003,-10.360000,43.259998,20.20
27453,0.867176,0.292312,0.552416,-62.090000,-8.400000,45.709999,20.16
27464,0.857416,0.214232,0.562664,-57.680000,-4.900000,45.639999,20.16
27475,0.847656,0.063928,0.543144,-48.020000,-2.380000,42.910000,20.18
27486,0.847656,-0.027328,0.529968,-38.430000,-1.050000,38.290001,20.18
27497,0.849120,-0.137128,0.533384,-28.490000,0.140000,33.180000,20.16
27508,0.847168,-0.200568,0.531920,-18.969999,0.070000,25.270000,20.14
27519,0.848632,-0.220088,0.530456,-4.830000,0.700000,16.660000,20.14
27530,0.848632,-0.151280,0.529480,2.870000,1.610000,9.730000,20.15
27541,0.847168,-0.171288,0.519720,8.540000,3.150000,1.330000,20.15
27553,0.847168,-0.161528,0.528016,21.209999,5.320000,-8.540000,20.17
27565,0.828136,-0.062464,0.556808,25.969999,6.230000,-18.830000,20.17
27576,0.839360,-0.183976,0.577304,39.549999,6.930000,-28.139999,20.17
27587,0.847656,-0.254736,0.592432,69.720001,7.560000,-39.200001,20.16
27598,0.856440,-0.222040,0.624640,97.019997,6.930000,-44.169998,20.16
27608,0.854488,-0.188856,0.615368,116.970001,5.670000,-49.910000,20.15
27620,0.870104,-0.175192,0.585600,139.440002,5.810000,-49.560001,20.16
27630,0.840824,-0.074664,0.572912,140.699997,5.250000,-46.830002,20.16
27641,0.799344,0.050752,0.569008,123.129997,1.190000,-40.669998,20.16
27653,0.775432,0.122000,0.610976,90.650002,-3.220000,-34.790001,20.16
27665,0.748104,0.245464,0.647576,38.430000,-6.650000,-25.620001,20.14
27676,0.744200,0.296216,0.618784,1.050000,-8.050000,-15.330000,20.18
27687,0.746152,0.297192,0.582672,-40.250000,-9.940000,-2.870000,20.18
27698,0.756400,0.319152,0.560712,-69.860001,-13.160000,6.300000,20.17
27709,0.774456,0.335744,0.574864,-87.709999,-14.420000,17.150000,20.17
27720,0.793000,0.379664,0.581696,-99.190002,-14.700000,27.790001,20.19
27731,0.817888,0.358192,0.589992,-101.709999,-13.300000,33.599998,20.18
27742,0.834968,0.326960,0.581208,-99.120003,-12.040000,39.549999,20.18
27752,0.864248,0.136640,0.550952,-89.879997,-8.750000,46.200001,20.19
27763,0.848144,0.161040,0.535824,-73.150002,-7.070000,47.459999,20.19
27774,0.846192,0.160552,0.528992,-61.950001,-5.670000,47.040001,20.16
27785,0.849120,0.121024,0.528016,-58.520000,-3.990000,45.779999,20.16
27796,0.844728,0.038552,0.516792,-54.250000,-1.540000,42.490002,20.18
27807,0.839360,-0.091256,0.526064,-46.410000,0.280000,35.419998,20.13
27818,0.843264,-0.200568,0.543632,-37.799999,0.840000,27.860001,20.13
27829,0.842288,-0.276208,0.544608,-19.530001,1.400000,19.740000,20.16
27840,0.837896,-0.231312,0.547536,-2.590000,1.400000,8.680000,20.16
27851,0.842288,-0.200080,0.543144,6.370000,1.750000,0.070000,20.16
27862,0.850096,-0.215696,0.540704,21.280001,3.640000,-7.980000,20.14
27872,0.837408,-0.170312,0.546560,51.730000,4.690000,-20.650000,20.14
27883,0.832040,-0.177632,0.574864,49.980000,4.550000,-32.130001,20.19
27894,0.839360,-0.239120,0.605120,77.559998,4.900000,-41.650002,20.19
27905,0.851072,-0.265960,0.622688,112.559998,5.040000,-52.990002,20.19
27916,0.848144,-0.244976,0.617320,141.679993,4.900000,-59.290001,20.19
27927,0.864248,-0.199104,0.614880,172.899994,5.110000,-61.250000,20.19
27938,0.851072,-0.093696,0.592920,187.669998,5.110000,-61.180000,20.19
27949,0.808128,0.039528,0.580232,177.169998,3.570000,-55.160000,20.19
27960,0.772016,0.084424,0.556808,140.979996,-0.560000,-49.630001,20.16
27970,0.735416,0.190808,0.555832,87.010002,-6.020000,-37.730000,20.16
27981,0.718824,0.330864,0.534360,39.549999,-10.850000,-25.059999,20.18
27992,0.717360,0.396744,0.547048,-20.370001,-11.900000,-12.880000,20.18
28004,0.714432,0.482144,0.569984,-71.750000,-14.560000,2.590000,20.18
28014,0.756400,0.503128,0.578280,-101.709999,-16.170000,16.590000,20.16
28025,0.779824,0.404064,0.589504,-119.839996,-14.630000,27.580000,20.16
28036,0.796416,0.387472,0.618296,-126.279999,-13.020000,35.770000,20.20
28047,0.816912,0.386496,0.609024,-130.479996,-13.230000,44.099998,20.20
28058,0.849608,0.345504,0.588040,-129.710007,-14.490000,52.570000,20.14
28069,0.883768,0.267424,0.534848,-117.040001,-13.160000,56.070000,20.14
28080,0.881816,0.250344,0.534360,-103.040001,-12.810000,56.700001,20.14
28091,0.879376,0.236192,0.534848,-96.949997,-9.940000,57.119999,20.14
28102,0.866688,0.056120,0.513376,-86.169998,-6.300000,52.009998,20.14
28113,0.857416,-0.060024,0.485560,-67.550003,-1.750000,45.639999,20.17
28125,0.856440,-0.207888,0.462136,-42.419998,1.610000,35.630001,20.16
28136,0.849120,-0.280112,0.454328,-14.980000,3.080000,23.309999,20.16
28147,0.850584,-0.258152,0.474336,3.850000,4.620000,9.660000,20.17
28158,0.857904,-0.200080,0.488976,20.719999,6.090000,2.450000,20.17
28169,0.837896,-0.219112,0.510448,39.689999,8.540000,-10.640000,20.17
28180,0.821792,-0.251320,0.574376,58.869999,9.030000,-23.450001,20.14
28191,0.811056,-0.281088,0.621224,90.790001,6.930000,-38.849998,20.14
28202,0.838384,-0.275232,0.652456,122.989998,6.300000,-50.400002,20.17
28213,0.852536,-0.241072,0.659776,153.509995,6.790000,-56.349998,20.17
28224,0.847656,-0.174216,0.630496,176.119995,6.580000,-61.529999,20.19
28236,0.871568,-0.157624,0.552416,203.210007,7.490000,-62.650002,20.16
28248,0.837408,-0.049776,0.480192,198.449997,8.190000,-55.369999,20.16
28259,0.806664,-0.128832,0.477264,180.669998,5.600000,-47.040001,20.20
28270,0.712480,0.029280,0.505080,122.779999,-1.330000,-35.560001,20.20
28281,0.650016,0.362096,0.560224,36.889999,-14.350000,-15.890000,20.18
28292,0.657336,0.484096,0.662216,-20.860001,-19.040001,-0.490000,20.15
28303,0.692960,0.670024,0.688080,-69.650002,-17.639999,15.470000,20.15
28314,0.725168,0.751520,0.679296,-103.669998,-22.400000,27.020000,20.14
28325,0.813984,0.649040,0.681736,-122.500000,-23.520000,33.180000,20.14
28336,0.864736,0.615368,0.615856,-131.949997,-15.190000,50.750000,20.18
28347,0.852536,0.528016,0.517280,-133.000000,-13.370000,62.509998,20.20
28358,0.865224,0.454328,0.423584,-122.360001,-9.730000,65.309998,20.20
28369,0.853024,0.396744,0.375272,-107.239998,-7.980000,64.400002,20.19
28380,0.862296,0.166896,0.379176,-89.110001,-2.520000,58.520000,20.19
28391,0.867664,-0.039528,0.442616,-57.959999,2.940000,50.330002,20.16
28402,0.841312,-0.213256,0.494832,-26.110001,5.180000,42.209999,20.17
28415,0.847168,-0.289384,0.524600,-3.080000,7.280000,30.030001,20.17
28426,0.841800,-0.293776,0.551928,5.390000,3.990000,17.290001,20.20
28436,0.853512,-0.336232,0.572424,10.010000,2.940000,4.760000,20.20
28447,0.848632,-0.202032,0.584136,1.540000,2.450000,-6.230000,20.20
28459,0.838872,-0.184952,0.596336,-5.460000,1.540000,-16.379999,20.18
28470,0.829600,-0.213744,0.608536,3.990000,0.420000,-27.650000,20.18
28481,0.845704,-0.265960,0.626104,24.290001,0.070000,-39.200001,20.20
28493,0.860344,-0.296704,0.643672,60.759998,-0.980000,-50.119999,20.20
28504,0.887672,-0.312320,0.620248,124.110001,-0.280000,-59.779999,20.17
28515,0.888648,-0.235704,0.586088,144.199997,1.680000,-63.700001,20.20
28526,0.877424,-0.125904,0.545584,163.869995,1.820000,-63.770000,20.20
28537,0.830576,0.056608,0.547536,149.520004,-0.140000,-56.490002,20.18
28548,0.773968,0.200080,0.545096,116.199997,-5.530000,-47.389999,20.18
28559,0.756400,0.202032,0.571936,67.410004,-8.890000,-38.639999,20.17
28571,0.718824,0.272792,0.611464,12.950000,-11.060000,-29.469999,20.19
28582,0.718336,0.351848,0.584624,-41.020000,-11.970000,-16.730000,20.19
28593,0.737856,0.343552,0.541192,-73.500000,-12.600000,-0.980000,20.18
28604,0.748104,0.435784,0.539240,-106.400002,-14.700000,12.320000,20.18
28615,0.780312,0.478728,0.514352,-130.339996,-15.470000,24.010000,20.21
28626,0.824232,0.306952,0.547048,-130.550003,-10.920000,33.040001,20.21
28637,0.820816,0.338672,0.601704,-128.169998,-9.100000,40.110001,20.18
28648,0.842288,0.338184,0.587064,-124.320000,-9.660000,46.480000,20.16
28659,0.873032,0.264984,0.566568,-113.540001,-9.030000,51.029999,20.16
28670,0.879376,0.235704,0.553392,-105.000000,-8.330000,52.570000,20.21
28682,0.870104,0.214232,0.521184,-100.800003,-7.000000,51.660000,20.21
28693,0.878888,0.085888,0.494832,-95.480003,-2.170000,47.880001,20.14
28704,0.857904,-0.083448,0.470920,-81.480003,1.680000,39.410000,20.21
28716,0.847656,-0.214232,0.471896,-58.169998,4.620000,28.350000,20.21
28727,0.842288,-0.314760,0.474824,-30.030001,6.090000,17.990000,20.18
28738,0.848144,-0.292312,0.483120,-0.910000,6.720000,5.740000,20.18
28749,0.851560,-0.251808,0.501176,16.730000,7.560000,-6.160000,20.13
28759,0.853024,-0.268400,0.534848,46.060001,10.640000,-16.100000,20.18
28770,0.825208,-0.189344,0.582672,65.099998,10.360000,-30.730000,20.18
28781,0.829112,-0.268888,0.655872,94.290001,9.310000,-44.799999,20.22
28792,0.842288,-0.270840,0.684664,128.029999,9.100000,-53.410000,20.22
28804,0.846680,-0.232288,0.689544,160.440002,8.190000,-61.669998,20.19
28814,0.862784,-0.198128,0.675880,185.850006,6.440000,-66.570000,20.18
28825,0.879376,-0.161040,0.551440,207.479996,7.280000,-65.870003,20.18
28836,0.833992,-0.066368,0.488976,187.600006,7.000000,-62.160000,20.18
28848,0.769088,0.023912,0.457256,139.020004,-0.770000,-50.750000,20.18
28859,0.708576,0.207400,0.525088,80.919998,-11.900000,-36.680000,20.22
28870,0.663192,0.484584,0.613904,-8.120000,-18.900000,-16.030001,20.16
28881,0.682712,0.504592,0.699304,-76.440002,-22.820000,16.030001,20.16
28892,0.707112,0.592920,0.729072,-118.930000,-22.959999,13.790000,20.16
28903,0.762744,0.525088,0.717360,-135.660004,-22.120001,25.830000,20.16
28914,0.817888,0.441152,0.653920,-138.949997,-19.180000,38.919998,20.18
28925,0.872056,0.383568,0.584624,-132.649994,-17.500000,46.759998,20.16
28936,0.883280,0.422120,0.554856,-122.639999,-16.870001,57.540001,20.16
28947,0.870592,0.518256,0.505568,-114.379997,-18.059999,63.000000,20.19
28958,0.882792,0.473360,0.468480,-105.980003,-14.700000,65.449997,20.19
28969,0.869616,0.252296,0.422608,-87.500000,-7.630000,60.619999,20.17
28980,0.854488,-0.010248,0.404064,-64.959999,-0.210000,52.709999,20.17
28991,0.853512,-0.217160,0.422120,-33.740002,4.690000,41.720001,20.20
29003,0.839848,-0.342088,0.452376,-0.840000,5.740000,28.350000,20.16
29015,0.832040,-0.384056,0.483608,29.540001,4.410000,15.120000,20.16
29025,0.855464,-0.304512,0.526064,47.320000,4.970000,5.670000,20.17
29036,0.863760,-0.246928,0.562176,50.959999,5.880000,-3.990000,20.17
29048,0.820816,-0.132736,0.599752,49.209999,6.230000,-14.630000,20.22
29059,0.803248,-0.093208,0.639280,47.320000,5.250000,-25.900000,20.20
29070,0.807640,-0.159576,0.661728,61.250000,4.690000,-38.220001,20.20
29081,0.818376,-0.175192,0.653432,88.690002,3.150000,-46.480000,20.15
29093,0.854000,-0.186904,0.626104,123.690002,4.760000,-55.369999,20.15
29104,0.877912,-0.154696,0.592432,150.850006,6.230000,-59.639999,20.21
29116,0.900848,-0.136152,0.493856,169.820007,9.590000,-55.930000,20.17
29127,0.845704,-0.087352,0.485072,155.259995,6.090000,-52.709999,20.17
29139,0.768112,0.000000,0.501664,92.959999,0.070000,-39.340000,20.20
29151,0.718824,0.169824,0.529968,25.129999,-9.590000,-26.250000,20.17
29162,0.687104,0.341112,0.622200,-31.850000,-15.120000,-10.500000,20.17
29174,0.702232,0.464088,0.681736,-96.110001,-18.900000,3.290000,20.21
29185,0.868640,0.487512,0.643672,-135.800003,-18.549999,15.960000,20.21
29197,0.808616,0.338184,0.620248,-145.389999,-14.630000,23.379999,20.19
29209,0.854000,0.331840,0.592432,-145.250000,-13.230000,33.320000,20.20
29220,0.877912,0.324032,0.545584,-135.309998,-11.830000,43.400002,20.20
29231,0.871568,0.430416,0.523624,-125.019997,-12.320000,51.099998,20.16
29243,0.867176,0.426512,0.519720,-113.050003,-11.690000,54.599998,20.18
29254,0.856928,0.329400,0.502640,-96.459999,-6.370000,53.060001,20.18
29265,0.855952,0.112240,0.478240,-68.250000,0.420000,47.389999,20.17
29276,0.844240,-0.103456,0.469456,-42.279999,6.440000,38.919998,20.17
29289,0.842288,-0.219600,0.471896,-6.510000,8.540000,28.070000,20.14
29300,0.830088,-0.289384,0.497760,18.270000,7.910000,16.590000,20.16
29311,0.843752,-0.274256,0.537288,34.090000,8.680000,5.320000,20.16
29323,0.842288,-0.099552,0.590968,35.139999,10.010000,-4.480000,20.17
29334,0.831064,-0.191296,0.610976,39.340000,10.920000,-14.630000,20.17
29346,0.822768,-0.240584,0.622200,63.209999,9.380000,-27.860001,20.17
29357,0.836432,-0.217160,0.637816,91.070000,7.070000,-39.549999,20.17
29368,0.865712,-0.258152,0.644160,122.010002,7.490000,-48.790001,20.17
29380,0.869616,-0.232288,0.634888,154.839996,8.190000,-57.889999,20.18
29392,0.879864,-0.224968,0.567056,185.570007,9.170000,-62.650002,20.16
29403,0.842776,-0.020496,0.543632,178.500000,6.230000,-57.259998,20.16
29414,0.793976,0.143472,0.558760,138.740005,1.120000,-45.360001,20.18
29425,0.768600,0.094184,0.627080,79.449997,-4.900000,-37.310001,20.18
29437,0.709064,0.186416,0.633424,18.760000,-9.870000,-26.670000,20.22
29448,0.686616,0.296216,0.661240,-37.730000,-15.680000,-13.930000,20.19
29459,0.710040,0.459696,0.621224,-93.660004,-21.070000,0.350000,20.19
29471,0.760304,0.419680,0.589504,-125.019997,-20.650000,12.110000,20.18
29483,0.802272,0.396744,0.582184,-139.089996,-16.940001,28.139999,20.18
29496,0.834968,0.354776,0.582672,-142.169998,-13.930000,38.360001,20.18
29508,0.854976,0.326960,0.599264,-137.619995,-12.740000,47.880001,20.18
29519,0.862296,0.333304,0.581696,-129.220001,-13.580000,55.860001,20.18
29530,0.867176,0.332816,0.557784,-116.550003,-14.070000,61.250000,20.18
29541,0.860344,0.347944,0.559736,-107.309998,-12.250000,63.209999,20.18
29553,0.846680,0.277184,0.517768,-105.070000,-7.350000,60.970001,20.18
29564,0.842288,-0.009272,0.494832,-87.010002,-1.120000,54.110001,20.21
29575,0.840824,-0.223992,0.480680,-57.680000,2.590000,43.540001,20.21
29587,0.825208,-0.329400,0.490928,-33.529999,3.290000,31.080000,20.20
29598,0.821792,-0.414312,0.501664,-1.120000,2.800000,17.430000,20.18
29610,0.830088,-0.317688,0.504592,26.180000,3.430000,4.970000,20.18
29621,0.843264,-0.252784,0.527040,37.310001,5.530000,-6.930000,20.18
29632,0.823744,-0.328912,0.569496,60.900002,7.000000,-20.230000,20.18
29644,0.806176,-0.349896,0.604632,94.709999,5.180000,-36.820000,20.19
29656,0.834968,-0.339160,0.653432,128.240005,4.060000,-51.099998,20.18
29668,0.847656,-0.280600,0.666120,157.850006,4.270000,-62.299999,20.18
29679,0.848144,-0.234728,0.666608,186.059998,4.480000,-69.510002,20.17
29691,0.851072,-0.144936,0.614880,202.160004,4.690000,-69.510002,20.20
29702,0.854488,-0.075640,0.560224,197.750000,4.830000,-64.120003,20.20
29713,0.781776,0.046360,0.540216,157.990005,-1.470000,-58.520000,20.17
29725,0.725656,0.187880,0.541192,93.730003,-9.520000,-44.450001,20.17
29736,0.711504,0.328424,0.545584,27.299999,-15.400000,-32.130001,20.22
29748,0.701256,0.406992,0.556808,-16.379999,-16.030001,-17.570000,20.20
29759,0.712968,0.482144,0.579256,-60.689999,-16.660000,-4.410000,20.20
29770,0.744200,0.533384,0.547048,-93.730003,-15.260000,9.940000,20.17
29782,0.782264,0.500200,0.518256,-111.019997,-12.950000,21.980000,20.17
29793,0.822280,0.365024,0.508496,-110.180000,-8.190000,29.610001,20.18
29804,0.826672,0.331352,0.505568,-104.580002,-6.160000,39.200001,20.19
29815,0.848632,0.278160,0.538264,-97.440002,-5.670000,48.580002,20.19
29827,0.853512,0.253760,0.552904,-84.839996,-4.480000,52.430000,20.20
29838,0.860344,0.248392,0.586088,-76.790001,-4.760000,55.369999,20.20
29849,0.847656,0.274256,0.578768,-80.500000,-6.020000,57.400002,20.16
29860,0.846680,0.192272,0.571936,-88.410004,-3.990000,56.000000,20.15
29872,0.842776,0.053192,0.569008,-89.949997,-0.910000,50.959999,20.15
29883,0.833016,-0.137616,0.566080,-80.430000,1.540000,41.580002,20.15
29894,0.829600,-0.291336,0.562176,-56.209999,1.820000,30.030001,20.15
29906,0.823256,-0.376736,0.549976,-22.820000,1.050000,17.570000,20.15
29917,0.827160,-0.381128,0.524600,15.540000,0.280000,5.250000,20.18
29928,0.854000,-0.262056,0.522648,41.090000,0.910000,-2.870000,20.18
29939,0.836432,-0.169824,0.546560,52.570000,2.590000,-13.650000,20.18
29951,0.805688,-0.135176,0.593896,61.740002,2.590000,-27.370001,20.18
29962,0.812032,-0.151768,0.630984,78.750000,2.660000,-40.669998,20.18
29973,0.831064,-0.193248,0.648552,103.599998,2.660000,-52.779999,20.18
29984,0.839360,-0.193248,0.653432,127.050003,2.730000,-59.709999,20.18
29995,0.860832,-0.184952,0.634400,150.990005,2.590000,-66.290001,20.16
30007,0.876936,-0.186416,0.549976,169.610001,2.450000,-67.480003,20.16
30018,0.823256,0.000976,0.515328,154.279999,-1.470000,-62.860001,20.18
30030,0.787632,0.091744,0.535824,129.919998,-6.790000,-56.560001,20.20
30041,0.745176,0.268888,0.538752,78.400002,-12.460000,-46.830002,20.20
30052,0.739320,0.338184,0.503616,12.670000,-12.880000,-35.070000,20.18
30063,0.711016,0.364048,0.524600,-49.770000,-13.790000,-22.750000,20.13
30075,0.703208,0.421632,0.552416,-96.180000,-14.070000,-5.810000,20.13
30086,0.733464,0.409920,0.598288,-118.790001,-12.530000,12.390000,20.17
30098,0.751032,0.419192,0.590480,-131.320007,-11.970000,25.410000,20.17
30109,0.786168,0.435296,0.602680,-132.649994,-9.520000,36.959999,20.16
30121,0.828624,0.419680,0.604632,-122.570000,-7.350000,48.090000,20.18
30132,0.833992,0.408456,0.589016,-114.870003,-7.560000,56.770000,20.18
30143,0.879376,0.301096,0.587064,-102.550003,-6.790000,61.040001,20.20
30154,0.862784,0.180560,0.595360,-88.339996,-6.160000,62.299999,20.20
30166,0.857416,0.157624,0.594384,-80.220001,-7.350000,61.740002,20.17
30177,0.863760,0.044896,0.575840,-69.580002,-5.600000,56.770000,20.20
30189,0.862784,-0.118584,0.523624,-47.529999,-2.100000,47.950001,20.20
30201,0.860832,-0.185440,0.456280,-21.840000,1.050000,36.470001,20.20
30213,0.848632,-0.292800,0.442128,10.710000,4.340000,23.170000,20.15
30225,0.838384,-0.270840,0.491416,42.419998,6.020000,6.440000,20.15
30237,0.844240,-0.297680,0.567544,66.150002,8.190000,-7.280000,20.18
30249,0.827160,-0.401624,0.646112,97.370003,8.680000,-23.940001,20.18
30262,0.822768,-0.372344,0.692960,131.250000,5.810000,-41.930000,20.17
30273,0.839360,-0.291336,0.694912,148.190002,2.800000,-50.959999,20.20
30285,0.843752,-0.202520,0.648064,159.460007,0.560000,-59.220001,20.20
30297,0.867664,-0.167872,0.555832,166.460007,0.070000,-62.580002,20.17
30308,0.852536,-0.030256,0.493856,159.320007,-0.350000,-59.849998,20.17
30320,0.798368,0.057584,0.531432,134.470001,-3.920000,-55.509998,20.17
30332,0.756888,0.204960,0.572424,88.480003,-8.190000,-46.619999,20.19
30343,0.727120,0.329888,0.575352,28.070000,-10.850000,-35.209999,20.19
30354,0.712480,0.380640,0.607560,-17.430000,-12.880000,-23.309999,20.15
30365,0.700280,0.480680,0.560224,-74.760002,-15.330000,-8.680000,20.18
30377,0.728584,0.412360,0.532896,-113.260002,-16.170000,5.740000,20.18
30390,0.777384,0.341600,0.521672,-126.910004,-13.790000,17.850000,20.22
30402,0.797880,0.305000,0.552904,-123.760002,-10.780000,32.060001,20.20
30415,0.804224,0.354288,0.597312,-117.809998,-9.450000,41.509998,20.20
30426,0.817888,0.407968,0.622688,-118.510002,-9.170000,50.820000,20.19
30440,0.859368,0.326472,0.590480,-114.099998,-9.730000,57.750000,20.20
30451,0.864248,0.218136,0.567056,-104.370003,-8.260000,59.360001,20.20
30463,0.866200,0.171776,0.552904,-95.410004,-7.000000,58.520000,20.20
30474,0.852536,0.091744,0.543632,-88.199997,-5.320000,56.209999,20.20
30485,0.842776,-0.036600,0.539240,-77.000000,-2.870000,49.980000,20.20
30497,0.833992,-0.183488,0.540704,-57.750000,-0.140000,41.650002,20.18
30508,0.835456,-0.303048,0.535336,-31.920000,1.120000,31.920000,20.18
30520,0.835456,-0.339648,0.529480,-4.690000,1.820000,19.600000,20.16
30532,0.838872,-0.304512,0.510936,15.960000,2.240000,7.210000,20.16
30543,0.852536,-0.255224,0.498736,35.490002,4.550000,-3.570000,20.16
30555,0.841312,-0.234728,0.516792,55.230000,7.000000,-15.190000,20.19
30566,0.839360,-0.272792,0.569984,77.419998,8.540000,-27.580000,20.19
30577,0.833016,-0.301096,0.620736,110.459999,8.120000,-41.439999,20.18
30589,0.835456,-0.275720,0.657336,142.169998,7.490000,-53.200001,20.17
30601,0.845216,-0.228384,0.689056,170.449997,7.700000,-59.849998,20.17
30614,0.844728,-0.170312,0.687592,187.949997,5.250000,-63.840000,20.20
30625,0.813496,0.020496,0.653432,165.899994,1.470000,-59.500000,20.15
30637,0.805200,0.000976,0.574376,120.260002,-3.850000,-53.410000,20.15
30649,0.758840,0.004392,0.563640,83.370003,-8.610000,-44.660000,20.22
30661,0.701256,0.306464,0.554856,20.160000,-17.290001,-32.549999,20.11
30672,0.708576,0.395768,0.573400,-37.869999,-19.809999,-17.290001,20.11
30685,0.720288,0.420168,0.595360,-74.269997,-18.830000,-2.100000,20.23
30696,0.738344,0.506056,0.575352,-94.849998,-18.760000,10.710000,20.23
30708,0.792024,0.446520,0.557784,-100.239998,-16.379999,23.520000,20.20
30719,0.801296,0.375272,0.564616,-100.800003,-12.740000,29.330000,20.16
30730,0.821792,0.325984,0.581208,-98.839996,-9.310000,39.549999,20.16
30742,0.829112,0.262544,0.572912,-87.849998,-10.710000,45.709999,20.20
30754,0.853024,0.210328,0.560224,-79.589996,-10.360000,50.189999,20.15
30766,0.862296,0.155672,0.576816,-74.410004,-9.450000,50.959999,20.15
30777,0.853512,0.147376,0.560224,-73.220001,-8.610000,49.840000,20.18
30789,0.865712,0.076616,0.528016,-75.879997,-4.760000,48.020000,20.18
30800,0.849608,-0.055632,0.491904,-72.099998,-2.030000,41.090000,20.21
30811,0.859856,-0.199592,0.477264,-62.580002,1.120000,31.150000,20.18
30823,0.854976,-0.311344,0.487512,-40.880001,2.450000,20.790001,20.18
30834,0.842288,-0.328912,0.509472,-15.190000,2.450000,12.250000,20.16
30845,0.846192,-0.331352,0.527040,12.460000,3.290000,1.050000,20.16
30857,0.850096,-0.169824,0.542656,26.110001,5.460000,-8.680000,20.23
30868,0.826672,-0.170312,0.542168,37.939999,6.720000,-20.299999,20.20
30880,0.830088,-0.202520,0.547048,57.750000,7.000000,-31.850000,20.20
30891,0.839360,-0.229848,0.580232,82.739998,8.680000,-43.750000,20.23
30903,0.835944,-0.229848,0.615368,110.040001,9.870000,-54.459999,20.23
30914,0.843752,-0.225456,0.630008,132.440002,10.500000,-62.580002,20.20
30925,0.836920,-0.121512,0.629032,155.470001,9.450000,-66.080002,20.17
30937,0.835456,-0.070272,0.570472,168.070007,6.370000,-66.150002,20.17
30948,0.832528,-0.014152,0.516304,163.869995,4.550000,-63.419998,20.20
30959,0.772992,0.094184,0.549488,147.139999,-0.070000,-58.029999,20.19
30970,0.712480,0.295240,0.615856,109.830002,-5.600000,-47.459999,20.19
30982,0.695400,0.435296,0.660264,70.279999,-11.060000,-38.009998,20.17
30994,0.692472,0.517768,0.650504,-0.980000,-11.550000,-23.240000,20.17
31005,0.726144,0.468968,0.605608,-42.419998,-10.500000,-8.400000,20.16
31017,0.743224,0.379176,0.535336,-78.400002,-11.130000,4.200000,20.18
31028,0.754936,0.326960,0.506544,-96.389999,-11.130000,19.110001,20.18
31039,0.773968,0.321104,0.516304,-105.489998,-11.900000,31.360001,20.20
31051,0.791536,0.498736,0.569008,-111.300003,-13.370000,40.740002,20.20
31062,0.804712,0.372344,0.621224,-116.269997,-14.140000,48.230000,20.17
31074,0.836432,0.270352,0.649528,-115.779999,-11.970000,52.919998,20.18
31086,0.856928,0.206424,0.672464,-115.639999,-12.390000,57.680000,20.18
31097,0.856928,0.185928,0.633424,-111.930000,-12.110000,58.169998,20.21
31109,0.866200,0.150304,0.583648,-104.790001,-11.480000,57.049999,20.14
31121,0.870592,0.091744,0.521672,-94.989998,-8.960000,51.869999,20.14
31132,0.863760,-0.028304,0.470432,-77.419998,-5.180000,43.540001,20.20
31144,0.855952,-0.196664,0.435784,-49.840000,-1.260000,32.759998,20.20
31155,0.852536,-0.275720,0.450912,-19.950001,1.540000,23.730000,20.16
31167,0.843752,-0.326472,0.475312,11.970000,3.570000,9.590000,20.19
31178,0.849120,-0.301096,0.498248,42.139999,5.040000,-2.520000,20.19
31189,0.833992,-0.194224,0.548512,56.910000,7.140000,-16.799999,20.19
31200,0.826672,-0.207400,0.597312,74.199997,7.840000,-29.120001,20.19
31212,0.831552,-0.242536,0.634400,98.839996,7.140000,-41.790001,20.16
31223,0.842288,-0.241560,0.646112,126.000000,7.280000,-52.360001,20.18
31235,0.851072,-0.229360,0.629032,156.449997,7.350000,-60.060001,20.18
31247,0.868152,-0.207888,0.596336,190.679993,7.420000,-63.980000,20.17
31259,0.822768,-0.001464,0.574376,196.350006,4.690000,-61.950001,20.19
31271,0.794464,0.168848,0.550464,159.809998,1.050000,-53.200001,20.19
31282,0.767624,0.127368,0.559736,112.699997,-2.730000,-46.200001,20.13
31294,0.711504,0.217160,0.594384,62.439999,-6.860000,-32.549999,20.13
31306,0.673440,0.433832,0.608536,2.030000,-11.130000,-17.500000,20.18
31317,0.697352,0.541680,0.579744,-53.830002,-13.720000,-1.470000,20.17
31329,0.736392,0.584136,0.553392,-94.150002,-13.370000,13.090000,20.17
31343,0.785192,0.415288,0.542168,-117.180000,-10.150000,26.459999,20.21
31354,0.795440,0.365512,0.537776,-122.639999,-7.490000,37.029999,20.16
31366,0.816912,0.316224,0.556808,-123.339996,-6.580000,45.919998,20.16
