timestamp_ms,ax,ay,az,gx,gy,gz,tempC
9021,0.545096,0.159576,0.886696,-4.060000,-16.100000,5.880000,23.88
9032,0.551440,0.175680,0.895968,-5.390000,-16.940001,7.280000,23.88
9043,0.595848,0.181536,0.912560,-13.440000,-18.620001,8.540000,23.89
9054,0.565592,0.119072,0.939400,-14.140000,-18.830000,9.660000,23.88
9065,0.583648,0.133712,0.943792,-14.490000,-22.120001,10.080000,23.88
9076,0.582184,0.088328,0.949160,-15.260000,-24.080000,9.940000,23.92
9087,0.589992,0.091744,0.928664,-11.970000,-27.860001,10.360000,23.92
9098,0.603168,0.117120,0.912560,-13.090000,-30.240000,10.920000,23.89
9109,0.611952,0.123464,0.900848,-14.210000,-32.130001,11.830000,23.84
9120,0.610000,0.119560,0.902800,-15.050000,-34.369999,12.950000,23.84
9131,0.616832,0.103944,0.908656,-18.129999,-36.750000,13.440000,23.87
9142,0.622200,0.078568,0.913536,-18.760000,-38.430000,13.860000,23.87
9153,0.621224,0.084424,0.905728,-18.690001,-40.599998,14.560000,23.88
9164,0.628056,0.097112,0.892552,-21.350000,-42.070000,14.910000,23.84
9175,0.626104,0.088328,0.871568,-23.030001,-43.610001,15.190000,23.84
9186,0.632448,0.079056,0.853024,-23.870001,-44.450001,15.260000,23.89
9197,0.633912,0.075640,0.839848,-25.690001,-45.080002,15.260000,23.89
9208,0.633424,0.056608,0.815936,-24.920000,-45.849998,14.980000,23.87
9219,0.636840,0.045384,0.788608,-25.270000,-46.270000,14.490000,23.87
9231,0.633424,0.037576,0.793488,-25.900000,-46.759998,14.000000,23.85
9242,0.638792,0.038552,0.801784,-26.670000,-47.250000,13.720000,23.86
9253,0.645624,0.020984,0.816424,-27.790001,-48.720001,13.020000,23.86
9264,0.659776,0.007808,0.825696,-27.230000,-50.540001,11.970000,23.94
9275,0.677832,0.015128,0.817400,-27.580000,-51.939999,10.290000,23.94
9286,0.686616,0.010736,0.799832,-28.490000,-53.970001,8.890000,23.87
9297,0.685640,0.000000,0.785680,-28.770000,-56.560001,7.210000,23.87
9307,0.689056,-0.025376,0.758352,-29.400000,-57.750000,5.460000,23.87
9318,0.696864,-0.019520,0.729072,-28.350000,-60.410000,3.500000,23.92
9330,0.718824,-0.010736,0.727608,-30.170000,-60.970001,1.400000,23.92
9341,0.725168,-0.027816,0.739320,-30.660000,-62.160000,-0.420000,23.94
9352,0.724680,-0.006832,0.750544,-31.780001,-64.330002,-2.030000,23.87
9363,0.732000,-0.006344,0.733464,-33.810001,-65.660004,-3.850000,23.87
9374,0.742248,-0.024888,0.694912,-31.430000,-66.010002,-6.020000,23.88
9385,0.734440,0.010736,0.678320,-30.240000,-68.459999,-7.210000,23.88
9396,0.708576,-0.023424,0.670512,-32.270000,-70.769997,-10.080000,23.90
9407,0.752496,-0.033672,0.664168,-26.180000,-70.699997,-11.620000,23.86
9418,0.771040,0.044408,0.668072,-29.190001,-70.279999,-11.900000,23.86
9429,0.777384,0.011712,0.668072,-33.180000,-69.160004,-13.510000,23.91
9440,0.777872,-0.023912,0.660264,-31.850000,-69.580002,-14.560000,23.91
9451,0.777872,0.013176,0.653920,-29.889999,-70.769997,-13.930000,23.89
9462,0.785680,0.037576,0.668072,-29.400000,-69.440002,-13.090000,23.89
9473,0.780800,0.027816,0.648064,-24.990000,-70.000000,-11.830000,23.87
9484,0.794464,0.074176,0.625616,-23.870001,-69.580002,-9.590000,23.86
9495,0.799832,0.087352,0.588528,-23.730000,-68.669998,-7.630000,23.86
9506,0.812032,0.096624,0.553392,-23.520000,-65.870003,-4.760000,23.90
9517,0.808128,0.108336,0.539728,-23.940001,-64.050003,-0.980000,23.90
9528,0.813496,0.106872,0.515816,-23.030001,-60.619999,2.030000,23.90
9539,0.818864,0.119560,0.492392,-21.980000,-57.189999,7.210000,23.85
9550,0.825208,0.115656,0.459696,-19.530001,-53.619999,12.670000,23.85
9561,0.831552,0.114680,0.431880,-14.000000,-49.139999,18.129999,23.90
9572,0.839848,0.138104,0.406016,-8.820000,-44.450001,25.620001,23.90
9583,0.857416,0.133224,0.360144,-7.280000,-35.349998,33.040001,23.93
9595,0.849608,0.012200,0.345504,-5.110000,-28.350000,39.060001,23.86
9605,0.816912,0.021472,0.325008,-2.170000,-25.480000,46.270000,23.86
9616,0.796904,0.020984,0.368928,-4.200000,-22.469999,51.799999,23.91
9627,0.848144,0.069296,0.468480,-12.040000,-14.700000,57.119999,23.91
9639,0.874984,-0.040992,0.523136,-25.200001,-9.030000,59.220001,23.89
9650,0.863760,-0.198616,0.588040,-31.290001,-11.900000,59.290001,23.89
9661,0.894504,-0.274256,0.652456,-40.880001,-16.030001,53.549999,23.89
9672,0.904264,-0.369416,0.671976,-50.889999,-20.440001,47.389999,23.94
9683,0.914512,-0.464088,0.659288,-55.720001,-25.270000,37.099998,23.94
9694,0.924760,-0.530944,0.637328,-54.669998,-31.920000,26.740000,23.92
9705,0.930616,-0.519232,0.580232,-54.880001,-37.590000,10.780000,23.92
9716,0.945744,-0.603656,0.549488,-54.810001,-43.540001,-8.260000,23.87
9727,0.965264,-0.704184,0.537288,-40.320000,-49.419998,-28.770000,23.90
9739,0.973072,-0.642696,0.529968,-24.780001,-56.209999,-48.720001,23.90
9750,0.954040,-0.526552,0.470920,-13.020000,-59.500000,-63.560001,23.90
9761,0.939888,-0.354776,0.386984,-10.150000,-61.529999,-77.980003,23.90
9772,0.930128,-0.267424,0.283528,-3.780000,-61.110001,-89.389999,23.87
9783,0.923296,-0.180560,0.218624,0.420000,-59.779999,-96.879997,23.92
9794,0.902800,-0.185928,0.171776,10.360000,-61.599998,-99.540001,23.92
9805,0.895480,-0.051728,0.180560,23.660000,-65.309998,-99.889999,23.90
9816,0.863760,0.183000,0.160064,24.150000,-62.299999,-92.330002,23.90
9827,0.869128,0.328424,0.095648,34.860001,-57.189999,-81.269997,23.90
9838,0.886696,0.480680,0.035624,42.349998,-45.220001,-68.040001,23.96
9849,0.885232,0.622688,-0.027328,52.779999,-31.639999,-48.509998,23.96
9861,0.752496,0.713456,-0.092232,59.430000,-16.940001,-26.040001,23.91
9871,0.845704,0.679784,-0.162992,65.870003,-2.660000,-3.500000,23.91
9882,0.899872,0.671976,-0.147376,63.980000,26.320000,21.070000,23.91
9893,0.986736,0.706136,-0.136640,54.740002,47.740002,55.509998,23.87
9904,0.685640,0.685640,-0.068320,23.940001,50.750000,72.029999,23.87
9915,0.821792,0.504592,-0.038064,2.940000,73.639999,94.849998,23.93
9926,0.727608,0.352336,0.071248,-17.010000,90.510002,104.930000,23.93
9937,0.685152,0.072224,0.243024,-25.900000,94.500000,118.580002,23.92
9948,0.652944,-0.115656,0.418216,-30.940001,88.410004,125.089996,23.89
9959,0.672952,-0.315248,0.516304,-39.970001,82.250000,130.830002,23.89
9970,0.710528,-0.235216,0.586576,-57.610001,76.860001,137.339996,23.92
9981,0.737368,-0.637816,0.607560,-63.209999,78.190002,107.940002,23.92
9992,0.675880,-0.708576,0.657824,-56.070000,64.470001,111.089996,23.89
10003,0.722728,-0.842288,0.676856,-64.400002,64.750000,84.000000,23.89
10014,0.670512,-0.959896,0.712480,-59.290001,61.529999,49.349998,23.86
10025,0.680272,-1.162904,0.737368,-38.500000,52.009998,19.670000,23.92
10036,0.685640,-1.213656,0.832528,-8.050000,33.740002,-20.299999,23.92
10047,0.706624,-1.130208,0.961360,21.770000,20.299999,-55.720001,23.95
10058,0.724192,-0.978440,1.020408,45.990002,9.730000,-86.800003,23.95
10069,0.714432,-0.741272,1.030168,56.490002,-5.950000,-104.720001,23.91
10080,0.752984,-0.400648,0.966240,52.570000,-20.160000,-120.330002,23.91
10091,0.790072,-0.244976,0.866688,53.759998,-27.090000,-130.619995,23.91
10102,0.727608,-0.101992,0.771040,57.820000,-47.180000,-130.759995,23.93
10113,0.817888,-0.025864,0.648552,60.200001,-39.549999,-148.119995,23.93
10125,0.863760,-0.052216,0.520696,76.720001,-45.430000,-126.419998,23.90
10136,0.709552,0.256200,0.372832,85.959999,-71.750000,-118.089996,23.89
10147,0.842776,0.489952,0.227408,87.989998,-51.799999,-90.089996,23.89
10158,0.807640,0.550464,0.179584,78.400002,-34.439999,-72.730003,23.95
10169,0.686128,0.734440,0.176168,66.989998,-36.540001,-47.110001,23.95
10180,0.867176,0.863272,0.146400,49.490002,-8.890000,-19.040001,23.88
10191,0.821792,0.898896,0.174704,24.639999,7.070000,31.430000,23.93
10202,0.782752,0.838384,0.188856,5.810000,15.190000,33.669998,23.93
10213,0.856928,0.784704,0.180072,-11.550000,28.559999,64.959999,23.92
10223,0.827648,0.694912,0.196176,-27.510000,41.720001,84.910004,23.92
10234,0.838872,0.483120,0.232776,-30.030001,52.570000,103.739998,23.95
10245,0.837896,0.281088,0.312808,-29.049999,58.730000,115.989998,23.95
10256,0.797880,0.118584,0.425048,-28.000000,59.500000,122.570000,23.90
10267,0.814472,-0.057584,0.502152,-30.870001,56.349998,125.230003,23.91
10278,0.821792,-0.129320,0.581696,-38.849998,49.490002,125.790001,23.91
10290,0.853512,-0.354776,0.585112,-54.389999,49.700001,118.930000,23.90
10301,0.805688,-0.570960,0.609024,-48.230000,40.110001,91.070000,23.90
10312,0.814960,-0.650504,0.654408,-51.730000,32.480000,91.559998,23.93
10323,0.778360,-0.868640,0.726632,-48.860001,23.940001,66.639999,23.86
10334,0.772016,-0.952576,0.776408,-34.790001,13.370000,41.160000,23.86
10345,0.808128,-1.009184,0.809592,-18.549999,3.710000,18.059999,23.89
10356,0.786656,-0.977464,0.837408,1.820000,-6.580000,-11.130000,23.89
10367,0.788120,-0.881816,0.838872,14.560000,-15.190000,-37.730000,23.92
10378,0.823744,-0.787144,0.827648,28.490000,-25.270000,-62.369999,23.91
10389,0.826184,-0.673440,0.827648,41.790001,-32.900002,-81.480003,23.91
10400,0.848144,-0.480192,0.797880,51.240002,-39.830002,-92.540001,23.95
10412,0.830088,-0.341112,0.760304,59.849998,-47.880001,-101.500000,23.95
10423,0.839360,-0.183488,0.685640,63.980000,-52.430000,-104.440002,23.93
10433,0.844728,-0.145424,0.578280,71.889999,-55.580002,-105.139999,23.87
10445,0.854000,0.061976,0.498248,70.349998,-56.630001,-96.250000,23.87
10456,0.857904,0.193736,0.375760,65.730003,-50.189999,-84.489998,23.95
10467,0.834968,0.251808,0.259128,67.830002,-42.490002,-70.769997,23.95
10478,0.822280,0.373808,0.191296,71.610001,-36.119999,-52.080002,23.95
10490,0.814472,0.573400,0.164944,60.619999,-23.660000,-29.049999,23.91
10501,0.804712,0.684664,0.178608,40.110001,-10.010000,-8.820000,23.91
10512,0.799344,0.688568,0.232288,13.860000,4.970000,17.990000,23.98
10523,0.786168,0.643672,0.266448,-6.510000,17.709999,42.980000,23.98
10534,0.772016,0.591944,0.285968,-26.250000,27.020000,65.870003,23.94
10545,0.779824,0.454816,0.281088,-39.689999,37.730000,79.800003,23.89
10556,0.778360,0.228384,0.296216,-40.040001,44.590000,91.559998,23.89
10567,0.782752,0.140544,0.357704,-40.950001,46.900002,100.660004,23.91
10578,0.798368,-0.020008,0.433832,-44.450001,49.490002,103.459999,23.91
10589,0.803248,-0.204472,0.509960,-46.270000,46.060001,105.209999,23.92
10600,0.815448,-0.357704,0.606584,-49.560001,40.040001,101.989998,23.92
10611,0.833016,-0.343064,0.679784,-61.529999,33.810001,98.349998,23.90
10622,0.855952,-0.482632,0.671488,-71.610001,29.400000,88.339996,23.90
10633,0.826184,-0.613416,0.690032,-69.510002,19.670000,72.519997,23.90
10644,0.812032,-0.717848,0.694912,-70.559998,13.790000,52.290001,23.94
10655,0.808616,-0.801296,0.676856,-59.500000,4.830000,33.180000,23.94
10666,0.801784,-0.824232,0.661240,-42.980000,-1.330000,7.000000,23.95
10677,0.810568,-0.966728,0.638792,-14.560000,-9.030000,-21.070000,23.91
10688,0.818376,-0.854000,0.649528,16.660000,-14.490000,-46.970001,23.91
10699,0.810080,-0.810080,0.678808,40.389999,-21.139999,-64.610001,23.94
10711,0.793976,-0.628544,0.731024,51.450001,-29.889999,-81.199997,23.94
10722,0.806176,-0.467016,0.760304,53.689999,-36.680000,-92.750000,23.93
10733,0.802272,-0.292312,0.727608,51.380001,-41.090000,-97.300003,23.92
10744,0.840336,-0.301096,0.626104,53.130001,-43.119999,-102.339996,23.92
10755,0.844240,-0.270352,0.522160,67.690002,-47.250000,-105.489998,23.89
10766,0.839848,0.008296,0.401136,66.919998,-47.320000,-97.790001,23.89
10777,0.833992,0.164944,0.313296,54.740002,-42.419998,-85.959999,23.91
10789,0.803736,0.287920,0.283040,46.830002,-36.330002,-71.470001,23.89
10800,0.802272,0.368440,0.265960,36.330002,-28.070000,-56.910000,23.89
10811,0.796416,0.493856,0.268400,21.559999,-18.549999,-35.840000,23.94
10822,0.794952,0.568032,0.294264,5.950000,-7.770000,-12.810000,23.94
10833,0.785192,0.592432,0.328912,-11.970000,0.490000,11.060000,23.88
10844,0.796904,0.583160,0.338184,-25.620001,11.410000,28.770000,23.93
10855,0.801784,0.535336,0.327936,-35.419998,20.230000,48.580002,23.93
10866,0.832528,0.441152,0.317688,-38.779999,28.490000,64.260002,23.92
10877,0.841800,0.318176,0.324520,-37.310001,32.689999,75.599998,23.92
10888,0.852536,0.222040,0.360632,-38.639999,35.419998,82.949997,23.92
10899,0.858392,0.083448,0.428464,-43.470001,36.189999,89.809998,23.92
10909,0.851560,-0.009760,0.501176,-48.090000,33.950001,93.589996,23.93
10920,0.866200,-0.107360,0.512400,-53.200001,31.709999,93.309998,23.97
10931,0.873032,-0.312808,0.560224,-51.169998,27.370001,87.779999,23.97
10942,0.843752,-0.415776,0.597800,-48.790001,22.260000,76.370003,23.93
10953,0.866200,-0.541192,0.611464,-43.820000,16.870001,64.680000,23.93
10964,0.850584,-0.623176,0.630496,-35.770000,9.800000,45.919998,23.91
10975,0.854488,-0.743712,0.630984,-24.010000,4.130000,25.969999,23.95
10986,0.857416,-0.772504,0.624640,-4.340000,-2.870000,7.980000,23.95
10997,0.861808,-0.719312,0.625128,9.520000,-8.820000,-14.350000,23.93
11008,0.867664,-0.703208,0.622688,17.780001,-14.070000,-35.490002,23.93
11019,0.858392,-0.702720,0.629520,32.759998,-19.459999,-54.740002,23.91
11030,0.858880,-0.608536,0.630984,50.750000,-26.110001,-68.250000,23.91
11042,0.871568,-0.464088,0.646600,64.889999,-31.639999,-80.290001,23.91
11053,0.880352,-0.320128,0.616344,70.699997,-34.090000,-89.879997,23.91
11064,0.880840,-0.231312,0.600240,78.050003,-34.790001,-94.570000,23.91
11075,0.857904,-0.147864,0.569984,79.379997,-37.869999,-92.820000,23.91
11086,0.870104,-0.179584,0.482144,83.230003,-37.169998,-91.139999,23.94
11097,0.833016,-0.049288,0.396744,86.800003,-34.650002,-82.879997,23.94
11109,0.809104,0.079056,0.298656,85.540001,-30.100000,-70.070000,23.93
11120,0.788120,0.256200,0.222040,71.470001,-24.080000,-53.759998,23.93
11131,0.774944,0.368928,0.224480,47.740002,-14.630000,-37.939999,23.95
11142,0.767624,0.517280,0.263520,10.710000,-3.640000,-14.700000,23.95
11153,0.764208,0.524600,0.304512,-16.450001,8.050000,7.840000,23.88
11164,0.772016,0.519720,0.340136,-43.470001,16.520000,28.910000,23.88
11175,0.781288,0.409432,0.350872,-57.400002,25.760000,44.240002,23.88
11186,0.787144,0.312808,0.385032,-60.689999,31.010000,59.009998,23.90
11197,0.815448,0.206424,0.449448,-59.709999,33.040001,69.230003,23.90
11208,0.837408,0.141032,0.500200,-58.169998,34.160000,74.129997,23.95
11219,0.875960,0.097600,0.545584,-62.090000,32.130001,80.500000,23.91
11230,0.888160,-0.011224,0.579744,-65.239998,29.260000,83.089996,23.91
11241,0.891576,-0.022448,0.563152,-67.269997,23.379999,84.139999,23.93
11252,0.917440,-0.141520,0.581208,-68.809998,21.770000,80.639999,23.93
11263,0.862296,-0.284016,0.619272,-66.360001,18.410000,70.839996,23.92
11274,0.838872,-0.460672,0.639280,-56.070000,12.880000,56.840000,23.91
11285,0.847656,-0.552416,0.640256,-39.900002,5.040000,42.980000,23.91
11296,0.860344,-0.635864,0.629032,-25.129999,-1.330000,22.750000,23.91
11307,0.869616,-0.672952,0.599752,-2.170000,-6.440000,0.630000,23.91
11318,0.864248,-0.653432,0.569008,20.020000,-11.760000,-34.509998,23.93
11329,0.871568,-0.581208,0.566080,34.720001,-15.400000,-35.070000,23.91
11340,0.857904,-0.540704,0.581696,45.849998,-20.230000,-50.820000,23.91
11351,0.856928,-0.466040,0.600728,61.880001,-24.150000,-64.750000,23.98
11362,0.864736,-0.381616,0.619272,80.360001,-28.629999,-73.570000,23.98
11373,0.877424,-0.295728,0.623664,102.410004,-31.290001,-83.370003,23.93
11384,0.877424,-0.194224,0.627568,122.570000,-36.119999,-87.639999,23.93
11396,0.878888,-0.056608,0.573888,128.100006,-36.049999,-85.889999,23.91
11408,0.872056,-0.056608,0.493856,124.739998,-36.540001,-81.410004,23.91
11419,0.869128,-0.047336,0.346480,118.650002,-33.250000,-70.279999,23.91
11430,0.807640,-0.003416,0.269864,105.629997,-30.520000,-56.560001,23.92
11441,0.759328,0.227408,0.240584,71.610001,-26.110001,-41.230000,23.96
11452,0.772016,0.407968,0.225944,31.990000,-15.750000,-20.860001,23.96
11463,0.765672,0.489464,0.270352,-14.560000,-6.300000,-0.210000,23.92
11474,0.781776,0.520696,0.293776,-57.540001,4.410000,34.580002,23.92
11485,0.813496,0.492392,0.316712,-87.919998,16.100000,37.380001,23.96
11496,0.812520,0.354776,0.340136,-98.559998,25.059999,54.180000,23.96
11508,0.822280,0.300608,0.380640,-99.050003,29.610001,67.269997,23.90
11518,0.854000,0.243024,0.432368,-95.410004,31.920000,75.459999,23.88
11529,0.875472,0.196664,0.475312,-89.879997,31.780001,82.180000,23.88
11541,0.903288,0.089792,0.508496,-87.010002,31.010000,85.680000,23.94
11551,0.903288,-0.005368,0.550464,-81.690002,29.120001,84.699997,23.94
11563,0.890112,-0.120536,0.576816,-77.070000,26.389999,79.029999,23.95
11574,0.870592,-0.265960,0.589016,-72.309998,22.750000,71.610001,23.93
11585,0.859368,-0.443592,0.592432,-59.150002,17.430000,58.099998,23.93
11596,0.850096,-0.613904,0.608048,-42.349998,10.220000,40.669998,23.96
11607,0.856928,-0.704672,0.616344,-17.500000,4.480000,21.559999,23.96
11618,0.854976,-0.741760,0.617320,8.260000,-2.800000,5.460000,23.91
11630,0.848144,-0.640744,0.622688,24.290001,-8.680000,-15.330000,23.92
11640,0.852536,-0.525088,0.619272,26.879999,-11.830000,-32.619999,23.92
11651,0.851072,-0.516304,0.613416,32.270000,-14.350000,-47.459999,23.93
11663,0.842288,-0.472384,0.629520,46.200001,-19.879999,-58.029999,23.93
11674,0.843752,-0.406992,0.635864,65.870003,-24.780001,-68.879997,23.90
11686,0.873032,-0.360144,0.619272,94.779999,-27.510000,-79.660004,23.96
11697,0.880352,-0.169336,0.632936,109.830002,-29.120001,-83.860001,23.96
11708,0.880840,-0.092232,0.569984,111.790001,-27.510000,-83.300003,23.89
11719,0.887184,-0.190808,0.468480,114.660004,-24.990000,-81.339996,23.89
11730,0.825696,-0.129320,0.423584,115.989998,-27.510000,-75.949997,23.94
11741,0.786168,0.134200,0.326472,90.580002,-25.900000,-60.480000,23.91
11752,0.784704,0.290360,0.266936,65.239998,-17.709999,-44.590000,23.91
11763,0.765184,0.401136,0.265960,24.920000,-9.450000,-26.180000,23.93
11774,0.748592,0.482144,0.300120,-15.540000,-0.070000,-9.240000,23.93
11786,0.742736,0.518744,0.337208,-53.060001,10.150000,12.180000,23.89
11797,0.762744,0.465552,0.343552,-73.709999,20.790001,32.060001,23.95
11808,0.765672,0.419680,0.349896,-87.989998,27.299999,46.270000,23.95
11819,0.796416,0.246928,0.336232,-82.459999,34.720001,59.919998,23.95
11830,0.808616,0.215696,0.407480,-77.070000,37.520000,71.610001,23.95
11840,0.826184,0.118096,0.497760,-75.250000,39.759998,78.750000,23.94
11851,0.840824,0.013176,0.567056,-71.120003,37.450001,82.529999,23.93
11862,0.862784,-0.073688,0.661728,-74.830002,34.650002,84.209999,23.93
11873,0.879864,-0.194712,0.696864,-80.849998,30.240000,81.059998,23.93
11884,0.906216,-0.310856,0.692960,-82.879997,23.379999,78.470001,23.93
11895,0.908656,-0.395280,0.659288,-80.430000,16.870001,70.209999,23.95
11906,0.894504,-0.443592,0.616832,-75.949997,12.950000,58.520000,23.95
11917,0.870104,-0.507520,0.579256,-64.470001,8.470000,46.200001,23.93
11928,0.856440,-0.587064,0.572424,-42.419998,4.200000,28.980000,23.94
11939,0.838384,-0.684176,0.578280,-16.030001,-1.400000,6.860000,23.94
11950,0.847168,-0.665632,0.589992,12.810000,-4.620000,-14.980000,23.94
11961,0.835944,-0.671976,0.597312,36.820000,-8.960000,-30.940001,23.94
11972,0.841800,-0.518744,0.627568,48.299999,-14.140000,-47.110001,23.94
11984,0.836920,-0.436272,0.647576,55.230000,-18.480000,-60.970001,23.91
11995,0.828624,-0.329400,0.655872,66.290001,-22.469999,-72.730003,23.91
12006,0.845704,-0.273768,0.646600,87.430000,-25.129999,-82.809998,23.95
12017,0.868640,-0.222528,0.630496,118.019997,-26.110001,-88.900002,23.95
12029,0.858880,-0.164456,0.609024,155.679993,-27.299999,-94.290001,23.95
12040,0.868640,-0.061976,0.571936,179.759995,-27.930000,-96.040001,23.91
12051,0.861320,0.185928,0.508008,173.110001,-29.260000,-84.699997,23.91
12062,0.848632,0.101504,0.405040,146.720001,-23.590000,-77.000000,23.97
12073,0.764696,-0.013176,0.317200,124.739998,-18.340000,-66.500000,23.97
12084,0.694424,0.046848,0.259128,99.330002,-17.850000,-47.320000,23.94
12095,0.679296,0.346480,0.213744,38.779999,-11.830000,-22.400000,23.93
12106,0.703208,0.474824,0.231312,-30.309999,-1.610000,3.500000,23.93
12117,0.718336,0.596824,0.285968,-88.970001,9.590000,23.870001,23.94
12128,0.756888,0.578280,0.364048,-124.669998,20.580000,47.810001,23.94
12139,0.771040,0.385520,0.431880,-149.169998,27.299999,66.919998,23.91
12150,0.780312,0.176656,0.529968,-149.940002,27.860001,78.050003,23.91
12161,0.831064,0.106872,0.632448,-143.009995,25.200001,85.750000,23.91
12172,0.873032,0.088328,0.693448,-132.720001,23.450001,89.389999,23.87
12183,0.929640,0.050752,0.676368,-123.620003,18.969999,89.949997,23.87
12194,0.950136,0.001464,0.658800,-113.680000,14.840000,89.320000,23.91
12204,0.935496,-0.024400,0.557296,-102.059998,14.070000,84.209999,23.91
12215,0.889624,-0.137616,0.494344,-87.220001,13.650000,73.919998,23.94
12226,0.843264,-0.368928,0.462136,-70.559998,12.950000,57.330002,23.90
12237,0.817888,-0.640744,0.490928,-29.469999,8.890000,35.770000,23.90
12248,0.827648,-0.741272,0.551440,11.200000,2.240000,16.309999,23.95
12259,0.850096,-0.785680,0.592920,42.279999,-2.870000,-7.140000,23.95
12270,0.836432,-0.630984,0.636352,53.830002,-9.170000,-27.790001,23.95
12281,0.863760,-0.547048,0.662704,52.290001,-12.670000,-43.470001,24.00
12292,0.836432,-0.499712,0.675392,56.700001,-16.660000,-56.279999,24.00
12304,0.820328,-0.386984,0.680760,65.309998,-23.520000,-68.809998,23.98
12315,0.861808,-0.332328,0.673440,78.540001,-25.270000,-79.449997,23.98
12326,0.874984,-0.299144,0.636352,108.570000,-27.440001,-88.410004,23.98
12337,0.882792,-0.238144,0.595360,146.929993,-28.629999,-95.410004,23.93
12349,0.880840,-0.021960,0.562176,161.839996,-31.150000,-90.790001,23.93
12360,0.888160,0.051728,0.513864,148.190002,-28.000000,-84.139999,23.94
12371,0.855464,-0.040504,0.405040,135.520004,-23.030001,-73.709999,23.94
12382,0.746152,-0.015616,0.319152,108.709999,-21.910000,-62.230000,23.93
12393,0.683688,0.109800,0.278648,65.660004,-21.070000,-42.700001,23.95
12404,0.691008,0.418704,0.260592,-1.330000,-12.670000,-18.900000,23.95
12415,0.697352,0.587552,0.285480,-55.860001,-1.470000,6.300000,23.93
12426,0.747616,0.472872,0.296704,-105.839996,10.360000,27.510000,23.93
12437,0.770552,0.358680,0.327936,-126.000000,19.670000,43.750000,23.95
12448,0.773968,0.320128,0.446032,-138.250000,23.799999,63.000000,23.95
12459,0.790072,0.227408,0.560224,-145.389999,27.299999,76.370003,23.94
12470,0.825208,0.101992,0.647088,-132.369995,27.580000,80.779999,23.92
12481,0.880352,0.023912,0.671000,-113.190002,23.240000,83.650002,23.92
12492,0.919392,0.000488,0.676856,-101.919998,18.340000,86.660004,23.94
12503,0.937936,0.093208,0.656848,-99.260002,15.050000,85.959999,23.94
12514,0.910608,0.002440,0.622200,-103.040001,17.080000,81.620003,23.95
12525,0.840336,-0.196664,0.566568,-74.550003,14.560000,70.139999,23.97
12536,0.819840,-0.496784,0.517768,-61.110001,11.410000,51.730000,23.97
12547,0.819352,-0.651480,0.534848,-19.879999,6.370000,35.000000,23.91
12558,0.828624,-0.805200,0.561200,20.930000,-0.910000,11.060000,23.91
12569,0.858392,-0.769088,0.582672,42.490002,-6.440000,-13.370000,23.98
12580,0.863760,-0.654408,0.609512,48.650002,-10.290000,-33.880001,23.96
12592,0.848632,-0.522648,0.659288,38.990002,-15.190000,-49.910000,23.96
12602,0.828624,-0.435784,0.672952,32.970001,-18.410000,-59.990002,23.95
12613,0.823256,-0.398208,0.663192,42.560001,-22.120001,-72.309998,23.95
12624,0.840336,-0.315736,0.647576,67.339996,-24.850000,-81.339996,23.96
12636,0.875960,-0.255224,0.630008,105.349998,-26.459999,-89.879997,23.94
12647,0.915976,-0.226920,0.586576,155.539993,-25.760000,-100.099998,23.94
12658,0.918904,-0.170312,0.594872,198.589996,-27.020000,-105.419998,23.99
12669,0.906216,0.047824,0.502640,211.750000,-27.930000,-98.559998,23.99
12680,0.852536,-0.064904,0.421144,193.270004,-24.360001,-91.000000,23.93
12692,0.735904,-0.061488,0.351360,161.490005,-22.540001,-79.379997,23.91
12702,0.639768,0.137128,0.263032,102.620003,-21.629999,-54.810001,23.91
12713,0.624640,0.462136,0.204960,36.820000,-16.730000,-23.379999,23.95
12725,0.629520,0.676856,0.266448,-50.259998,-7.420000,7.140000,23.95
12736,0.696864,0.668560,0.284016,-117.599998,7.630000,27.230000,23.98
12747,0.729072,0.603656,0.380640,-155.330002,15.400000,53.410000,23.98
12758,0.763232,0.355264,0.474336,-179.759995,20.020000,73.360001,23.95
12768,0.798856,0.253760,0.621224,-182.279999,20.160000,84.769997,23.92
12779,0.850096,0.054656,0.706136,-171.990005,17.990000,91.559998,23.92
12790,0.891576,-0.069784,0.787632,-144.899994,11.760000,91.559998,23.96
12801,0.967216,-0.033672,0.793488,-120.959999,2.450000,90.230003,23.96
12812,0.974048,0.143960,0.750056,-116.760002,-3.220000,89.739998,23.95
12823,0.945744,0.096136,0.588040,-112.839996,0.420000,81.199997,23.90
12834,0.885232,-0.029280,0.400648,-97.019997,2.660000,66.500000,23.90
12845,0.823744,-0.380640,0.302560,-51.660000,2.940000,47.880001,23.95
12856,0.835456,-0.671000,0.293288,-0.840000,0.560000,22.260000,23.95
12867,0.839848,-0.771040,0.399184,57.119999,-2.870000,-2.240000,23.98
12878,0.845216,-0.656360,0.500688,87.639999,-8.330000,-19.459999,23.94
12889,0.866200,-0.511424,0.613416,89.599998,-11.620000,-35.139999,23.94
12900,0.867664,-0.411872,0.647576,85.050003,-13.790000,-48.930000,23.94
12911,0.816912,-0.339160,0.642696,85.610001,-18.200001,-60.759998,23.94
12923,0.852048,-0.252784,0.592432,101.430000,-19.879999,-67.620003,23.96
12934,0.885720,-0.211792,0.542656,133.770004,-19.110001,-75.879997,23.91
12945,0.918416,-0.163480,0.497760,166.529999,-15.400000,-83.650002,23.91
12956,0.902800,-0.060024,0.481656,195.580002,-14.910000,-84.139999,23.91
12966,0.888648,0.068808,0.512400,196.559998,-17.080000,-76.930000,23.91
12977,0.852048,-0.069784,0.426024,167.789993,-5.950000,-71.260002,23.92
12988,0.763720,-0.320128,0.335256,143.149994,-3.990000,-57.330002,23.92
12999,0.622688,0.000488,0.283528,77.279999,-14.000000,-36.820000,23.93
13010,0.687104,0.290848,0.218136,-19.600000,-3.710000,-9.030000,23.90
13021,0.674416,0.510936,0.321592,-90.370003,2.730000,17.219999,23.90
13033,0.719800,0.569984,0.484584,-166.529999,9.800000,42.279999,23.99
13045,0.786656,0.379176,0.611952,-209.020004,15.330000,64.260002,23.99
13056,0.847168,0.277672,0.747128,-223.089996,14.490000,73.639999,23.91
13067,0.907192,0.054168,0.786168,-208.949997,15.050000,79.730003,23.95
13077,0.933544,-0.030256,0.832040,-179.619995,7.350000,80.709999,23.95
13088,1.003328,0.112728,0.768112,-146.580002,0.700000,81.410004,23.92
13099,0.971608,0.337208,0.686616,-126.279999,0.630000,81.550003,23.92
13110,0.891576,0.223992,0.486536,-103.599998,1.400000,73.779999,23.93
13122,0.840824,-0.125416,0.288408,-56.840000,2.170000,57.540001,23.95
13133,0.883280,-0.547048,0.197152,2.730000,5.180000,34.720001,23.95
13144,0.831064,-0.655384,0.344040,54.250000,1.890000,15.190000,23.99
13155,0.856440,-0.660752,0.505080,88.480003,-0.490000,-5.530000,23.99
13168,0.835944,-0.486048,0.672952,65.660004,-6.720000,-25.200001,23.92
13179,0.873032,-0.434320,0.703696,49.560001,-8.960000,-33.880001,23.97
13190,0.835944,-0.399184,0.661240,47.599998,-11.270000,-47.040001,23.97
13201,0.865712,-0.305488,0.565592,63.840000,-13.230000,-57.470001,23.96
13212,0.902800,-0.208376,0.509472,92.820000,-11.970000,-65.940002,23.96
13223,0.930616,-0.268400,0.482144,140.699997,-10.500000,-76.160004,23.95
13234,0.947696,-0.313784,0.482144,198.940002,-7.280000,-90.720001,23.95
13246,0.914512,-0.208376,0.508496,239.889999,-6.160000,-96.040001,23.95
13257,0.852048,-0.085888,0.585600,247.660004,-2.520000,-87.779999,23.95
13268,0.791048,-0.305488,0.591456,225.539993,-1.050000,-85.959999,23.95
13278,0.654408,-0.086376,0.451400,182.699997,-10.710000,-62.090000,23.95
13289,0.618784,0.264496,0.224968,86.519997,-11.830000,-36.049999,23.92
13300,0.630496,0.393816,0.156160,-20.090000,-3.990000,-11.270000,23.92
13311,0.646600,0.516304,0.251808,-111.160004,1.890000,14.210000,23.95
13323,0.688080,0.663192,0.430416,-181.369995,6.440000,44.169998,23.95
13333,0.755912,0.406992,0.574864,-230.089996,11.830000,63.700001,23.94
13344,0.824720,0.149816,0.738832,-235.970001,11.060000,73.360001,23.94
13355,0.881816,0.063928,0.877912,-229.320007,7.140000,79.730003,23.94
13366,0.948672,0.121024,0.911584,-202.860001,4.340000,78.260002,23.95
13377,1.018456,0.005856,0.917440,-170.309998,-3.780000,78.190002,23.95
13388,0.996496,0.327448,0.791048,-144.339996,-7.700000,77.629997,23.96
13399,0.945744,0.372344,0.536312,-119.559998,-4.970000,72.379997,23.96
13410,0.874496,0.179096,0.264008,-75.389999,-0.560000,62.299999,23.99
13422,0.868640,-0.257176,0.118584,-16.730000,5.110000,42.419998,23.90
13433,0.839848,-0.602680,0.204960,36.889999,2.240000,22.049999,23.90
13443,0.850584,-0.673440,0.446520,79.169998,-0.700000,1.050000,23.93
13454,0.819352,-0.567056,0.635864,82.320000,-6.580000,-15.260000,23.93
13466,0.857416,-0.458232,0.702232,57.470001,-9.940000,-29.469999,23.96
13476,0.845216,-0.314272,0.711504,37.660000,-11.410000,-39.410000,23.90
13488,0.835944,-0.184464,0.667096,21.490000,-9.380000,-47.950001,23.90
13499,0.806176,-0.183976,0.616832,29.260000,-11.970000,-53.410000,23.95
13510,0.871568,-0.189344,0.563640,62.860001,-12.810000,-58.520000,23.95
13521,0.917928,-0.278648,0.537776,105.070000,-11.340000,-69.300003,24.02
13532,0.947208,-0.325984,0.536312,166.250000,-10.500000,-84.279999,24.00
13543,0.928664,-0.281088,0.551440,222.250000,-10.570000,-89.809998,24.00
13554,0.904264,-0.073688,0.565592,238.770004,-7.420000,-89.949997,23.98
13565,0.805200,-0.041480,0.501176,215.110001,-4.690000,-79.519997,23.98
13577,0.732000,-0.237656,0.426024,178.289993,-7.350000,-68.529999,23.98
13588,0.641232,-0.013176,0.379664,110.250000,-12.390000,-49.910000,23.94
13598,0.638304,0.328912,0.314272,13.370000,-12.180000,-21.070000,23.94
13609,0.661728,0.567544,0.284504,-59.919998,-6.790000,6.440000,23.96
13620,0.715896,0.668072,0.379176,-137.199997,0.840000,28.629999,23.96
13632,0.767136,0.527040,0.470920,-186.550003,7.700000,44.450001,23.97
13642,0.813984,0.207400,0.520696,-198.520004,11.760000,56.279999,23.97
13653,0.822280,-0.028304,0.647088,-184.660004,9.800000,64.260002,23.97
13664,0.861808,0.059048,0.723216,-165.759995,5.110000,69.370003,23.95
13675,0.928176,0.049288,0.754448,-138.600006,1.470000,70.699997,23.95
13686,0.959896,0.167872,0.732488,-121.519997,-3.500000,70.000000,23.95
13697,0.977952,0.248392,0.634888,-100.519997,-4.970000,71.330002,23.95
13708,0.985760,0.304512,0.532408,-87.989998,0.490000,68.599998,23.98
13719,0.912560,0.170800,0.421144,-79.379997,7.560000,61.599998,23.95
13730,0.855952,-0.135664,0.349408,-52.990002,8.190000,49.910000,23.95
13741,0.845704,-0.344040,0.368928,-14.630000,6.300000,38.430000,23.96
13752,0.844728,-0.509472,0.435784,23.799999,2.870000,23.100000,23.96
13763,0.841312,-0.561200,0.528992,45.709999,-1.820000,5.950000,23.95
13774,0.842776,-0.480192,0.586576,52.779999,-4.270000,-6.370000,23.96
13785,0.850584,-0.323544,0.618784,37.099998,-7.210000,-17.990000,23.96
13796,0.839848,-0.231312,0.642696,21.209999,-6.160000,-26.809999,24.00
13807,0.804712,-0.226920,0.628544,15.820000,-7.980000,-34.020000,24.00
13819,0.819352,-0.197640,0.573888,33.389999,-10.430000,-40.459999,23.95
13830,0.857904,-0.174216,0.552416,61.599998,-10.780000,-46.200001,23.96
13841,0.890600,-0.223992,0.558272,93.940002,-10.990000,-54.880001,23.96
13852,0.916464,-0.240096,0.544608,137.970001,-10.290000,-64.959999,23.95
13863,0.922808,-0.233752,0.579256,172.759995,-9.030000,-70.839996,23.95
13874,0.890112,-0.111752,0.579744,181.089996,-10.710000,-69.510002,23.94
13885,0.809592,-0.078568,0.541192,164.710007,-11.340000,-59.080002,23.94
13896,0.773480,-0.243024,0.514840,131.250000,-10.080000,-54.389999,23.89
13907,0.698328,-0.148840,0.482144,93.449997,-15.680000,-41.509998,23.96
13918,0.693448,0.254736,0.458232,18.900000,-16.100000,-20.090000,23.96
13929,0.738832,0.219112,0.390400,-35.770000,-6.790000,-3.920000,23.95
13941,0.716872,0.367952,0.415776,-91.629997,-4.830000,15.750000,23.95
13951,0.792512,0.386008,0.460184,-142.869995,1.540000,29.680000,23.95
13962,0.814472,0.221064,0.508984,-159.110001,7.420000,42.139999,23.94
13973,0.837408,0.114680,0.563640,-152.669998,9.240000,51.029999,23.94
13984,0.863272,0.147376,0.644648,-140.350006,7.490000,58.240002,23.96
13995,0.930616,0.064416,0.637328,-123.760002,6.930000,59.570000,23.96
14006,0.939400,0.141032,0.640744,-106.750000,2.940000,64.260002,23.99
14017,0.939888,0.125416,0.599264,-91.769997,4.270000,64.120003,23.93
14028,0.899384,0.229848,0.543144,-76.860001,7.770000,59.290001,23.93
14039,0.853024,0.105896,0.476776,-64.680000,10.780000,51.939999,23.97
14050,0.834480,-0.172752,0.414312,-34.369999,10.990000,40.250000,23.97
14061,0.844728,-0.368928,0.414800,5.320000,8.260000,27.580000,23.98
14072,0.854488,-0.485072,0.456280,29.400000,6.440000,11.620000,23.98
14083,0.845704,-0.426512,0.536800,45.990002,2.450000,-4.060000,23.94
14093,0.854488,-0.320128,0.625128,36.049999,-0.070000,-13.370000,23.98
14104,0.845704,-0.235216,0.660752,23.799999,-1.260000,-23.379999,23.98
14115,0.831064,-0.242048,0.669048,21.910000,-2.450000,-33.250000,23.95
14126,0.827160,-0.263032,0.658312,41.090000,-6.930000,-40.810001,23.95
14137,0.871080,-0.264496,0.639280,73.290001,-11.620000,-49.840000,23.95
14148,0.914512,-0.287432,0.607072,104.510002,-12.810000,-61.389999,23.96
14159,0.936960,-0.314760,0.583648,149.449997,-14.420000,-73.779999,23.96
14170,0.922320,-0.254248,0.568032,190.610001,-15.820000,-77.699997,23.95
14182,0.893040,-0.110288,0.557296,209.020004,-14.490000,-77.000000,23.95
14193,0.827160,-0.042456,0.577304,199.710007,-16.799999,-70.559998,23.94
14204,0.774944,-0.230824,0.520696,166.600006,-16.100000,-60.970001,23.91
14215,0.700768,-0.071248,0.477752,119.070000,-20.230000,-48.580002,23.91
14226,0.682712,0.234240,0.419680,60.130001,-22.260000,-26.809999,23.94
14237,0.719800,0.426024,0.368440,-21.980000,-17.360001,-3.990000,23.94
14248,0.761280,0.404064,0.336232,-83.160004,-8.050000,13.930000,23.94
14259,0.763720,0.383080,0.400648,-124.949997,-3.570000,28.209999,24.00
14270,0.811544,0.259128,0.454328,-140.490005,1.400000,41.930000,24.00
14281,0.831552,0.184952,0.528992,-138.880005,3.500000,53.759998,23.89
14291,0.835456,0.228872,0.612440,-130.339996,2.590000,60.689999,23.89
14302,0.875472,0.276208,0.680272,-122.080002,1.330000,68.040001,23.94
14313,0.912072,0.274256,0.715408,-111.790001,0.980000,71.540001,23.94
14324,0.942816,0.211304,0.646600,-90.790001,0.140000,74.129997,23.96
14335,0.924760,0.306952,0.578280,-80.500000,0.280000,74.199997,23.93
14346,0.927688,0.224968,0.510448,-78.470001,4.340000,69.370003,23.93
14357,0.871080,0.067832,0.476288,-69.230003,6.510000,64.470001,23.95
14368,0.841312,-0.226432,0.456768,-51.310001,5.950000,53.130001,23.95
14379,0.834480,-0.423096,0.474824,-15.470000,1.890000,39.130001,23.97
14390,0.857904,-0.507032,0.502640,15.260000,-2.590000,27.860001,23.94
14401,0.862784,-0.532896,0.537288,33.320000,-6.370000,12.950000,23.94
14412,0.859368,-0.448472,0.579744,35.980000,-9.870000,-2.100000,23.96
14423,0.866200,-0.301096,0.583648,20.719999,-10.150000,-13.580000,23.96
14435,0.860344,-0.321592,0.561200,11.480000,-8.820000,-23.379999,23.98
14446,0.849608,-0.306464,0.536312,18.340000,-9.590000,-32.060001,23.94
14457,0.835456,-0.279136,0.512888,36.470001,-11.690000,-43.259998,23.94
14467,0.854976,-0.227896,0.508496,65.239998,-12.040000,-53.060001,23.94
14478,0.888160,-0.217648,0.542656,100.730003,-11.550000,-61.669998,23.94
14489,0.920856,-0.243024,0.569496,136.990005,-11.620000,-71.820000,24.00
14501,0.930128,-0.203008,0.616344,156.940002,-13.930000,-77.419998,24.00
14511,0.914024,-0.126880,0.582184,159.809998,-17.500000,-78.959999,24.00
14522,0.851560,-0.132736,0.523136,141.399994,-13.650000,-73.360001,23.94
14533,0.784216,-0.304512,0.490928,124.459999,-13.580000,-70.209999,23.94
14544,0.705160,-0.070760,0.441152,100.309998,-17.990000,-55.650002,23.98
14556,0.721264,0.228872,0.300608,45.009998,-15.890000,-21.139999,23.98
14567,0.716384,0.444080,0.267424,-20.510000,-7.140000,-18.410000,23.94
14578,0.752008,0.423584,0.279136,-60.200001,2.800000,-1.610000,23.96
14589,0.749080,0.503128,0.355264,-99.330002,6.720000,18.900000,23.96
14600,0.796904,0.398208,0.444080,-126.910004,13.720000,35.000000,23.97
14612,0.806176,0.235216,0.527040,-125.510002,15.890000,44.520000,23.97
14622,0.834968,0.279136,0.600728,-116.129997,13.370000,54.459999,23.94
14633,0.884256,0.272792,0.670512,-111.440002,13.720000,60.689999,23.95
14644,0.903288,0.268888,0.640256,-105.279999,9.660000,65.029999,23.95
14656,0.960872,0.261568,0.613904,-105.769997,9.870000,70.839996,24.02
14666,0.937936,0.236680,0.553880,-103.949997,10.780000,69.790001,24.02
14677,0.912560,0.182512,0.508008,-98.769997,12.460000,66.150002,23.96
14688,0.877912,0.008296,0.480192,-84.699997,14.000000,59.990002,23.94
14699,0.847168,-0.193248,0.496784,-66.430000,12.390000,49.209999,23.94
14710,0.828136,-0.366488,0.515328,-34.020000,8.120000,35.910000,23.93
14721,0.842288,-0.439688,0.523624,-1.400000,4.760000,21.490000,23.93
14732,0.836920,-0.456280,0.532408,22.540001,0.840000,8.960000,23.91
14743,0.848144,-0.308904,0.556808,24.570000,-0.140000,-3.850000,23.91
14754,0.855464,-0.267912,0.578768,18.200001,1.050000,-14.000000,23.91
14765,0.838384,-0.305000,0.581208,22.190001,-1.750000,-21.980000,23.96
14776,0.848632,-0.285968,0.578768,32.130001,-4.410000,-31.150000,23.96
14788,0.855952,-0.288896,0.575840,50.049999,-5.880000,-40.669998,23.99
14799,0.878888,-0.332328,0.580232,78.959999,-7.770000,-49.700001,23.99
14810,0.894016,-0.321104,0.579744,115.010002,-9.450000,-62.860001,23.97
14821,0.915488,-0.276208,0.578280,145.809998,-9.030000,-70.139999,23.92
14832,0.871080,-0.021960,0.597312,140.630005,-12.250000,-66.779999,23.92
14844,0.860344,0.042456,0.555344,114.730003,-9.940000,-60.619999,23.94
14855,0.824720,-0.075640,0.473360,96.180000,-6.650000,-56.980000,23.94
14865,0.766648,-0.173240,0.404552,93.239998,-2.380000,-52.290001,23.95
14876,0.708576,-0.045872,0.414312,81.690002,-5.460000,-40.669998,23.95
14888,0.694424,0.210328,0.481656,37.799999,-4.480000,-21.559999,23.95
14898,0.713456,0.370392,0.508008,-21.840000,0.630000,-6.440000,23.95
14909,0.736880,0.322568,0.522648,-57.119999,5.600000,9.240000,23.95
14920,0.751032,0.285480,0.513376,-83.510002,9.310000,25.270000,23.98
14931,0.800320,0.201056,0.520696,-90.370003,11.970000,34.720001,23.99
14942,0.812032,0.113704,0.544608,-82.320000,12.670000,41.790001,23.99
14953,0.839360,0.114192,0.584624,-74.410004,11.690000,48.580002,23.93
14964,0.873520,0.173728,0.631960,-65.029999,9.870000,54.389999,23.93
14975,0.904264,0.235704,0.671976,-71.610001,7.000000,58.799999,23.96
14986,0.933056,0.167872,0.684664,-84.349998,7.350000,61.040001,23.96
14997,0.932080,0.061976,0.696376,-85.959999,5.810000,59.080002,23.99
15008,0.920368,0.022448,0.680760,-86.309998,5.110000,55.160000,23.99
15019,0.889624,-0.081984,0.645624,-79.800003,2.450000,47.180000,23.99
15030,0.885232,-0.177632,0.585600,-68.669998,0.350000,37.730000,23.98
15041,0.864736,-0.278160,0.544120,-39.410000,-2.170000,25.830000,23.98
15052,0.849120,-0.342088,0.516304,-3.220000,-6.090000,14.000000,23.97
15064,0.860344,-0.312320,0.511912,24.150000,-7.490000,1.400000,23.96
15075,0.833992,-0.218624,0.508008,38.500000,-8.820000,-10.710000,23.96
15086,0.848632,-0.193248,0.582184,38.779999,-7.350000,-18.340000,23.97
15097,0.813008,-0.217160,0.649528,49.490002,-9.450000,-27.790001,23.97
15108,0.815936,-0.213744,0.688080,63.840000,-13.790000,-34.930000,23.97
15119,0.850584,-0.238144,0.693936,78.750000,-14.350000,-44.450001,23.97
15130,0.871080,-0.236192,0.668072,100.940002,-15.680000,-51.169998,23.97
15141,0.868640,-0.154696,0.641720,109.900002,-19.809999,-52.500000,23.98
15152,0.884256,-0.123952,0.578768,104.720001,-19.180000,-52.360001,23.98
15163,0.846192,-0.155672,0.524112,93.309998,-16.870001,-49.840000,23.98
15174,0.823744,-0.343552,0.421144,87.010002,-12.740000,-48.299999,23.97
15185,0.740784,-0.324032,0.307440,75.809998,-12.880000,-41.439999,23.97
15196,0.716872,0.028304,0.297192,28.840000,-14.560000,-24.780001,23.99
15207,0.739808,0.167384,0.313784,-9.590000,-6.300000,-10.430000,23.99
15218,0.737368,0.195200,0.390400,-60.480000,-0.560000,1.540000,23.98
15229,0.749080,0.183000,0.488488,-96.599998,4.760000,15.470000,24.98
15240,0.766648,0.111752,0.603168,-111.720001,6.230000,28.280001,24.03
15251,0.791536,0.154208,0.713944,-121.099998,5.250000,41.020000,23.96
15262,0.827648,0.189832,0.752008,-120.680000,4.060000,45.290001,23.96
15273,0.883768,0.195200,0.741272,-115.010002,3.010000,48.230000,23.96
15284,0.913536,0.200080,0.665632,-94.709999,2.030000,52.709999,23.96
15295,0.913048,0.229848,0.605608,-84.139999,2.100000,53.689999,23.96
15306,0.878400,0.243512,0.540704,-76.930000,3.710000,50.750000,23.98
15317,0.868640,0.074664,0.450912,-66.500000,7.700000,44.029999,23.98
15328,0.843264,-0.160064,0.393816,-32.480000,7.490000,33.040001,23.96
15339,0.854488,-0.351360,0.401624,6.370000,6.160000,18.760000,23.96
15350,0.855464,-0.415776,0.443104,29.750000,4.270000,4.270000,24.02
15361,0.843752,-0.285480,0.536800,39.060001,1.540000,-5.950000,23.93
15372,0.849120,-0.182024,0.627080,25.200001,3.150000,-15.050000,23.93
15383,0.817400,-0.272304,0.666120,28.000000,0.350000,-25.270000,23.99
15394,0.814960,-0.252296,0.680760,37.029999,-3.990000,-35.209999,23.99
15405,0.853512,-0.245952,0.654408,54.880001,-6.790000,-43.610001,23.98
15416,0.887184,-0.283528,0.635864,84.699997,-9.520000,-50.889999,23.93
15427,0.912560,-0.303048,0.605120,116.199997,-10.990000,-63.349998,23.93
15438,0.918416,-0.225456,0.588040,151.550003,-12.180000,-70.559998,23.96
15450,0.889624,0.025376,0.589016,153.440002,-17.709999,-63.770000,23.96
15460,0.874008,-0.056608,0.522160,126.559998,-12.180000,-59.220001,24.04
15471,0.793488,-0.318664,0.469456,90.440002,-9.870000,-57.259998,24.04
15483,0.725656,-0.184464,0.427976,92.260002,-16.940001,-44.380001,23.95
15494,0.714432,0.208376,0.395768,32.270000,-14.700000,-25.200001,24.02
15505,0.762744,0.157136,0.365512,-23.590000,-4.550000,-14.700000,24.02
15516,0.739320,0.243024,0.427000,-65.239998,-3.360000,1.470000,24.00
15527,0.777384,0.352336,0.554368,-99.820000,-0.210000,20.299999,24.00
15538,0.801296,0.244000,0.661728,-124.949997,3.220000,32.130001,24.00
15549,0.836432,0.061488,0.721264,-121.800003,1.890000,39.480000,23.92
15560,0.856928,0.103944,0.752496,-112.000000,-4.410000,46.619999,23.92
15571,0.931592,0.113216,0.758840,-96.180000,-8.610000,50.119999,24.00
15582,0.975512,0.226920,0.683688,-85.050003,-9.310000,51.169998,24.00
15593,0.956480,0.421144,0.666608,-95.339996,-7.140000,57.470001,23.96
15604,0.887184,0.357704,0.577304,-98.139999,-1.820000,53.549999,23.97
15615,0.873032,0.109800,0.438224,-81.620003,1.540000,45.360001,23.97
15627,0.850096,-0.237656,0.344040,-37.310001,2.940000,29.820000,24.00
15639,0.854000,-0.398208,0.328912,17.709999,-0.350000,12.320000,24.00
15650,0.849120,-0.353800,0.417240,51.099998,-1.400000,-2.660000,23.99
15661,0.835944,-0.260592,0.522160,59.290001,-2.590000,-12.810000,23.95
15672,0.848144,-0.224968,0.607560,57.400002,-1.960000,-22.680000,23.95
15684,0.819352,-0.226920,0.636840,54.810001,-3.010000,-31.290001,23.94
15695,0.815936,-0.167384,0.633912,58.099998,-5.390000,-38.290001,23.94
15706,0.841312,-0.084424,0.615856,60.619999,-6.650000,-41.020000,23.99
15717,0.857904,-0.136640,0.612928,77.419998,-5.670000,-47.880001,23.97
15727,0.876448,-0.202032,0.572912,105.910004,-6.090000,-57.750000,23.97
15738,0.889624,-0.185440,0.561688,139.300003,-7.280000,-62.090000,23.97
15749,0.884256,-0.102480,0.549488,149.729996,-10.010000,-62.299999,23.97
15760,0.903288,-0.242048,0.422120,156.240005,-2.940000,-65.449997,23.98
15772,0.795440,-0.210328,0.379176,154.630005,-4.760000,-60.200001,23.91
15783,0.736392,-0.118096,0.365024,112.070000,-7.000000,-51.240002,23.91
15794,0.685640,0.171288,0.405528,32.970001,-8.120000,-29.400000,23.99
15805,0.679296,0.313296,0.480680,-27.510000,-3.360000,-9.100000,23.99
15816,0.700768,0.335744,0.529480,-82.389999,-1.260000,7.000000,23.97
15827,0.749568,0.384544,0.535824,-117.879997,1.750000,20.930000,24.01
15838,0.791048,0.226920,0.560224,-134.119995,4.200000,31.990000,24.01
15849,0.817888,0.201544,0.606584,-140.979996,4.200000,43.400002,23.98
15860,0.859856,0.111752,0.649040,-139.860001,4.340000,48.580002,23.98
15871,0.884256,0.187880,0.670024,-133.070007,-0.070000,55.020000,24.00
15882,0.955016,0.213256,0.656360,-120.400002,-0.070000,56.840000,23.97
15893,0.958920,0.328424,0.639768,-113.959999,1.540000,57.330002,23.97
15904,0.932080,0.317200,0.556320,-101.290001,3.990000,55.369999,23.94
15915,0.884256,0.264496,0.479704,-83.019997,7.840000,51.869999,23.94
15926,0.869128,-0.010736,0.370392,-60.830002,13.370000,40.599998,24.02
15937,0.861320,-0.278160,0.344528,-12.530000,12.110000,26.459999,24.02
15948,0.848632,-0.389424,0.424560,29.469999,8.260000,15.610000,23.97
15959,0.849608,-0.427000,0.545096,50.470001,4.830000,1.610000,23.95
15970,0.832040,-0.250344,0.661728,51.310001,1.120000,-10.850000,23.95
15981,0.841800,-0.178120,0.683688,31.709999,1.120000,-19.459999,24.00
15993,0.833016,-0.113216,0.688080,14.840000,-1.400000,-23.590000,24.00
16004,0.818376,-0.080520,0.689056,8.400000,-2.450000,-27.930000,23.97
16014,0.812520,-0.089304,0.670512,17.639999,-5.390000,-33.040001,23.99
16026,0.850096,-0.117608,0.642696,43.680000,-8.120000,-39.549999,23.99
16038,0.885720,-0.166896,0.649040,83.510002,-9.940000,-48.650002,23.96
16049,0.911096,-0.213256,0.603656,131.320007,-11.690000,-58.590000,23.96
16059,0.923784,-0.232776,0.577792,188.229996,-10.850000,-67.900002,23.98
16071,0.906704,-0.126880,0.531920,202.369995,-10.360000,-67.550003,23.95
16082,0.810568,-0.074176,0.507032,186.199997,-10.010000,-61.110001,23.95
16093,0.742736,-0.057096,0.530944,141.050003,-14.630000,-49.419998,24.02
16104,0.700768,0.126392,0.558272,71.540001,-18.549999,-30.730000,24.02
16115,0.713944,0.227408,0.532896,13.860000,-15.120000,-12.670000,24.01
16126,0.741272,0.273768,0.467016,-45.080002,-13.440000,2.240000,23.99
16137,0.797880,0.260104,0.411384,-81.760002,-8.820000,13.580000,23.99
16148,0.813496,0.215696,0.456280,-106.330002,-5.390000,25.830000,24.00
16159,0.836432,0.203984,0.588528,-119.839996,-3.920000,38.009998,24.00
16170,0.853512,0.178120,0.704184,-121.099998,-4.970000,46.900002,23.98
16181,0.884744,0.228384,0.731512,-116.410004,-7.980000,52.849998,23.98
16193,0.968680,0.095160,0.686128,-94.290001,-7.350000,52.220001,23.98
16204,0.952088,0.227896,0.660752,-75.250000,-11.620000,56.419998,23.98
16214,0.942328,0.345992,0.586088,-66.080002,-9.310000,56.209999,23.98
16226,0.889624,0.409920,0.389912,-64.889999,-5.040000,54.740002,23.95
16237,0.871568,0.198616,0.405528,-62.580002,2.240000,46.060001,23.95
16247,0.849120,-0.154208,0.340624,-31.010000,3.500000,32.410000,24.02
16258,0.846192,-0.335744,0.385520,13.440000,0.350000,20.719999,23.97
16269,0.842288,-0.378688,0.458232,44.099998,-3.430000,5.880000,23.97
16281,0.833992,-0.224480,0.554368,47.180000,-6.510000,-6.230000,23.99
16292,0.841312,-0.132736,0.601216,32.759998,-5.180000,-15.260000,23.99
16303,0.828136,-0.123464,0.602192,19.110001,-4.760000,-21.910000,23.96
16314,0.813496,-0.020984,0.622200,6.790000,-7.420000,-24.430000,23.97
16325,0.811056,-0.014152,0.603168,1.120000,-7.630000,-27.230000,23.97
16337,0.824720,-0.031232,0.556320,12.600000,-7.840000,-31.780001,23.93
16348,0.859368,-0.086376,0.551440,41.369999,-8.190000,-39.340000,23.93
16359,0.901824,-0.148352,0.531432,80.779999,-9.310000,-46.410000,24.01
16370,0.918416,-0.155672,0.536800,110.110001,-9.800000,-55.580002,23.96
16381,0.920856,-0.190808,0.488488,125.370003,-7.210000,-60.130001,23.96
16392,0.871568,-0.176168,0.439688,129.289993,-6.160000,-55.580002,23.99
16403,0.793976,-0.212280,0.398696,104.720001,-5.110000,-51.169998,23.99
16414,0.738832,-0.241072,0.360144,64.400002,-6.720000,-40.180000,23.96
16425,0.700768,0.096624,0.402112,14.770000,-10.500000,-20.020000,23.97
16437,0.746640,0.255712,0.407480,-54.320000,-4.410000,-1.890000,23.97
16448,0.760792,0.290360,0.485560,-103.879997,-2.240000,10.570000,23.94
16459,0.797880,0.267424,0.581208,-133.699997,1.470000,23.240000,23.94
16470,0.833016,0.117608,0.677832,-142.169998,3.080000,32.549999,23.95
16481,0.844728,0.225944,0.732976,-135.869995,-0.560000,41.160000,24.01
16491,0.908168,0.217648,0.713456,-129.500000,-2.100000,45.990002,24.01
16503,0.970144,0.218624,0.683200,-116.339996,-1.050000,46.619999,23.96
16513,0.934520,0.360144,0.649040,-104.720001,-3.290000,52.150002,23.96
16524,0.896456,0.431880,0.589992,-94.709999,-0.070000,51.660000,23.98
16535,0.862784,0.307928,0.485560,-77.839996,4.340000,46.759998,23.98
16546,0.855952,-0.002928,0.357216,-50.189999,7.770000,35.560001,23.99
16557,0.854000,-0.245464,0.303536,-0.630000,6.650000,21.840000,23.95
16568,0.856440,-0.336232,0.367464,36.540001,5.670000,10.710000,23.95
16579,0.840336,-0.287432,0.490440,49.490002,2.240000,-3.850000,24.02
16590,0.844240,-0.156160,0.588528,40.389999,2.030000,-13.860000,24.02
16602,0.855464,-0.140544,0.635376,26.320000,2.520000,-35.840000,24.02
16613,0.801784,-0.177632,0.652456,27.440001,0.560000,-27.020000,23.96
16624,0.816424,-0.091744,0.666608,34.090000,-3.290000,-31.920000,23.96
16635,0.849608,-0.124928,0.651480,54.389999,-4.340000,-38.080002,23.99
16646,0.871568,-0.184952,0.621712,95.339996,-7.560000,-46.410000,23.99
16657,0.911096,-0.191784,0.579256,141.610001,-9.310000,-56.980000,24.01
16668,0.919880,-0.153720,0.563640,171.080002,-9.730000,-63.349998,23.94
16680,0.908656,-0.025376,0.496784,175.910004,-8.960000,-59.779999,23.94
16691,0.850096,-0.131760,0.445056,150.500000,-7.350000,-53.689999,24.01
16702,0.777384,-0.187880,0.416264,116.480003,-8.120000,-44.240002,24.01
16713,0.706624,-0.010248,0.413824,56.770000,-13.090000,-28.629999,23.95
16724,0.736880,0.195688,0.421632,-18.200001,-7.840000,-9.800000,23.97
16736,0.746152,0.192272,0.469944,-63.349998,-6.160000,6.020000,23.97
16746,0.779824,0.339160,0.545584,-114.379997,-4.480000,26.740000,24.00
16758,0.828624,0.298656,0.649040,-144.899994,-0.490000,36.889999,24.00
16769,0.854976,0.174216,0.719800,-126.209999,-0.980000,43.959999,24.00
16780,0.893040,0.236192,0.798368,-137.830002,-3.640000,55.369999,23.96
16790,0.941352,0.251320,0.746640,-120.330002,-2.940000,62.020000,23.96
16802,0.952576,0.453352,0.708576,-108.290001,-7.420000,71.750000,23.99
16812,0.923296,0.722728,0.600728,-112.419998,-0.700000,73.570000,23.99
16824,0.881328,0.470920,0.372344,-108.639999,9.240000,66.360001,24.00
16834,0.828136,0.032208,0.232288,-54.389999,12.180000,53.970001,24.03
16846,0.846680,-0.355264,0.222528,9.660000,10.850000,36.189999,24.03
16857,0.842288,-0.483608,0.393816,45.290001,7.350000,20.719999,23.99
16868,0.833504,-0.431392,0.590968,57.049999,3.850000,5.880000,23.99
16879,0.826184,-0.423096,0.675392,45.500000,-0.420000,-5.040000,23.95
16890,0.821304,-0.307440,0.681248,27.790001,-5.880000,-18.059999,23.95
16901,0.848632,-0.197152,0.643672,-2.310000,-5.180000,-24.570000,23.95
16912,0.832040,-0.148840,0.593896,-16.450001,-4.410000,-27.510000,23.92
16923,0.816424,-0.009760,0.551928,-12.880000,-4.690000,-29.820000,23.92
16934,0.822280,0.045872,0.541680,1.820000,-3.570000,-32.900002,23.98
16945,0.848632,-0.035624,0.537776,28.070000,-4.340000,-37.380001,23.98
16957,0.871568,-0.118096,0.556808,76.860001,-6.790000,-45.360001,24.01
16968,0.921344,-0.185440,0.590480,132.369995,-8.050000,-56.560001,23.95
16979,0.921344,-0.192760,0.622688,181.440002,-7.140000,-66.290001,23.95
16990,0.891576,-0.066368,0.649528,203.210007,-8.330000,-66.849998,23.97
17001,0.825696,0.065880,0.610000,184.869995,-11.270000,-56.070000,23.97
17012,0.776408,-0.056120,0.536800,140.279999,-7.630000,-50.049999,24.01
17023,0.715408,-0.189832,0.472384,96.949997,-13.090000,-37.799999,24.02
17034,0.710528,0.197640,0.404552,42.910000,-16.379999,-13.510000,24.02
17045,0.746152,0.430904,0.374784,-35.349998,-13.160000,7.560000,23.97
17056,0.807152,0.395280,0.407480,-90.230003,-6.020000,19.040001,23.97
17067,0.827648,0.381616,0.467504,-126.000000,-2.030000,31.850000,24.01
17079,0.853512,0.266448,0.538264,-140.839996,2.240000,43.400002,23.98
17089,0.878400,0.105408,0.624152,-143.779999,2.800000,50.680000,23.98
17100,0.881328,0.146400,0.673440,-135.520004,-0.980000,56.419998,24.02
17112,0.928176,0.218136,0.668560,-126.489998,-2.450000,60.060001,24.02
17123,0.976000,0.127368,0.630496,-106.959999,-4.550000,59.150002,24.01
17134,0.963312,0.311344,0.575840,-93.379997,-5.740000,61.320000,23.97
17145,0.944280,0.299144,0.505568,-86.029999,0.140000,57.889999,23.97
17156,0.903776,0.163480,0.425048,-70.070000,4.130000,52.639999,23.93
17167,0.864248,-0.079056,0.383080,-48.650002,5.390000,42.910000,23.93
17178,0.854488,-0.309392,0.382592,-9.870000,3.430000,31.500000,23.99
17189,0.859856,-0.408456,0.418216,26.110001,-0.350000,16.730000,23.99
17200,0.857416,-0.330864,0.487024,41.720001,-2.800000,2.170000,23.97
17211,0.857416,-0.189344,0.547048,42.700001,-4.550000,-8.820000,23.96
17222,0.843264,-0.128344,0.569984,34.090000,-3.220000,-15.820000,23.96
17233,0.828624,-0.125416,0.586576,34.230000,-3.500000,-24.850000,23.96
17244,0.834480,-0.136152,0.595360,46.130001,-6.510000,-32.689999,23.96
17255,0.848632,-0.206424,0.594384,72.800003,-7.840000,-42.700001,24.02
17266,0.890600,-0.270352,0.589504,112.489998,-9.380000,-51.869999,23.99
17277,0.912072,-0.245952,0.608536,149.660004,-10.150000,-64.260002,23.99
17289,0.887672,-0.031232,0.621712,153.580002,-13.090000,-63.139999,24.00
17300,0.891576,-0.181048,0.519720,133.979996,-6.090000,-61.180000,24.00
17311,0.813984,-0.454816,0.449448,125.019997,-3.150000,-60.410000,24.00
17322,0.705648,-0.348432,0.370392,96.599998,-11.200000,-45.990002,23.98
17333,0.706136,0.149816,0.344040,22.889999,-14.490000,-22.330000,23.98
17344,0.741760,0.305976,0.409432,-38.220001,-8.470000,-3.220000,24.00
17355,0.752008,0.522160,0.539728,-108.919998,-5.390000,14.700000,24.00
17366,0.780312,0.435784,0.624152,-155.539993,0.770000,32.619999,24.00
17377,0.816912,0.253272,0.691984,-160.440002,2.380000,45.150002,24.01
17388,0.852536,0.220576,0.758840,-155.750000,1.960000,51.029999,24.01
17399,0.892064,0.131760,0.698328,-137.619995,1.960000,54.459999,23.97
17410,0.926224,0.176656,0.679784,-112.279999,-3.640000,61.250000,23.97
17421,0.947208,0.345992,0.601216,-89.669998,-2.450000,63.490002,24.00
17433,0.883280,0.301584,0.509472,-70.000000,-1.050000,59.360001,24.02
17444,0.883768,0.218624,0.377712,-50.610001,3.220000,51.029999,24.02
17455,0.853512,-0.024888,0.257176,-20.299999,6.930000,40.180000,23.98
17466,0.852048,-0.143472,0.274256,6.160000,8.820000,25.410000,23.98
17477,0.854000,-0.250344,0.360632,23.379999,10.080000,10.500000,24.00
17488,0.848144,-0.325984,0.464088,41.509998,9.030000,-17.709999,24.00
17499,0.849608,-0.386008,0.527040,63.209999,5.250000,-15.610000,24.00
17510,0.859368,-0.274744,0.582184,72.519997,2.100000,-27.510000,24.00
17522,0.856928,-0.295728,0.601704,90.089996,-1.330000,-40.320000,24.00
17533,0.860832,-0.239120,0.612440,115.220001,-3.430000,-53.270000,24.00
17544,0.872544,-0.212768,0.610488,138.389999,-6.860000,-60.549999,24.00
17555,0.879864,-0.124440,0.634888,151.339996,-10.080000,-66.639999,24.00
17566,0.864736,0.015128,0.623176,140.279999,-10.080000,-68.320000,24.01
17577,0.876448,-0.147864,0.475800,124.809998,-1.680000,-63.560001,24.01
17588,0.766648,-0.304512,0.448472,102.760002,-3.290000,-59.500000,23.97
17599,0.673928,-0.226920,0.427488,64.750000,-11.270000,-43.470001,23.97
17611,0.670512,0.221064,0.415776,13.160000,-11.760000,-21.280001,23.98
17622,0.690520,0.318176,0.514352,-53.619999,-7.000000,-5.040000,24.00
17633,0.741272,0.447984,0.605608,-109.059998,-3.500000,13.650000,24.00
17644,0.809592,0.397232,0.613416,-138.250000,1.750000,24.780001,24.00
17655,0.857416,0.261080,0.609024,-141.889999,6.510000,36.259998,24.00
17666,0.899872,0.124928,0.659288,-135.729996,7.140000,43.049999,24.01
17677,0.884256,0.149328,0.663680,-119.699997,4.690000,49.560001,23.99
17688,0.946232,0.181536,0.647088,-97.580002,3.780000,52.990002,23.99
17699,0.929152,0.269376,0.606584,-83.510002,2.520000,53.689999,24.04
17710,0.930616,0.306952,0.533872,-69.860001,5.180000,49.349998,24.04
17721,0.905240,0.231312,0.456768,-56.490002,10.780000,45.500000,24.00
17732,0.842776,0.002928,0.395768,-28.209999,12.040000,32.549999,24.00
17743,0.873520,-0.154696,0.372344,-4.060000,12.810000,19.809999,24.00
17754,0.845704,-0.097600,0.460672,17.920000,13.160000,10.080000,24.02
17765,0.841312,-0.205936,0.568032,40.040001,11.550000,0.980000,24.02
17776,0.830088,-0.245464,0.691984,59.849998,6.370000,-13.860000,24.01
17788,0.831552,-0.258152,0.780312,89.809998,-0.910000,-26.740000,24.00
17799,0.860344,-0.310856,0.805200,116.550003,-7.840000,-40.880001,24.00
17811,0.889136,-0.308416,0.770552,151.550003,-13.930000,-54.599998,24.02
17822,0.928176,-0.240584,0.735904,172.339996,-18.760000,-62.090000,24.02
17833,0.913048,-0.098576,0.600728,159.529999,-19.600000,-60.689999,24.02
17845,0.862784,-0.358680,0.528504,137.899994,-14.630000,-62.720001,24.00
17856,0.747616,-0.354776,0.453352,114.099998,-21.139999,-51.520000,24.00
17867,0.708088,0.077104,0.443592,64.190002,-27.160000,-32.200001,24.03
17878,0.726144,0.274744,0.449448,-10.360000,-20.510000,-13.300000,24.03
17889,0.727120,0.326472,0.483608,-63.630001,-17.080000,16.030001,24.00
17900,0.755424,0.383568,0.495320,-98.489998,-11.830000,18.129999,24.00
17911,0.775920,0.390888,0.507520,-115.220001,-6.650000,33.320000,24.00
17922,0.720288,0.296216,0.488000,-119.000000,-3.570000,40.459999,24.00
17934,0.732000,0.266936,0.466040,-108.919998,-0.210000,43.540001,24.00
17945,0.783240,0.337208,0.461160,-101.290001,6.860000,45.990002,24.00
17956,0.764696,0.264496,0.509472,-88.550003,12.320000,46.759998,24.01
17968,0.724192,0.209352,0.554368,-73.220001,12.390000,42.419998,24.01
17978,0.712480,0.127856,0.534360,-43.189999,12.320000,37.380001,24.03
17989,0.731512,0.102480,0.477752,-18.200001,12.250000,34.299999,24.03
18000,0.742736,0.001952,0.418704,16.030001,13.440000,26.459999,23.99
18011,0.751520,0.122976,0.424560,3.640000,14.000000,19.530001,24.04
18022,0.749568,-0.040016,0.462136,1.680000,17.709999,13.510000,24.04
18033,0.750056,-0.187392,0.537288,15.470000,15.050000,3.010000,24.00
18045,0.774944,-0.195200,0.608048,25.549999,10.850000,-7.630000,24.00
18056,0.849608,-0.222040,0.648552,35.209999,8.820000,-19.950001,24.00
18067,0.910120,-0.278648,0.696376,46.200001,5.880000,-28.070000,23.92
18077,0.988688,-0.277184,0.681736,52.849998,0.210000,-35.560001,23.92
18088,1.118008,-0.385520,0.632448,59.430000,-1.680000,-41.580002,24.01
18099,1.185352,-0.315736,0.629032,63.139999,-6.090000,-45.430000,24.01
18111,1.195600,-0.331840,0.590480,62.509998,-5.180000,-50.049999,24.01
18122,1.118008,-0.290848,0.624152,59.779999,-7.700000,-50.259998,24.01
18133,1.042368,-0.075152,0.698328,43.330002,-11.340000,-43.889999,24.02
18144,0.983808,0.097600,0.744688,10.500000,-12.810000,-34.860001,24.00
18155,0.906216,0.176656,0.775432,-15.820000,-14.000000,-24.850000,24.00
18165,0.859368,0.307928,0.799344,-33.950001,-16.030001,-14.280000,23.98
18177,0.833016,0.302072,0.688568,-46.830002,-15.680000,-5.460000,23.98
18188,0.816912,0.316224,0.575352,-48.720001,-14.490000,5.530000,24.04
18199,0.803736,0.336720,0.525088,-51.169998,-12.180000,15.470000,23.98
18210,0.769576,0.368928,0.543144,-54.110001,-12.110000,26.530001,23.98
18221,0.777872,0.363560,0.560224,-60.060001,-10.500000,37.660000,24.01
18232,0.759328,0.376248,0.591944,-62.160000,-12.040000,45.360001,24.01
18243,0.774944,0.290360,0.585112,-64.330002,-11.900000,50.889999,24.01
18254,0.776896,0.186904,0.567544,-65.449997,-14.280000,52.080002,24.02
18265,0.782264,0.122488,0.489464,-65.379997,-16.170000,51.939999,24.02
18277,0.790072,0.136152,0.402600,-62.369999,-16.100000,46.480000,24.00
18289,0.769088,0.095160,0.344040,-57.820000,-10.850000,35.349998,24.00
18300,0.751032,0.031232,0.307440,-35.279999,-7.560000,24.150000,24.00
18311,0.772992,-0.076128,0.280112,1.120000,-5.040000,14.140000,24.02
18322,0.787632,-0.255712,0.371856,39.480000,-3.710000,-2.170000,24.02
18333,0.809104,-0.423584,0.493856,101.570000,-8.820000,-20.790001,24.00
18344,0.866200,-0.397720,0.580720,151.970001,-13.440000,-41.369999,24.00
18356,0.924760,-0.440176,0.620248,192.919998,-16.590000,-56.770000,24.02
18367,0.916464,-0.234240,0.681248,208.460007,-22.540001,-68.389999,23.96
18378,0.929152,0.145912,0.669536,166.460007,-19.110001,-64.610001,23.96
18389,0.937448,-0.329400,0.451888,114.940002,-4.970000,-66.360001,24.01
18400,0.759816,-0.650992,0.301096,103.599998,-4.480000,-57.330002,24.01
18411,0.683688,-0.084912,0.269864,46.830002,-15.260000,-35.700001,24.03
18423,0.739320,0.252784,0.369904,-30.309999,-8.050000,-13.300000,24.01
18434,0.758352,0.574376,0.573400,-105.839996,-4.900000,9.520000,24.01
18446,0.826672,0.536800,0.692960,-151.899994,4.620000,30.730000,24.02
18457,0.991128,0.357216,0.773968,-169.889999,5.880000,44.380001,24.02
18468,0.918904,0.255712,0.855952,-167.509995,6.930000,52.150002,23.99
18479,0.905728,0.159576,0.864736,-143.990005,7.210000,50.680000,23.95
18490,0.945744,0.087840,0.793976,-112.910004,-2.590000,55.020000,23.95
18501,0.965264,0.312320,0.689544,-82.459999,-5.460000,57.540001,23.95
18512,0.917928,0.251808,0.540216,-58.380001,-0.980000,48.020000,23.95
18522,0.856928,0.144448,0.357216,-35.490002,0.070000,38.150002,24.02
18533,0.872056,-0.038064,0.277184,-3.850000,5.180000,28.700001,23.97
18544,0.862784,-0.161040,0.326960,30.940001,8.470000,15.050000,23.97
18555,0.834968,-0.241560,0.475800,56.630001,6.930000,0.840000,24.05
18566,0.839848,-0.358192,0.629032,87.779999,5.250000,-16.240000,24.05
18577,0.829600,-0.462624,0.691984,134.190002,-2.730000,-31.219999,24.01
18588,0.882792,-0.413336,0.711016,168.070007,-7.770000,-48.650002,24.01
18599,0.922808,-0.353312,0.679784,205.169998,-9.310000,-64.400002,23.96
18610,0.902312,-0.121024,0.697840,208.250000,-16.450001,-63.910000,24.03
18622,0.932080,0.041968,0.580232,162.399994,-14.910000,-62.509998,24.03
18633,0.822768,-0.166408,0.474824,118.790001,-11.480000,-56.630001,24.02
18643,0.735416,-0.374784,0.388448,84.139999,-12.040000,-49.770000,24.02
18655,0.684176,-0.142496,0.259616,27.510000,-15.820000,-34.650002,24.05
18666,0.659288,0.127368,0.246928,-42.700001,-12.460000,-12.320000,23.98
18677,0.690032,0.419680,0.388448,-101.010002,-9.660000,9.240000,23.98
18688,0.744688,0.470920,0.474824,-158.830002,0.000000,29.049999,24.05
18698,0.748104,0.368440,0.509960,-167.720001,5.110000,44.660000,24.05
18709,0.783240,0.462624,0.586088,-166.809998,6.300000,58.450001,24.00
18720,0.772992,0.414800,0.612928,-164.850006,10.220000,66.989998,23.96
18731,0.775432,0.244000,0.642208,-138.809998,9.450000,67.199997,23.96
18742,0.772504,0.348920,0.573888,-118.510002,12.320000,65.239998,24.02
18753,0.738344,0.310856,0.486048,-95.410004,17.709999,59.779999,24.02
18764,0.711992,0.273280,0.385520,-67.970001,21.070000,54.459999,24.01
18775,0.691496,0.041480,0.297680,-33.459999,23.870001,40.950001,24.00
18787,0.798368,0.020008,0.299144,-15.260000,29.820000,29.049999,24.00
18798,0.832528,-0.385032,0.390888,7.980000,32.619999,14.840000,24.01
18808,0.885232,-0.515328,0.543632,44.869999,28.980000,0.000000,24.01
18819,0.987712,-0.570960,0.664656,70.699997,22.959999,-21.700001,24.00
18831,1.026752,-0.590480,0.734928,92.120003,15.890000,-41.439999,24.00
18841,1.068232,-0.489952,0.780312,112.070000,10.080000,-57.049999,24.00
18853,1.080920,-0.349896,0.781776,126.349998,5.950000,-68.110001,23.99
18864,1.046272,-0.210816,0.767136,139.020004,0.980000,-78.820000,23.99
18874,1.030168,-0.034160,0.698328,136.639999,-1.120000,-80.010002,23.99
18886,0.944280,-0.109312,0.624152,114.379997,-2.170000,-72.800003,23.99
18897,0.868152,-0.067344,0.629032,93.730003,-5.460000,-65.239998,24.02
18908,0.779824,0.144936,0.654408,64.260002,-10.780000,-51.029999,24.01
18919,0.765184,0.236192,0.621712,20.790001,-9.520000,-35.840000,24.01
18930,0.723216,0.355264,0.660264,-28.770000,-11.130000,-20.299999,23.97
18941,0.744200,0.437248,0.643184,-82.389999,-10.220000,-1.190000,23.97
18952,0.779824,0.410896,0.609512,-114.029999,-7.420000,15.400000,24.03
18963,0.813496,0.283528,0.602192,-131.600006,-6.160000,28.070000,24.02
18975,0.833504,0.269376,0.609024,-131.460007,-7.420000,38.360001,24.02
18986,0.859368,0.262056,0.590480,-122.779999,-7.840000,46.410000,23.98
18997,0.868640,0.230824,0.574376,-105.070000,-8.680000,51.310001,23.98
19008,0.826184,0.315248,0.569008,-83.790001,-9.870000,54.250000,23.98
19019,0.811056,0.307440,0.536312,-72.379997,-7.420000,54.529999,23.99
19030,0.769088,0.252296,0.473848,-57.119999,-5.670000,51.099998,23.99
19041,0.747616,0.057584,0.421632,-35.770000,-3.290000,42.910000,24.05
19052,0.762744,-0.038064,0.387960,-17.219999,-3.360000,29.260000,24.05
19063,0.767136,-0.021472,0.421144,0.000000,-1.540000,17.920000,23.98
19075,0.760304,-0.075152,0.466040,28.629999,0.630000,4.900000,24.02
19086,0.748592,-0.132736,0.567056,67.620003,-1.470000,-7.210000,24.02
19097,0.795440,-0.227408,0.622200,118.440002,-7.000000,-23.590000,24.06
19108,0.858392,-0.199592,0.675392,154.350006,-9.940000,-38.570000,24.06
19120,0.885232,-0.201544,0.684664,195.720001,-12.950000,-53.060001,24.02
19131,0.923784,-0.078568,0.686128,217.000000,-16.030001,-61.529999,24.04
19142,0.861808,0.103944,0.729560,184.240005,-18.969999,-55.580002,24.04
19152,0.889624,-0.204472,0.628056,147.070007,-13.930000,-55.439999,24.02
19164,0.787144,-0.337696,0.452376,115.709999,-10.850000,-45.220001,24.02
19175,0.671000,-0.113216,0.436272,63.279999,-19.530001,-29.680000,24.03
19186,0.716872,0.259128,0.414800,-19.530001,-17.570000,-9.240000,24.02
19197,0.769576,0.265472,0.421632,-84.699997,-8.750000,9.730000,24.02
19208,0.797880,0.333792,0.573888,-123.830002,-8.050000,28.700001,24.02
19219,0.820816,0.302072,0.723216,-151.059998,-6.370000,43.470001,24.02
19230,0.865224,0.354776,0.775920,-162.820007,-5.670000,53.549999,24.03
19241,0.925736,0.323544,0.744200,-164.500000,-4.760000,62.650002,24.03
19253,0.988200,0.231312,0.677832,-148.119995,-3.150000,66.150002,24.00
19264,0.930616,0.405040,0.622200,-122.919998,-2.170000,65.589996,23.97
19274,0.889624,0.369416,0.542656,-96.739998,0.910000,62.860001,23.97
19286,0.828624,0.255712,0.437736,-70.699997,3.290000,52.150002,24.01
19296,0.831064,-0.033184,0.333792,-21.139999,5.740000,35.770000,24.01
19307,0.831552,-0.174704,0.336232,25.900000,5.600000,23.799999,24.02
19318,0.836432,-0.218136,0.447496,48.720001,8.190000,9.170000,23.98
19329,0.831064,-0.387960,0.582672,81.199997,5.460000,-7.770000,23.98
19340,0.813984,-0.398208,0.692960,106.750000,-1.330000,-21.420000,24.02
19351,0.828624,-0.362584,0.764696,122.919998,-6.160000,-37.380001,24.02
19362,0.854000,-0.253760,0.770064,140.210007,-7.700000,-49.700001,24.04
19373,0.868152,-0.222040,0.703696,157.919998,-11.620000,-56.840000,23.93
19384,0.872056,-0.101504,0.680272,162.539993,-17.990000,-61.740002,23.93
19396,0.872056,0.031720,0.598776,127.889999,-19.180000,-57.330002,24.03
19407,0.878400,-0.201056,0.484584,89.599998,-11.830000,-50.820000,24.03
19418,0.767136,-0.270352,0.361120,70.769997,-16.520000,-41.860001,24.02
19429,0.690520,-0.065392,0.346480,19.389999,-18.830000,-27.930000,24.02
19440,0.677832,0.177144,0.454328,-55.860001,-18.129999,-9.800000,24.02
19451,0.719800,0.431880,0.624640,-115.150002,-14.420000,11.270000,24.02
19462,0.782264,0.527528,0.678808,-170.589996,-8.050000,29.959999,24.02
19473,0.833016,0.410896,0.683688,-195.649994,-1.470000,39.549999,24.03
19484,0.877424,0.190320,0.674416,-192.570007,1.120000,47.669998,24.03
19495,0.907680,0.115168,0.638304,-172.339996,0.770000,51.450001,23.99
19506,0.930616,0.145424,0.592432,-138.809998,0.910000,51.520000,24.04
19516,0.914512,0.264008,0.563152,-109.970001,0.560000,50.470001,24.04
19527,0.881816,0.294752,0.505080,-76.160004,1.820000,47.389999,24.01
19538,0.836920,0.180560,0.436760,-41.580002,3.290000,42.349998,24.01
19549,0.832528,-0.021960,0.350384,-10.290000,3.220000,30.030001,24.05
19560,0.859368,-0.114680,0.344528,15.120000,5.880000,16.590000,24.00
19571,0.843752,-0.196664,0.405040,35.070000,7.910000,4.410000,24.00
19582,0.822280,-0.222528,0.504592,53.689999,6.300000,-8.120000,23.99
19593,0.813008,-0.215208,0.618296,69.160004,0.490000,-22.190001,23.99
19604,0.826184,-0.231800,0.686128,91.910004,-2.170000,-32.759998,24.00
19615,0.847168,-0.297192,0.707112,129.360001,-8.120000,-46.270000,23.99
19627,0.883280,-0.237168,0.706624,158.550003,-12.810000,-57.049999,23.99
19638,0.894992,0.027328,0.735416,149.029999,-20.650000,-53.549999,24.01
19649,0.895968,-0.044896,0.641232,114.099998,-17.080000,-51.520000,24.01
19660,0.838872,-0.484584,0.484096,96.599998,-10.360000,-55.790001,23.98
19671,0.705648,-0.330864,0.350384,80.010002,-19.250000,-43.259998,23.98
19682,0.694912,0.084912,0.327448,34.650002,-17.150000,-26.180000,24.00
19694,0.724192,0.219112,0.379664,-40.740002,-10.150000,-9.380000,24.06
19705,0.742248,0.326472,0.492880,-103.599998,-7.700000,11.760000,24.06
19716,0.803736,0.462624,0.572912,-150.919998,-0.350000,27.930000,23.99
19727,0.851560,0.318664,0.647576,-166.740005,7.700000,39.689999,23.99
19737,0.869616,0.225944,0.703208,-164.009995,8.120000,47.529999,24.01
19748,0.925248,0.180560,0.707112,-143.009995,7.140000,51.939999,24.02
19759,0.918904,0.322568,0.683688,-118.510002,4.830000,54.110001,24.02
19770,0.915000,0.359168,0.606584,-94.360001,7.210000,54.810001,24.01
19781,0.845704,0.293288,0.492880,-63.349998,7.490000,51.310001,24.01
19792,0.815936,0.132736,0.378200,-34.509998,7.840000,41.509998,24.06
19803,0.827648,-0.004392,0.327448,-0.350000,11.200000,26.740000,24.03
19813,0.835456,-0.152744,0.391864,29.750000,14.840000,13.860000,24.03
19824,0.790560,-0.288408,0.526552,52.290001,11.200000,-1.610000,23.96
19835,0.804712,-0.496296,0.679296,78.120003,6.650000,-18.200001,23.96
19846,0.822280,-0.364536,0.756888,107.870003,-0.910000,-30.730000,24.01
19857,0.836432,-0.309880,0.789584,131.039993,-8.190000,-45.290001,24.01
19869,0.868152,-0.260592,0.734928,161.699997,-12.740000,-57.259998,24.00
19880,0.909144,-0.113216,0.666120,181.649994,-17.010000,-63.139999,24.00
19891,0.935984,0.054656,0.614392,163.800003,-20.020000,-61.459999,24.00
19902,0.941840,0.020984,0.488000,113.959999,-11.060000,-55.790001,24.01
19913,0.837408,-0.436272,0.411384,103.669998,-6.650000,-54.040001,24.01
19924,0.683200,-0.356240,0.420656,70.419998,-17.639999,-37.520000,24.05
19935,0.711016,0.149816,0.444080,-0.840000,-17.570000,-19.250000,24.04
19946,0.737368,0.317200,0.467992,-85.120003,-13.650000,1.330000,24.04
19957,0.772992,0.489952,0.577304,-136.500000,-9.590000,23.240000,24.03
19968,0.833992,0.504104,0.642208,-176.889999,-1.610000,37.450001,24.03
19979,0.875960,0.356240,0.680760,-184.309998,3.360000,47.950001,24.02
19990,0.893528,0.241560,0.681248,-178.220001,6.580000,55.020000,24.01
20001,0.916464,0.090280,0.677344,-144.619995,5.530000,54.389999,24.01
20012,0.885720,0.196176,0.650016,-103.809998,1.960000,54.389999,23.99
20023,0.887672,0.290360,0.596824,-71.750000,3.010000,52.849998,23.99
20034,0.825208,0.268888,0.480192,-45.430000,2.660000,46.130001,24.04
20045,0.847656,0.047824,0.339648,-17.150000,7.000000,36.959999,24.01
20056,0.861808,0.067832,0.344528,8.330000,11.550000,29.540001,24.01
20067,0.849608,-0.192760,0.415776,49.840000,15.540000,14.700000,24.04
20078,0.814472,-0.377224,0.558760,77.489998,12.040000,-4.970000,24.04
20089,0.806176,-0.417240,0.678320,117.529999,1.260000,-19.600000,24.03
20100,0.870592,-0.356728,0.732976,138.460007,-3.640000,-36.680000,24.03
20111,0.891576,-0.369416,0.740296,164.360001,-6.580000,-51.939999,24.01
20122,0.891576,-0.238144,0.734928,177.449997,-12.250000,-60.270000,24.00
20133,0.908656,-0.090280,0.678320,164.360001,-16.450001,-61.669998,24.00
20144,0.886208,-0.116632,0.493368,136.289993,-10.920000,-57.259998,24.00
20155,0.791048,-0.370880,0.415288,100.589996,-11.410000,-51.660000,24.00
20166,0.711504,-0.273280,0.386984,51.310001,-17.360001,-37.590000,24.00
20177,0.683688,0.069296,0.408456,-12.810000,-16.170000,-24.150000,24.00
20189,0.691496,0.294752,0.501664,-84.279999,-13.090000,-4.760000,24.00
20200,0.722728,0.458232,0.606584,-139.440002,-8.400000,15.260000,24.03
20211,0.771528,0.447496,0.669048,-168.699997,-1.400000,32.130001,24.03
20223,0.820328,0.354776,0.708576,-180.529999,1.960000,42.910000,24.03
20234,0.854976,0.233264,0.683688,-174.089996,4.340000,47.740002,24.04
20244,0.896944,0.138104,0.665632,-151.759995,4.620000,49.139999,24.04
20255,0.883280,0.233752,0.606584,-118.160004,3.570000,48.580002,24.02
20266,0.895480,0.280112,0.540704,-87.220001,6.160000,46.549999,24.02
20277,0.825696,0.195200,0.462624,-41.509998,7.280000,39.900002,24.00
20289,0.818864,0.210328,0.378200,-29.540001,8.540000,32.060001,24.02
20300,0.819840,0.049288,0.382592,-8.820000,15.120000,22.400000,24.02
20310,0.747616,-0.066368,0.405528,36.259998,14.000000,14.560000,24.05
20321,0.788608,-0.274256,0.506544,75.879997,6.930000,1.610000,24.05
20333,0.837408,-0.368928,0.571936,121.169998,-0.630000,-16.590000,24.01
20344,0.930128,-0.411872,0.605608,153.369995,-1.960000,-36.820000,24.03
20355,0.979904,-0.459696,0.670024,176.610001,1.050000,-50.820000,24.03
20366,0.939400,-0.327448,0.745176,183.539993,-2.100000,-59.639999,24.03
20377,0.947696,-0.164456,0.681248,154.419998,-3.080000,-55.020000,24.03
20388,0.919880,-0.284016,0.653432,107.589996,-1.610000,-51.799999,24.02
20399,0.857416,-0.305488,0.676368,65.029999,-6.580000,-44.730000,24.01
20410,0.806664,0.059536,0.674416,2.450000,-10.570000,-30.870001,24.01
20422,0.788120,0.222528,0.684664,-50.540001,-9.520000,-17.920000,24.06
20433,0.756888,0.347944,0.714920,-104.019997,-8.610000,-3.500000,24.06
20444,0.731512,0.367464,0.695400,-132.369995,-7.490000,5.460000,24.03
20455,0.746640,0.352336,0.670512,-136.639999,-7.070000,16.450001,24.03
20466,0.765184,0.322080,0.650992,-133.419998,-4.620000,24.920000,24.01
20477,0.774456,0.243024,0.664656,-115.220001,-6.580000,28.700001,24.05
20488,0.800320,0.252784,0.633912,-88.620003,-8.190000,30.100000,24.05
20499,0.803248,0.279136,0.563152,-66.360001,-9.170000,31.500000,24.01
20510,0.811544,0.289872,0.521672,-47.320000,-9.240000,32.340000,24.01
20521,0.815936,0.242048,0.478240,-35.070000,-6.650000,31.990000,24.06
20532,0.814960,0.125416,0.465552,-25.410000,-4.690000,29.120001,24.02
20543,0.813984,0.000976,0.466528,-15.820000,-4.970000,22.820000,24.02
20554,0.820328,-0.005856,0.471896,-9.240000,-4.270000,17.500000,24.01
20565,0.814960,-0.067832,0.472872,0.210000,-4.970000,12.110000,24.01
20576,0.840336,0.039040,0.493856,0.630000,-4.830000,7.910000,24.02
20587,0.839360,0.020984,0.504592,3.430000,-1.890000,1.050000,23.99
20598,0.833016,-0.238144,0.553880,30.660000,-2.940000,-8.610000,23.99
20609,0.839848,-0.202032,0.567544,72.730003,-6.300000,-18.549999,24.04
20620,0.886208,-0.352336,0.575840,121.379997,-9.800000,-32.970001,24.04
20631,0.915000,-0.373320,0.581208,157.779999,-12.950000,-45.570000,24.03
20642,0.869128,-0.221064,0.644648,181.649994,-17.500000,-51.380001,24.05
20653,0.907680,-0.005368,0.589016,154.979996,-9.450000,-52.990002,24.05
20664,0.826184,-0.275720,0.454816,132.160004,-3.570000,-49.910000,24.04
20675,0.732976,-0.342576,0.427976,104.930000,-8.680000,-41.160000,24.04
20687,0.674904,0.039528,0.443104,34.580002,-15.750000,-21.209999,24.04
20698,0.691984,0.187880,0.487512,-40.110001,-12.600000,-6.860000,24.02
20709,0.719800,0.382592,0.543144,-107.099998,-10.150000,10.150000,24.02
20720,0.780800,0.288408,0.578768,-140.559998,-3.080000,26.530001,23.98
20731,0.816424,0.194712,0.642208,-149.589996,0.140000,37.169998,23.98
20742,0.833016,0.247416,0.703208,-149.520004,0.000000,45.360001,24.06
20753,0.877912,0.208376,0.738832,-142.100006,1.540000,49.209999,24.06
20764,0.900360,0.237656,0.709552,-119.070000,0.910000,53.130001,24.04
20775,0.925248,0.282064,0.654408,-89.949997,-0.700000,55.299999,24.02
20786,0.904264,0.325496,0.567056,-71.400002,2.030000,53.480000,24.02
20796,0.878888,0.183000,0.460672,-43.259998,4.690000,46.410000,24.00
20807,0.844240,0.054168,0.367464,-9.660000,5.600000,35.770000,24.00
20819,0.873520,0.009272,0.367464,9.310000,9.870000,26.110001,24.02
20829,0.854976,-0.073200,0.448960,21.280001,13.580000,13.720000,23.98
20840,0.815448,-0.340624,0.553392,59.639999,10.990000,-17.639999,23.98
20852,0.834968,-0.235704,0.668072,87.430000,3.710000,-14.140000,24.08
20863,0.865224,-0.325496,0.762256,101.779999,1.750000,-29.750000,24.08
20873,0.874008,-0.403088,0.774944,134.259995,-1.190000,-46.410000,24.02
20885,0.904752,-0.368928,0.758840,165.410004,-5.880000,-57.680000,24.02
20896,0.908656,-0.244976,0.716384,180.529999,-7.280000,-65.029999,24.02
20907,0.877424,-0.090280,0.658800,175.490005,-12.040000,-63.770000,24.07
20918,0.860832,-0.079056,0.504592,148.820007,-9.100000,-58.450001,24.07
20929,0.770552,-0.117608,0.387472,105.000000,-8.750000,-49.700001,24.07
20940,0.701744,-0.071736,0.388448,51.240002,-13.370000,-36.750000,24.07
20951,0.662704,0.190320,0.439688,-8.120000,-16.590000,-18.410000,24.03
20962,0.694912,0.305976,0.482144,-75.669998,-13.020000,-1.120000,24.00
20973,0.700768,0.387472,0.533384,-120.750000,-11.900000,16.240000,24.00
20984,0.777872,0.368928,0.563640,-148.399994,-4.060000,31.219999,24.00
20995,0.807152,0.186416,0.549976,-160.369995,3.150000,38.080002,24.00
21006,0.807152,0.093696,0.563640,-146.509995,6.510000,45.779999,24.05
21018,0.836432,0.047336,0.595848,-128.029999,6.580000,47.880001,24.03
21028,0.868152,0.077592,0.607072,-91.000000,5.810000,49.490002,24.03
21039,0.881816,0.155672,0.582184,-92.680000,5.950000,50.750000,24.04
21050,0.914024,0.113216,0.595360,-77.910004,6.300000,49.560001,24.04
21062,0.883280,0.192760,0.593408,-72.519997,6.580000,47.320000,24.00
21073,0.854976,0.056120,0.560224,-66.220001,8.750000,40.740002,24.02
21085,0.853024,-0.125416,0.537288,-44.660000,6.440000,31.150000,24.02
21096,0.848632,-0.243512,0.527528,-20.160000,4.130000,17.920000,24.04
21107,0.841312,-0.253760,0.541192,18.129999,1.470000,2.730000,24.04
21118,0.836432,-0.145424,0.564128,42.560001,-1.400000,-7.280000,24.06
21129,0.833992,-0.019032,0.640744,46.480000,-0.210000,-14.070000,23.99
21140,0.806664,-0.150304,0.726144,66.430000,-4.270000,-24.920000,23.99
21151,0.834480,-0.180072,0.780312,95.830002,-8.820000,-35.840000,24.02
21162,0.863272,-0.219600,0.782264,131.039993,-11.130000,-46.619999,24.02
21173,0.903288,-0.225456,0.770552,178.779999,-11.550000,-59.849998,24.05
21184,0.907192,-0.213256,0.725656,193.410004,-12.600000,-66.779999,24.01
21195,0.874008,0.013176,0.675880,195.649994,-20.860001,-60.270000,24.01
21206,0.907680,0.070272,0.563152,159.809998,-14.000000,-54.880001,24.04
21217,0.797880,-0.183488,0.429440,133.000000,-8.470000,-47.599998,24.04
21228,0.680272,-0.118096,0.421144,93.730003,-16.730000,-32.549999,24.06
21239,0.661240,0.150304,0.413824,18.200001,-23.450001,-19.180000,24.00
21250,0.694424,0.371368,0.409432,-58.939999,-17.709999,1.820000,24.00
21261,0.706624,0.342576,0.410408,-99.260002,-15.190000,23.030001,24.02
21272,0.746152,0.390888,0.502640,-135.589996,-12.600000,40.669998,24.02
21283,0.828136,0.293288,0.559736,-156.380005,-1.470000,50.820000,24.03
21294,0.826672,0.175680,0.595848,-160.369995,4.970000,57.259998,24.03
21305,0.801296,0.059536,0.626592,-149.240005,2.800000,58.939999,24.04
21316,0.848144,0.112240,0.634888,-131.460007,3.220000,61.250000,24.04
21327,0.895480,0.154696,0.626104,-109.830002,3.360000,61.320000,24.04
21338,0.889136,0.246440,0.608536,-92.470001,2.520000,60.130001,24.05
21349,0.870592,0.234728,0.525576,-76.019997,5.530000,56.630001,24.05
21359,0.838872,0.066368,0.455304,-59.500000,8.050000,47.110001,24.04
21370,0.835944,-0.216184,0.404064,-27.930000,8.330000,32.759998,24.04
21381,0.836432,-0.304512,0.434808,7.140000,5.250000,19.809999,24.04
21392,0.841800,-0.295240,0.505568,24.080000,3.920000,4.690000,24.03
21403,0.835456,-0.363560,0.563640,43.470001,1.330000,-10.220000,24.03
21415,0.829112,-0.201056,0.623176,57.259998,-2.170000,-21.770000,24.02
21426,0.845704,-0.203496,0.683200,63.490002,-3.290000,-30.450001,24.04
21437,0.824232,-0.243512,0.710528,84.209999,-7.350000,-42.000000,24.04
21448,0.858880,-0.220088,0.709552,125.370003,-10.010000,-54.459999,24.05
21459,0.903288,-0.229848,0.663680,137.970001,-8.610000,-67.410004,24.05
21470,0.922808,-0.202520,0.636840,169.960007,-7.700000,-73.919998,24.02
21481,0.912560,-0.133224,0.575840,195.649994,-5.880000,-77.000000,24.02
21492,0.856928,0.057096,0.515816,191.100006,-9.100000,-64.540001,24.02
21503,0.810568,0.038552,0.495808,157.360001,-10.150000,-52.919998,24.01
21515,0.745664,-0.072712,0.504104,113.330002,-9.520000,-43.959999,24.01
21526,0.661728,0.143472,0.504592,50.470001,-18.830000,-29.610001,24.04
21537,0.688568,0.411872,0.475312,-11.480000,-18.410000,-10.990000,24.04
21548,0.709064,0.452376,0.473360,-76.370003,-16.030001,9.030000,24.05
21559,0.742736,0.472872,0.506544,-119.769997,-14.070000,23.870001,24.00
21571,0.819840,0.360632,0.512888,-150.570007,-4.480000,39.619999,24.00
21582,0.817400,0.255224,0.542656,-157.009995,-1.190000,49.209999,24.03
21593,0.837896,0.220576,0.586576,-152.179993,2.170000,55.160000,24.06
21604,0.874008,0.144448,0.617808,-142.029999,4.200000,61.180000,24.06
21615,0.889624,0.154696,0.613904,-126.419998,4.480000,62.720001,24.02
21626,0.910608,0.120048,0.597800,-98.769997,4.270000,61.250000,24.02
21637,0.887184,0.216184,0.594872,-86.379997,3.290000,59.080002,24.04
21648,0.889136,0.135176,0.525088,-79.660004,6.580000,53.830002,24.04
21659,0.868152,-0.008296,0.466040,-64.750000,7.560000,47.459999,24.03
21670,0.854488,-0.181048,0.446520,-41.509998,7.140000,35.560001,24.08
21681,0.850096,-0.335744,0.464088,-17.430000,5.040000,22.750000,24.08
21692,0.839848,-0.384056,0.521184,12.950000,1.470000,8.680000,24.05
21703,0.840336,-0.291336,0.566080,26.530001,-0.910000,-2.240000,24.05
21714,0.831064,-0.190320,0.613904,28.980000,-3.360000,-13.160000,24.03
21725,0.830576,-0.127856,0.630984,25.340000,-3.220000,-20.719999,24.04
21736,0.821792,-0.201544,0.640744,35.349998,-3.780000,-27.299999,24.04
21747,0.827160,-0.229360,0.649040,59.639999,-7.420000,-36.750000,24.07
21758,0.850584,-0.157136,0.639768,81.269997,-9.240000,-47.110001,24.07
21769,0.876448,-0.116144,0.620248,106.400002,-6.790000,-57.470001,24.00
21780,0.902312,-0.167872,0.586576,141.050003,-4.410000,-63.840000,24.05
21791,0.899384,-0.138104,0.554368,168.000000,-2.730000,-68.110001,24.05
21802,0.860832,0.020496,0.550464,176.889999,-6.160000,-62.860001,24.00
21813,0.818864,0.071248,0.555832,154.559998,-5.880000,-54.320000,24.00
21824,0.754936,0.038552,0.561200,116.550003,-7.070000,-44.240002,24.06
21835,0.699792,0.033672,0.574864,79.239998,-10.150000,-32.759998,24.06
21846,0.673928,0.201056,0.560712,19.180000,-14.840000,-16.590000,24.01
21857,0.707112,0.348432,0.492392,-44.939999,-15.540000,-1.540000,24.04
21869,0.746640,0.338184,0.433832,-87.500000,-11.130000,14.980000,24.04
21880,0.793976,0.291824,0.434808,-104.930000,-6.230000,28.350000,24.03
21891,0.828624,0.252296,0.528016,-117.389999,-1.470000,40.320000,24.03
21902,0.801784,0.291824,0.615856,-133.839996,0.630000,48.580002,24.07
21913,0.838384,0.197640,0.655872,-132.440002,3.010000,56.209999,23.98
21923,0.858880,0.187880,0.678320,-125.230003,0.630000,61.250000,23.98
21934,0.932080,0.163968,0.623664,-116.129997,0.980000,62.580002,24.06
21945,0.902312,0.187392,0.611952,-103.879997,1.820000,60.759998,24.06
21956,0.893040,0.158600,0.580232,-92.470001,2.100000,56.840000,24.07
21967,0.888648,0.102968,0.521672,-77.839996,3.500000,52.360001,24.02
21978,0.866200,-0.078080,0.475800,-61.320000,4.690000,42.910000,24.02
21989,0.844240,-0.242536,0.453840,-30.520000,2.940000,30.590000,24.03
21999,0.851560,-0.352824,0.454328,2.170000,0.560000,20.020000,24.03
22010,0.847656,-0.340624,0.497760,19.600000,-1.890000,6.020000,24.07
22021,0.843752,-0.290360,0.544608,30.170000,-2.870000,-7.210000,24.07
22033,0.840336,-0.235704,0.572424,30.940001,-3.850000,-17.780001,24.02
22044,0.829112,-0.130296,0.592920,27.230000,-4.900000,-23.450001,24.03
22055,0.829112,-0.166408,0.616344,29.750000,-3.780000,-31.500000,24.03
22066,0.815936,-0.189832,0.623664,52.080002,-6.230000,-41.720001,24.07
22077,0.851560,-0.183000,0.615856,81.830002,-6.790000,-51.099998,24.07
22088,0.881816,-0.069784,0.620736,110.250000,-5.600000,-62.160000,24.07
22099,0.918416,-0.130296,0.645136,132.440002,-1.120000,-72.449997,24.05
22110,0.874008,-0.017568,0.724680,160.860001,-4.480000,-71.959999,24.05
22121,0.808616,0.211304,0.760304,139.720001,-13.790000,-64.820000,24.04
22132,0.837408,-0.023912,0.663192,119.000000,-6.930000,-64.120003,24.04
22143,0.724192,-0.063440,0.583648,109.550003,-15.330000,-54.110001,24.09
22154,0.720776,0.057096,0.447496,65.029999,-14.630000,-39.689999,24.00
22165,0.695400,0.123952,0.307440,8.400000,-12.110000,-23.730000,24.00
22176,0.704672,0.241560,0.248880,-39.759998,-9.590000,-2.100000,24.02
22187,0.721752,0.400160,0.271328,-78.120003,-5.110000,17.920000,24.02
22198,0.784704,0.413336,0.349408,-111.230003,1.470000,33.180000,24.04
22209,0.798368,0.331840,0.466528,-130.619995,8.330000,43.189999,24.04
22220,0.772992,0.219112,0.623176,-135.240005,8.050000,53.480000,24.03
22231,0.808128,0.097112,0.696864,-126.209999,9.940000,56.000000,24.02
22242,0.826184,-0.020984,0.729072,-100.870003,6.510000,58.590000,24.02
22253,0.892064,-0.030256,0.718824,-79.730003,3.150000,58.590000,24.03
22264,0.899872,0.008296,0.683688,-68.739998,-2.100000,57.470001,24.03
22275,0.936960,0.027328,0.613416,-59.919998,-3.780000,55.720001,24.02
22286,0.952088,0.003416,0.568520,-53.200001,-4.690000,52.919998,23.99
22297,0.916952,0.047336,0.530944,-50.959999,-4.200000,47.459999,23.99
22308,0.892552,0.039528,0.516304,-52.009998,-1.960000,41.580002,24.05
22319,0.844240,-0.114192,0.507520,-40.250000,0.140000,32.340000,24.05
22330,0.832528,-0.226432,0.503128,-16.590000,-2.240000,18.969999,24.03
22341,0.853024,-0.301584,0.493856,2.940000,-1.330000,4.760000,24.02
22352,0.839360,-0.284016,0.482144,30.590000,-3.500000,-8.260000,24.02
22363,0.834480,-0.156160,0.507520,44.169998,-2.730000,-16.379999,24.07
22374,0.833016,-0.187392,0.565592,57.610001,-2.100000,-26.180000,24.07
22385,0.817400,-0.235216,0.621224,82.739998,-3.080000,-38.009998,24.00
22396,0.823744,-0.278160,0.654896,117.669998,-4.690000,-48.299999,24.00
22407,0.853512,-0.260592,0.658312,153.580002,-3.780000,-61.599998,24.00
22419,0.878888,-0.209840,0.645136,178.009995,-0.770000,-71.889999,24.05
22430,0.862296,-0.070760,0.614880,195.860001,-2.030000,-72.589996,24.05
22441,0.863272,0.031720,0.493368,175.630005,-0.700000,-64.959999,24.04
22452,0.793000,-0.030256,0.407968,136.149994,1.610000,-57.540001,24.03
22463,0.719312,-0.180072,0.355752,106.400002,-0.910000,-47.389999,24.03
22474,0.623176,0.170312,0.429928,40.320000,-10.570000,-28.000000,24.05
22485,0.688568,0.307928,0.505080,-36.470001,-8.260000,-11.060000,24.05
22496,0.677344,0.387472,0.592920,-89.739998,-7.210000,10.360000,24.05
22507,0.701744,0.549488,0.697840,-122.290001,-10.080000,31.570000,24.05
22518,0.815448,0.466040,0.712480,-147.979996,-2.100000,43.680000,24.05
22529,0.819352,0.292800,0.710040,-145.949997,-0.840000,52.570000,24.05
22540,0.883280,0.264008,0.667584,-135.100006,0.280000,59.709999,24.05
22551,0.938912,0.230336,0.630984,-115.010002,0.630000,62.509998,24.06
22562,0.942328,0.247904,0.615368,-94.849998,0.000000,62.930000,24.06
22573,0.917928,0.274256,0.598288,-83.089996,0.280000,59.849998,24.05
22584,0.892552,0.188368,0.552904,-69.089996,0.630000,54.389999,24.07
22595,0.889624,0.020984,0.470920,-49.279999,3.010000,46.619999,24.07
22606,0.876448,-0.178120,0.429440,-21.700001,3.500000,35.209999,24.05
22616,0.860344,-0.349896,0.445056,3.640000,2.030000,21.070000,24.05
22627,0.839360,-0.358680,0.531432,23.379999,-2.310000,9.450000,24.07
22638,0.836920,-0.332816,0.591456,29.469999,-4.970000,-4.410000,24.07
22649,0.835456,-0.139080,0.650504,21.980000,-5.740000,-13.230000,24.06
22660,0.833504,-0.153232,0.646600,13.510000,-5.600000,-21.770000,24.02
22671,0.822280,-0.159088,0.635376,21.139999,-7.000000,-28.910000,24.02
22682,0.853512,-0.125416,0.623664,37.590000,-7.350000,-35.700001,24.03
22694,0.848144,-0.189832,0.605120,63.139999,-7.140000,-46.900002,24.03
22704,0.896944,-0.189832,0.600240,103.389999,-6.440000,-58.169998,24.05
22716,0.921344,-0.163968,0.616344,138.529999,-1.680000,-67.970001,24.04
22727,0.914512,-0.191784,0.603168,169.889999,-0.280000,-73.430000,24.04
22738,0.829600,-0.014640,0.571936,169.190002,-4.480000,-65.309998,24.05
22749,0.793000,-0.090280,0.455792,139.580002,-4.480000,-54.669998,24.05
22760,0.703208,-0.107848,0.453352,97.370003,-7.140000,-45.080002,24.08
22771,0.659288,0.081496,0.480680,35.279999,-11.060000,-28.840000,24.05
22782,0.668072,0.306952,0.481168,-14.560000,-12.040000,-9.170000,24.05
22793,0.705648,0.470920,0.459696,-76.019997,-10.080000,10.500000,24.02
22804,0.755912,0.427488,0.463600,-115.430000,-3.570000,23.520000,24.02
22815,0.775920,0.401136,0.518744,-133.910004,-0.560000,37.730000,24.09
22826,0.800808,0.249856,0.573888,-142.449997,2.310000,47.880001,24.05
22837,0.821792,0.150792,0.623664,-134.679993,5.320000,52.360001,24.05
22849,0.845704,0.089304,0.648552,-114.800003,4.830000,55.650002,24.07
22859,0.873520,0.102480,0.670512,-101.430000,3.290000,59.080002,24.07
22870,0.905240,0.058560,0.686128,-83.089996,1.540000,56.770000,24.06
22881,0.912072,0.086376,0.639280,-69.160004,-0.490000,54.040001,24.05
22892,0.916952,0.122488,0.576328,-67.269997,0.070000,51.310001,24.05
22903,0.909144,0.023912,0.489952,-64.330002,3.570000,43.680000,24.05
22914,0.864736,-0.117608,0.449936,-49.419998,3.710000,36.119999,24.05
22925,0.852048,-0.219600,0.437736,-33.669998,3.010000,24.150000,24.05
22936,0.851072,-0.306952,0.463600,-9.100000,2.520000,11.830000,24.05
22947,0.828624,-0.330864,0.524112,16.660000,0.280000,0.980000,24.06
22958,0.838872,-0.185928,0.581696,23.730000,0.420000,-10.220000,24.01
22969,0.811056,-0.123952,0.617320,29.260000,-0.350000,-18.760000,24.01
22980,0.810080,-0.065392,0.663192,33.529999,-2.450000,-24.500000,24.04
22991,0.817400,-0.098088,0.690520,44.520000,-2.800000,-31.360001,24.04
23002,0.830088,-0.196664,0.695400,70.139999,-5.950000,-42.349998,24.04
23013,0.868640,-0.245952,0.671976,109.339996,-6.090000,-52.709999,24.04
23024,0.890112,-0.236192,0.647088,148.889999,-5.670000,-60.270000,24.04
23035,0.889624,-0.177144,0.626104,177.800003,-7.280000,-64.260002,24.09
23046,0.853024,-0.054168,0.534848,165.270004,-5.810000,-54.810001,24.09
23057,0.782264,-0.132248,0.455304,129.080002,-6.860000,-48.230000,24.03
23070,0.679784,-0.093696,0.470432,72.029999,-15.260000,-34.160000,24.00
23081,0.679784,0.251320,0.500688,11.130000,-16.660000,-15.330000,24.00
23092,0.710040,0.315248,0.545584,-58.240002,-13.510000,17.150000,24.09
23103,0.737856,0.313296,0.573400,-102.690002,-9.450000,15.400000,24.09
23114,0.787632,0.311832,0.602192,-120.750000,-5.670000,29.120001,24.03
23125,0.792512,0.244976,0.625616,-130.270004,-3.780000,41.160000,24.01
23136,0.821792,0.151280,0.642208,-119.419998,-3.010000,47.110001,24.01
23147,0.859856,0.202520,0.624640,-105.699997,-1.400000,53.270000,24.05
23159,0.901336,0.166896,0.616832,-85.050003,-0.140000,54.740002,24.05
23170,0.883768,0.202520,0.583160,-70.839996,0.840000,52.990002,24.04
23181,0.886208,0.200080,0.545096,-59.360001,2.730000,49.070000,24.06
23191,0.871568,0.107848,0.497272,-50.540001,6.090000,44.029999,24.06
23202,0.851072,-0.088328,0.437248,-38.080002,7.560000,33.529999,24.08
23213,0.846192,-0.165920,0.441640,-22.120001,6.860000,22.540001,24.08
23224,0.843752,-0.278648,0.492880,-5.950000,7.000000,11.690000,24.05
23235,0.830576,-0.248880,0.549976,4.480000,5.180000,0.000000,24.05
23246,0.847656,-0.284016,0.593408,16.730000,4.060000,-11.480000,24.07
23258,0.841800,-0.261568,0.634400,31.290001,1.050000,-24.150000,24.08
23269,0.845704,-0.262544,0.643184,50.189999,-1.190000,-33.599998,24.08
23280,0.874984,-0.318176,0.630496,82.599998,-3.150000,-46.689999,24.04
23291,0.880840,-0.304512,0.625616,109.830002,-5.810000,-57.189999,24.04
23302,0.893040,-0.264984,0.627080,144.130005,-7.210000,-64.889999,24.11
23313,0.863760,-0.132248,0.625128,165.270004,-8.470000,-67.339996,24.04
23324,0.849120,-0.023912,0.578768,160.229996,-6.020000,-66.430000,24.04
23335,0.792024,0.040504,0.535824,141.259995,-5.810000,-58.730000,24.05
23346,0.755424,-0.005368,0.513376,111.580002,-6.020000,-48.439999,24.05
23358,0.677344,0.128344,0.551440,65.239998,-12.740000,-33.669998,24.07
23369,0.677344,0.334280,0.561688,0.210000,-12.460000,-18.830000,24.02
23380,0.706136,0.370880,0.543144,-51.380001,-9.240000,-1.260000,24.02
23391,0.727120,0.360144,0.510448,-80.500000,-5.110000,13.230000,24.05
23402,0.765672,0.331840,0.487024,-108.570000,-1.470000,26.670000,24.05
23413,0.799344,0.207888,0.439688,-116.269997,3.430000,34.509998,24.04
23424,0.826672,0.013664,0.431880,-101.639999,7.280000,40.529999,24.05
23435,0.824720,0.101016,0.499712,-90.650002,5.880000,48.230000,24.05
23446,0.857416,0.161040,0.593896,-91.629997,6.020000,54.110001,24.05
23457,0.892064,0.101992,0.661240,-89.739998,4.340000,56.419998,24.05
23469,0.897920,0.147864,0.711016,-87.150002,1.330000,56.840000,24.04
23480,0.916464,0.203008,0.678808,-88.410004,1.680000,54.250000,24.05
23491,0.905240,0.156160,0.607560,-88.199997,4.620000,46.130001,24.05
23501,0.867176,-0.021472,0.547536,-70.839996,5.180000,37.869999,24.06
23512,0.860344,-0.190320,0.509960,-46.619999,3.710000,27.160000,24.06
23523,0.858880,-0.302560,0.510936,-7.350000,1.050000,17.850000,24.04
23534,0.841800,-0.318664,0.532408,27.650000,-3.500000,5.320000,24.04
23545,0.846680,-0.238632,0.566080,42.840000,-4.830000,-6.300000,24.04
23556,0.835944,-0.123464,0.604632,43.330002,-5.740000,-15.330000,24.04
23569,0.821792,-0.044896,0.648064,34.860001,-4.480000,-22.049999,24.04
23580,0.821792,-0.214232,0.671976,47.880001,-5.530000,-32.759998,24.04
23591,0.820328,-0.213256,0.705160,74.129997,-9.590000,-41.369999,24.05
23602,0.860344,-0.233264,0.700768,105.349998,-10.360000,-51.869999,24.05
23613,0.884256,-0.219112,0.678320,130.899994,-9.520000,-62.369999,24.02
23624,0.888648,-0.169336,0.655384,160.580002,-8.890000,-66.849998,24.02
23635,0.859856,-0.043920,0.612440,166.740005,-9.030000,-64.050003,24.02
23646,0.810080,0.021472,0.553880,146.649994,-11.060000,-56.840000,24.06
23658,0.786168,-0.143472,0.451400,121.029999,-6.860000,-50.259998,24.06
23669,0.690520,-0.042456,0.455304,78.680000,-12.950000,-39.480000,24.05
23680,0.673440,0.151768,0.479216,27.020000,-13.930000,-22.750000,24.05
23691,0.687104,0.291824,0.498248,-36.680000,-11.480000,-4.270000,24.05
23702,0.715408,0.357216,0.511424,-90.089996,-7.840000,7.840000,24.06
23713,0.755912,0.347944,0.541680,-117.250000,-2.520000,21.280001,24.06
23724,0.778848,0.254248,0.536800,-131.600006,0.980000,30.240000,24.01
23736,0.811544,0.095160,0.539240,-123.970001,6.230000,34.369999,24.01
23746,0.809104,0.115656,0.579256,-114.099998,5.320000,40.040001,24.07
23757,0.849608,0.138592,0.607072,-104.860001,5.110000,41.230000,24.07
23769,0.880352,0.209840,0.637328,-97.650002,4.550000,43.820000,24.07
23780,0.898408,0.143472,0.650016,-88.199997,4.900000,42.419998,24.05
23791,0.888648,0.109800,0.641720,-73.779999,2.450000,39.689999,24.05
23802,0.894992,0.123952,0.614880,-66.779999,2.100000,34.580002,24.03
23813,0.887184,0.031720,0.582672,-56.910000,1.190000,27.930000,24.03
23824,0.854976,-0.023912,0.576816,-40.180000,-0.070000,20.440001,24.05
23835,0.832528,-0.131760,0.586088,-16.170000,-1.960000,12.250000,24.04
23846,0.832040,-0.178120,0.616344,2.870000,-4.620000,3.570000,24.04
23857,0.826672,-0.166408,0.652944,17.010000,-6.300000,-5.880000,24.04
23868,0.824720,-0.081008,0.677832,15.750000,-7.350000,-11.130000,24.04
23880,0.839848,-0.144936,0.649040,20.160000,-8.470000,-17.920000,24.05
23891,0.849120,-0.104920,0.625128,24.990000,-9.590000,-24.080000,24.05
23902,0.858880,-0.137616,0.593408,34.860001,-9.870000,-30.450001,24.05
23913,0.866688,-0.160552,0.584624,51.520000,-9.940000,-37.520000,24.08
23924,0.891576,-0.191296,0.549488,77.699997,-9.100000,-44.520000,24.08
23935,0.904752,-0.050264,0.575352,87.220001,-10.360000,-44.520000,24.09
23947,0.912560,-0.080520,0.534360,85.330002,-5.880000,-45.360001,24.06
23959,0.882304,-0.089304,0.502640,90.089996,-5.600000,-44.029999,24.06
23970,0.849608,-0.025864,0.488000,82.040001,-4.900000,-36.680000,24.06
23981,0.829600,-0.035624,0.479704,56.349998,-2.590000,-31.430000,24.06
23992,0.792512,-0.010248,0.496296,25.200001,-0.280000,-22.610001,24.04
24003,0.777872,0.064416,0.491904,-5.460000,2.870000,-10.850000,24.01
24014,0.764696,0.176168,0.522160,-42.070000,4.340000,3.500000,24.01
24024,0.790072,0.145912,0.504592,-73.010002,7.560000,12.460000,24.05
24035,0.778360,0.193736,0.523136,-90.930000,7.770000,25.059999,24.05
24046,0.787144,0.233752,0.594384,-115.220001,9.660000,35.980000,24.06
24056,0.799832,0.153720,0.661240,-123.550003,10.990000,44.660000,24.06
24069,0.812520,0.087840,0.713456,-118.300003,9.240000,48.720001,24.02
24080,0.843752,0.098088,0.684176,-91.000000,6.090000,52.500000,24.02
24090,0.880840,0.092232,0.624640,-94.290001,5.810000,52.220001,24.02
24101,0.859368,0.151280,0.589504,-81.339996,5.250000,51.169998,24.01
24112,0.843264,0.126392,0.528504,-71.330002,7.700000,49.419998,24.01
24123,0.807152,0.046360,0.469944,-51.099998,8.540000,43.259998,24.06
24134,0.790072,-0.102968,0.430904,-22.049999,9.310000,35.000000,24.06
24145,0.790560,-0.259616,0.430416,10.080000,8.680000,21.980000,24.06
24156,0.795928,-0.321592,0.463112,29.049999,7.770000,8.610000,24.05
24167,0.775432,-0.210816,0.564128,34.930000,6.160000,-2.940000,24.05
24179,0.788120,-0.166408,0.622200,28.559999,6.020000,-12.740000,24.03
24190,0.772992,-0.224480,0.649040,34.090000,5.180000,-21.840000,24.03
24201,0.784216,-0.233264,0.691496,48.369999,1.050000,-32.200001,24.03
24212,0.791048,-0.216672,0.714432,73.080002,-2.870000,-41.790001,24.08
24223,0.817400,-0.202520,0.709552,106.889999,-7.210000,-50.259998,24.08
24234,0.849120,-0.162016,0.704672,143.149994,-10.850000,-59.220001,24.06
24245,0.878888,-0.064416,0.613416,155.889999,-12.880000,-61.459999,24.08
24256,0.833016,0.077104,0.581208,138.460007,-13.930000,-50.889999,24.08
24267,0.791536,-0.096136,0.592432,106.260002,-14.070000,-48.650002,24.05
24278,0.712968,-0.014152,0.592920,66.919998,-18.969999,-35.209999,24.05
24289,0.721752,0.141032,0.583648,19.459999,-17.219999,-18.059999,24.08
24300,0.719800,0.188856,0.599752,-31.920000,-17.080000,-1.540000,24.05
24311,0.750056,0.327936,0.649528,-82.669998,-16.940001,11.480000,24.05
24322,0.795928,0.389912,0.690520,-117.879997,-12.110000,28.000000,24.07
24333,0.799832,0.278648,0.701256,-135.309998,-9.660000,40.110001,24.07
24344,0.832528,0.207888,0.670512,-132.649994,-9.450000,46.689999,24.08
24355,0.873032,0.136152,0.644648,-116.339996,-8.680000,51.869999,24.08
24366,0.874008,0.158600,0.608536,-96.809998,-9.450000,54.599998,24.02
24377,0.874984,0.225944,0.565592,-81.059998,-8.680000,56.910000,24.01
24388,0.847168,0.154208,0.493856,-63.279999,-5.600000,54.810001,24.01
24399,0.826184,0.075152,0.438224,-50.259998,-1.400000,49.490002,24.04
24410,0.812520,-0.156160,0.402112,-32.759998,1.680000,39.830002,24.04
24421,0.803736,-0.362584,0.426512,-5.180000,2.100000,29.330000,24.07
24432,0.803736,-0.433832,0.477264,13.930000,-0.140000,16.030001,24.01
24443,0.794464,-0.412360,0.539240,19.670000,-2.380000,1.330000,24.01
24454,0.804712,-0.161040,0.565592,11.620000,-3.290000,-9.940000,24.09
24465,0.819352,-0.264984,0.545096,2.520000,-0.140000,-17.639999,24.09
24476,0.813008,-0.236680,0.534360,8.540000,0.840000,-25.410000,24.08
24488,0.822768,-0.244976,0.549488,23.730000,1.470000,-33.180000,24.02
24499,0.820816,-0.241560,0.571448,56.000000,-0.420000,-41.580002,24.02
24510,0.860832,-0.256688,0.589992,97.930000,-3.220000,-48.930000,24.10
24521,0.889136,-0.216672,0.604144,131.809998,-5.320000,-57.540001,24.10
24532,0.917440,-0.193736,0.616832,166.529999,-6.650000,-64.120003,24.05
24543,0.895480,-0.007320,0.573400,158.130005,-8.120000,-59.009998,24.07
24554,0.867664,-0.170312,0.516304,127.190002,-2.800000,-54.459999,24.07
24565,0.753960,-0.221064,0.508008,103.879997,-8.190000,-44.029999,24.07
24576,0.727120,0.035624,0.512888,45.220001,-10.010000,-28.209999,24.07
24587,0.737368,0.182024,0.517280,-16.799999,-7.070000,-14.840000,24.05
24598,0.746152,0.327448,0.546560,-66.709999,-5.390000,2.380000,24.06
24609,0.798368,0.350872,0.598288,-102.550003,-1.050000,15.540000,24.06
24620,0.818376,0.251320,0.656360,-116.480003,1.610000,27.230000,24.04
24631,0.829112,0.235216,0.710040,-120.120003,0.140000,52.990002,24.04
24642,0.857416,0.231312,0.692472,-119.070000,-0.770000,42.490002,24.06
24653,0.889136,0.193736,0.651968,-107.800003,-1.890000,45.709999,24.06
24664,0.894504,0.190808,0.580232,-84.279999,-3.500000,46.480000,24.07
24675,0.883768,0.299632,0.531432,-67.970001,-1.400000,47.950001,24.08
24686,0.855464,0.194712,0.461648,-58.310001,3.290000,45.360001,24.08
24697,0.829600,0.026840,0.424072,-40.950001,5.950000,37.869999,24.04
24708,0.817888,-0.142496,0.416752,-19.110001,7.420000,29.400000,24.04
24719,0.809592,-0.288896,0.454328,2.450000,6.020000,17.430000,24.07
24729,0.797392,-0.285480,0.540216,20.719999,4.550000,3.850000,24.06
24740,0.787632,-0.178608,0.600240,23.379999,2.520000,-6.370000,24.06
24752,0.813008,-0.129808,0.651480,15.960000,3.640000,-12.880000,24.10
24763,0.797392,-0.176168,0.674904,21.490000,-0.490000,-19.879999,24.10
24774,0.812032,-0.180560,0.668072,32.900002,-1.890000,-27.580000,24.09
24785,0.830576,-0.225456,0.667096,57.959999,-4.830000,-33.950001,24.04
24796,0.836432,-0.221552,0.663192,88.620003,-7.910000,-42.630001,24.04
24807,0.863760,-0.225456,0.637816,115.639999,-10.150000,-51.310001,24.10
24818,0.894504,-0.189832,0.607560,145.320007,-8.820000,-59.500000,24.10
24829,0.838872,-0.036112,0.582672,144.550003,-8.470000,-54.389999,24.06
24840,0.813984,-0.110288,0.557296,112.489998,-6.790000,-46.200001,24.06
24851,0.628544,-0.152744,0.547536,90.720001,-10.290000,-35.700001,24.01
24863,0.701256,0.126392,0.572424,46.689999,-13.510000,-20.580000,24.05
24874,0.722728,0.237656,0.585600,-13.020000,-7.070000,-8.330000,24.05
24885,0.711992,0.145912,0.643184,-56.349998,-5.880000,1.400000,24.06
24896,0.758840,0.194712,0.633424,-83.860001,-4.130000,15.260000,24.06
24907,0.802760,0.136152,0.609512,-104.019997,-0.980000,26.879999,24.03
24918,0.820328,0.079544,0.622200,-102.059998,-0.070000,32.830002,24.03
24929,0.829112,0.198616,0.624152,-104.860001,-2.240000,42.560001,24.03
24940,0.885720,0.265472,0.595848,-113.050003,-0.210000,51.169998,24.08
24951,0.909632,0.261568,0.559736,-108.080002,3.990000,54.599998,24.08
24962,0.874496,0.300608,0.542168,-97.160004,7.350000,53.970001,24.09
24973,0.863272,0.186904,0.533384,-86.309998,10.220000,49.349998,24.02
24984,0.830576,-0.004880,0.536800,-58.099998,9.310000,40.950001,24.02
24995,0.851560,-0.108336,0.547048,-27.930000,7.630000,32.900002,24.06
25006,0.808128,-0.267912,0.543144,-2.240000,2.450000,17.990000,24.06
25017,0.839360,-0.189832,0.565592,14.910000,0.420000,6.510000,24.12
25028,0.837408,-0.169824,0.583648,21.840000,0.000000,-2.170000,24.04
25038,0.821792,-0.236680,0.608048,29.400000,-2.310000,-14.350000,24.04
25049,0.833016,-0.344528,0.639768,49.279999,-5.880000,-25.830000,24.09
25060,0.818864,-0.313784,0.674904,75.809998,-11.410000,-34.580002,24.09
25071,0.844728,-0.279624,0.675392,102.900002,-15.120000,-43.259998,24.04
25082,0.850584,-0.201544,0.660264,122.849998,-17.780001,-49.980000,24.04
25093,0.853512,-0.149816,0.646600,141.119995,-18.200001,-55.439999,24.07
25105,0.864736,-0.018056,0.630984,143.009995,-20.580000,-54.599998,24.07
25116,0.861320,0.186416,0.594872,101.709999,-17.920000,-45.639999,24.07
25127,0.840824,-0.086864,0.546072,69.230003,-10.780000,-38.430000,24.05
25138,0.764208,-0.168360,0.522648,53.340000,-13.440000,-28.629999,24.05
25149,0.732488,0.027328,0.492880,25.690001,-14.700000,-17.010000,24.07
25160,0.757864,0.101504,0.483608,-12.670000,-9.100000,-5.600000,24.04
25171,0.763232,0.210816,0.500200,-47.459999,-5.810000,8.820000,24.04
25182,0.789096,0.182024,0.505080,-81.900002,-1.120000,20.790001,24.03
25193,0.815448,0.061488,0.549976,-101.639999,4.200000,26.250000,24.03
25204,0.804712,-0.031720,0.607560,-98.839996,3.990000,33.740002,24.10
25216,0.841800,0.094184,0.659288,-99.400002,2.520000,41.230000,24.02
25226,0.867176,0.096136,0.656848,-99.610001,1.260000,46.340000,24.02
25237,0.896944,0.178608,0.667096,-93.449997,-0.420000,50.750000,24.07
25248,0.874008,0.245464,0.638304,-87.080002,0.770000,48.720001,24.07
25259,0.865712,0.217160,0.584624,-79.660004,1.750000,45.290001,24.04
25270,0.838384,0.074176,0.542656,-62.650002,3.430000,38.709999,24.07
25281,0.823256,-0.078080,0.516792,-41.020000,1.890000,29.049999,24.07
25292,0.817888,-0.234728,0.498248,-8.820000,-0.140000,17.500000,24.07
25303,0.813496,-0.286944,0.496784,22.540001,-3.570000,4.060000,24.07
25314,0.835944,-0.215696,0.522648,37.520000,-4.900000,-4.620000,24.05
25325,0.826184,-0.201056,0.553392,40.599998,-5.460000,-15.330000,24.05
25336,0.829112,-0.154208,0.591456,39.200001,-6.650000,-23.100000,24.03
25348,0.836920,-0.145912,0.606096,40.389999,-7.350000,-30.450001,23.99
25359,0.811544,-0.120536,0.619272,50.400002,-9.100000,-36.189999,23.99
25370,0.832040,-0.133224,0.621224,64.120003,-10.430000,-42.070000,24.11
25381,0.846192,-0.115168,0.625128,85.820000,-11.690000,-46.130001,24.11
25392,0.861320,-0.070760,0.614880,102.129997,-13.090000,-48.299999,24.07
25403,0.882792,-0.016592,0.630008,100.589996,-15.470000,-47.250000,24.01
25414,0.869128,-0.020008,0.522160,85.050003,-10.920000,-42.279999,24.01
25425,0.840336,-0.299632,0.451888,75.949997,-6.370000,-43.189999,24.09
25436,0.761768,-0.287920,0.416752,68.180000,-9.660000,-34.930000,24.09
25447,0.750056,0.002928,0.426512,21.980000,-10.220000,-20.299999,24.05
25458,0.762744,0.184464,0.485560,-8.470000,-5.950000,-6.930000,24.01
25469,0.755424,0.221064,0.593896,-48.369999,-2.660000,6.090000,24.01
25480,0.780312,0.241072,0.676856,-82.389999,0.140000,15.190000,24.06
25491,0.804224,0.180560,0.716872,-98.629997,1.820000,24.990000,24.06
25502,0.819840,0.173728,0.707600,-104.580002,-0.070000,31.990000,24.06
25513,0.863760,0.148840,0.657824,-100.730003,-0.560000,36.470001,24.03
25524,0.910120,0.143472,0.593408,-84.559998,-1.120000,37.520000,24.03
25535,0.893040,0.188856,0.544608,-68.389999,-0.560000,39.970001,24.03
25546,0.901336,0.172752,0.515328,-52.919998,2.170000,39.060001,24.03
25557,0.857416,0.161040,0.470920,-39.340000,3.850000,36.610001,24.11
25568,0.854000,0.028304,0.446032,-25.690001,6.510000,30.379999,24.11
25579,0.843752,-0.141032,0.452864,-11.270000,7.140000,21.139999,24.05
25590,0.839360,-0.257664,0.494832,7.910000,5.740000,12.950000,24.06
25601,0.833504,-0.307928,0.532408,19.879999,3.220000,1.890000,24.06
25612,0.836432,-0.219112,0.580720,25.410000,1.050000,-8.050000,24.11
25623,0.838872,-0.167872,0.585112,19.389999,0.770000,-16.590000,24.11
25634,0.824720,-0.091256,0.582672,13.930000,0.700000,-22.260000,24.08
25645,0.810568,-0.003904,0.592920,10.920000,1.960000,-26.879999,24.07
25656,0.823744,-0.051728,0.595848,20.790001,2.310000,-31.920000,24.07
25667,0.827648,-0.087352,0.602192,46.900002,0.840000,-36.400002,24.08
25678,0.847168,-0.093696,0.613416,73.290001,-0.770000,-42.349998,24.08
25689,0.868640,-0.077104,0.620736,104.440002,-2.450000,-47.040001,24.07
25700,0.885720,-0.068808,0.638304,129.220001,-3.850000,-50.750000,24.08
25710,0.863272,0.016592,0.602192,132.160004,-5.320000,-50.470001,24.08
25721,0.828624,-0.043432,0.554368,119.559998,-1.960000,-43.540001,24.07
25733,0.775432,-0.001464,0.562176,99.260002,-4.410000,-35.840000,24.07
25744,0.701744,0.023424,0.558272,59.709999,-8.820000,-24.990000,24.04
25755,0.703208,0.295728,0.599264,7.910000,-8.820000,-6.370000,24.04
25766,0.729072,0.304024,0.589992,-61.950001,-5.180000,8.820000,24.05
25777,0.756888,0.218136,0.601216,-106.889999,-4.200000,20.370001,24.06
25788,0.808616,0.300120,0.646600,-135.449997,-3.010000,35.139999,24.06
25799,0.834968,0.179096,0.691984,-141.750000,-1.050000,43.259998,24.11
25810,0.850584,0.120536,0.731512,-130.410004,-3.780000,46.549999,24.11
25821,0.885720,0.183976,0.680272,-118.510002,-4.620000,51.869999,24.05
25832,0.938912,0.112728,0.665632,-95.760002,-5.950000,53.200001,24.10
25843,0.909144,0.174704,0.630984,-78.889999,-7.560000,52.709999,24.10
25854,0.904264,0.203496,0.567544,-67.269997,-5.250000,50.540001,24.09
25865,0.864736,0.074176,0.493856,-53.759998,-2.030000,45.500000,24.09
25876,0.849608,-0.067832,0.412360,-38.009998,-0.840000,38.080002,24.08
25887,0.847656,-0.202032,0.382592,-15.330000,0.490000,29.049999,24.10
25898,0.837896,-0.322568,0.401136,8.470000,-0.280000,19.950001,24.10
25908,0.837408,-0.335256,0.467504,20.370001,-0.770000,7.420000,24.07
25920,0.831064,-0.235216,0.541192,23.799999,-1.750000,-3.010000,24.07
25931,0.826184,-0.151280,0.583648,16.590000,0.280000,-11.760000,24.11
25942,0.810080,-0.257664,0.613416,23.379999,0.140000,-18.549999,24.03
25953,0.799832,-0.206912,0.616832,37.869999,-3.220000,-26.809999,24.03
25964,0.830088,-0.223016,0.595360,59.360001,-4.060000,-35.139999,24.08
25975,0.849120,-0.204472,0.579256,87.500000,-6.650000,-43.189999,24.08
25986,0.857416,-0.159576,0.574376,110.739998,-9.870000,-46.410000,24.07
25997,0.881328,-0.062464,0.597800,115.150002,-12.040000,-47.389999,24.07
26008,0.864736,0.006344,0.574376,98.279999,-11.550000,-44.799999,24.10
26019,0.846192,-0.118096,0.471896,70.910004,-7.420000,-39.970001,24.07
26031,0.765672,-0.326472,0.414800,50.330002,-7.840000,-34.020000,24.07
26041,0.701256,-0.067344,0.475800,18.620001,-11.200000,-20.510000,24.11
26052,0.695888,0.249856,0.590480,-44.799999,-8.610000,-4.760000,24.11
26063,0.728096,0.207400,0.686616,-99.260002,-3.850000,5.110000,24.07
26074,0.751520,0.230824,0.695888,-142.029999,-3.220000,18.340000,24.09
26085,0.819840,0.135176,0.645624,-133.070007,0.350000,26.389999,24.09
26096,0.839848,0.104432,0.649040,-119.070000,-0.070000,31.709999,24.07
26107,0.864736,0.163480,0.645624,-100.239998,-1.680000,37.240002,24.07
26118,0.880840,0.172264,0.630008,-80.500000,-3.290000,41.439999,24.09
26129,0.904264,0.260104,0.586088,-60.130001,-2.100000,44.169998,24.08
26140,0.879864,0.178120,0.542656,-42.139999,0.770000,43.400002,24.08
26151,0.846680,0.085888,0.478728,-26.389999,1.470000,39.830002,24.02
26162,0.852048,-0.069784,0.428952,-10.500000,3.710000,32.549999,24.02
26173,0.841800,-0.204960,0.419192,6.300000,4.900000,24.920000,24.11
26184,0.843264,-0.280112,0.458232,14.910000,4.900000,13.790000,24.11
26195,0.845216,-0.296704,0.523136,19.879999,4.200000,3.080000,24.06
26205,0.830088,-0.234240,0.557296,18.900000,4.060000,-5.320000,24.04
26217,0.840336,-0.231312,0.562176,21.770000,4.620000,-15.190000,24.04
26228,0.827648,-0.240584,0.585600,30.520000,3.780000,-24.500000,24.07
26239,0.828624,-0.270840,0.616344,52.360001,0.980000,-33.320000,24.07
26250,0.842776,-0.248880,0.636840,79.309998,-3.710000,-40.529999,24.07
26261,0.869616,-0.242536,0.631960,101.430000,-7.490000,-49.000000,24.05
26272,0.874496,-0.135664,0.665144,120.610001,-12.390000,-51.869999,24.05
26283,0.866200,-0.034648,0.635864,111.510002,-15.120000,-51.939999,24.07
26294,0.831064,-0.023424,0.526552,85.750000,-10.850000,-46.340000,24.07
26305,0.799832,-0.177144,0.466528,75.110001,-10.920000,-40.880001,24.11
26316,0.734928,-0.056608,0.490928,51.169998,-11.690000,-30.940001,24.07
26327,0.718824,0.103456,0.552904,10.990000,-10.150000,-17.920000,24.07
26337,0.713456,0.243024,0.611464,-22.959999,-7.000000,-4.550000,24.12
26349,0.741272,0.260592,0.592432,-64.330002,-3.640000,8.960000,24.12
26359,0.770064,0.215208,0.604144,-89.040001,-1.120000,20.090000,24.11
26370,0.808128,0.191784,0.626104,-96.250000,1.260000,30.100000,24.11
26381,0.823256,0.196664,0.650992,-93.029999,1.190000,38.430000,24.07
26392,0.854000,0.133224,0.652944,-79.449997,0.700000,42.770000,24.08
26403,0.899872,0.184952,0.652456,-70.070000,-0.770000,48.439999,24.08
26414,0.879376,0.214720,0.619760,-59.360001,-0.840000,50.959999,24.09
26425,0.882792,0.110776,0.575352,-48.090000,0.980000,50.119999,24.09
26436,0.860832,0.050264,0.514840,-30.870001,0.210000,45.430000,24.07
26447,0.857416,-0.011224,0.457744,-23.660000,2.590000,37.869999,24.04
26458,0.843264,-0.142984,0.447496,-11.620000,4.200000,31.570000,24.04
26469,0.834968,-0.326472,0.477264,7.280000,2.940000,21.209999,24.07
26480,0.833992,-0.409920,0.535824,19.670000,0.350000,9.520000,24.07
26491,0.831552,-0.409920,0.604144,25.760000,-1.820000,-0.560000,24.06
26502,0.841312,-0.294752,0.632448,19.600000,-4.760000,-11.830000,24.05
26513,0.835456,-0.150792,0.603168,11.550000,-3.850000,-21.350000,24.05
26524,0.827648,-0.167872,0.589016,10.290000,-2.590000,-27.580000,24.08
26535,0.818376,-0.139080,0.598288,26.250000,-4.270000,-34.020000,24.08
26546,0.846192,-0.184952,0.596824,53.480000,-6.300000,-39.060001,24.05
26557,0.866688,-0.192760,0.619272,81.550003,-9.660000,-46.200001,24.05
26568,0.873032,-0.163480,0.631472,114.940002,-12.670000,-52.080002,24.06
26579,0.879864,-0.104432,0.641720,142.169998,-15.260000,-57.189999,24.05
26590,0.872544,0.043432,0.651968,144.899994,-17.080000,-56.209999,24.05
26601,0.862784,0.162504,0.568032,118.230003,-14.980000,-48.299999,24.05
26612,0.830088,-0.102480,0.436272,96.250000,-8.820000,-43.049999,24.05
26623,0.753472,-0.215208,0.420168,81.830002,-7.280000,-40.810001,24.04
26635,0.692472,0.010736,0.446520,46.549999,-10.080000,-24.570000,24.03
26646,0.714432,0.268400,0.465552,-10.290000,-5.250000,-5.460000,24.03
26657,0.742736,0.319152,0.485072,-51.660000,0.140000,10.360000,24.12
26668,0.753960,0.302072,0.540216,-90.720001,3.080000,22.120001,24.12
26679,0.784704,0.283040,0.588528,-114.870003,5.600000,34.650002,24.14
26690,0.801296,0.216184,0.639280,-119.839996,7.350000,44.660000,24.06
26701,0.827648,0.244488,0.670024,-117.739998,6.440000,51.520000,24.06
26712,0.887672,0.224968,0.655872,-111.300003,8.190000,54.459999,24.09
26723,0.889136,0.053192,0.630008,-91.980003,4.340000,57.049999,24.09
26733,0.893040,0.162992,0.606584,-69.650002,0.420000,59.150002,24.11
26744,0.916952,0.137616,0.531920,-57.119999,3.430000,55.509998,24.10
26755,0.868152,0.062464,0.468968,-47.599998,4.970000,48.580002,24.10
26766,0.851072,-0.117120,0.445544,-34.160000,6.860000,37.380001,24.05
26777,0.828136,-0.280112,0.460184,-8.960000,5.250000,28.209999,24.05
26789,0.843752,-0.406016,0.498248,17.150000,2.590000,15.120000,24.06
26802,0.848632,-0.397720,0.544608,33.110001,-0.420000,-2.800000,24.05
26813,0.836432,-0.255712,0.588528,30.030001,-2.100000,-15.120000,24.05
26824,0.849120,-0.178608,0.604144,19.670000,-0.840000,-22.120001,24.09
26835,0.816912,-0.227896,0.635376,23.870001,-3.290000,-31.080000,24.09
26846,0.814960,-0.180560,0.667096,38.360001,-6.580000,-38.849998,24.09
26857,0.832528,-0.184952,0.667584,62.160000,-9.310000,-44.029999,24.09
26868,0.856440,-0.174704,0.668072,95.269997,-12.880000,-51.240002,24.09
26879,0.872056,-0.105408,0.660752,119.070000,-16.309999,-56.910000,24.11
26890,0.886696,-0.027328,0.679784,134.259995,-17.500000,-59.990002,24.11
26901,0.878888,0.128832,0.622688,120.750000,-18.620001,-56.630001,24.10
26912,0.832528,-0.070760,0.533384,102.760002,-9.450000,-52.570000,24.07
26924,0.736392,-0.215208,0.472872,88.760002,-11.900000,-45.290001,24.07
26935,0.680272,0.045384,0.471896,60.270000,-18.200001,-26.950001,24.07
26946,0.709552,0.375760,0.487024,0.280000,-12.530000,-6.230000,24.07
26957,0.763720,0.309392,0.494832,-45.639999,-5.390000,8.470000,24.12
26968,0.735904,0.395768,0.556320,-82.180000,-5.040000,23.170000,24.08
26979,0.806176,0.363560,0.614392,-108.500000,1.120000,37.310001,24.08
26990,0.805200,0.216184,0.652456,-117.040001,1.820000,46.689999,24.05
27001,0.835456,0.226920,0.653432,-111.019997,-0.070000,54.180000,24.05
27012,0.905240,0.243024,0.609512,-100.029999,0.280000,59.500000,24.11
27023,0.910608,0.172264,0.584624,-86.029999,-0.910000,61.459999,24.11
27035,0.911096,0.156648,0.584136,-72.379997,-0.700000,60.060001,24.07
27046,0.895480,0.055144,0.556808,-59.080002,0.070000,54.110001,24.05
27057,0.875472,-0.005368,0.535336,-48.580002,-0.350000,48.860001,24.05
27068,0.856440,-0.209840,0.498736,-37.310001,-0.490000,37.520000,24.08
27081,0.858392,-0.371856,0.461648,-8.400000,-3.430000,21.770000,24.10
27092,0.854976,-0.399672,0.473848,13.230000,-5.810000,10.360000,24.10
27103,0.857904,-0.292800,0.506056,19.389999,-5.460000,-3.430000,24.09
27114,0.853512,-0.227408,0.519720,19.250000,-5.180000,-13.510000,24.09
27125,0.854976,-0.298168,0.515816,26.530001,-4.200000,-24.570000,24.12
27136,0.839848,-0.257176,0.539240,40.529999,-5.530000,-32.200001,24.04
27148,0.841800,-0.285480,0.543632,61.389999,-5.390000,-41.369999,24.04
27160,0.847656,-0.271816,0.550952,91.000000,-7.420000,-50.400002,24.10
27171,0.859368,-0.199104,0.578280,116.970001,-7.280000,-57.400002,24.10
27182,0.865224,-0.142984,0.597312,138.740005,-7.700000,-64.540001,24.04
27193,0.847168,0.108336,0.622688,155.259995,-7.560000,-66.500000,24.13
27204,0.839360,0.148840,0.608536,146.089996,-7.490000,-62.580002,24.13
27215,0.793488,0.164944,0.514352,122.220001,-3.150000,-55.509998,24.09
27226,0.762744,-0.122000,0.404552,103.669998,2.450000,-49.980000,24.09
27237,0.685640,0.047824,0.403088,79.379997,-0.070000,-39.759998,24.07
27248,0.658800,0.290360,0.465552,24.080000,-1.330000,-21.209999,24.07
27259,0.671976,0.501176,0.548512,-11.340000,1.260000,-3.500000,24.07
27270,0.698816,0.588528,0.594384,-54.740002,4.270000,8.960000,24.08
27281,0.738832,0.563640,0.600240,-81.199997,7.280000,22.469999,24.08
27292,0.766160,0.410408,0.594384,-84.349998,8.470000,32.130001,24.08
27302,0.821792,0.340136,0.585600,-73.709999,10.780000,36.610001,24.08
27313,0.789584,0.178120,0.572424,-49.279999,7.350000,38.220001,24.09
27324,0.849120,0.124440,0.526552,-30.590000,7.140000,40.040001,24.04
27335,0.861808,0.040992,0.488976,-17.430000,7.630000,39.689999,24.04
27346,0.860832,-0.047336,0.521672,-14.070000,5.180000,40.320000,24.09
27357,0.888160,-0.154696,0.564128,-16.730000,3.850000,38.990002,24.09
27368,0.865224,-0.121024,0.624640,-33.250000,0.280000,42.630001,24.06
27379,0.888160,-0.224968,0.675880,-55.650002,-3.080000,42.910000,24.11
27390,0.899384,-0.159576,0.702720,-76.860001,-8.330000,42.000000,24.11
27401,0.925736,-0.112728,0.701744,-96.389999,-9.800000,41.369999,24.08
27412,0.946232,-0.107848,0.622688,-107.099998,-9.590000,39.970001,24.08
27423,0.948672,-0.172752,0.587064,-97.230003,-10.710000,36.750000,24.14
27434,0.948184,-0.102480,0.527528,-80.150002,-10.920000,29.750000,24.14
27445,0.932080,-0.042944,0.460672,-57.400002,-8.050000,22.260000,24.05
27457,0.880840,-0.112240,0.406992,-21.350000,-4.830000,10.850000,24.06
27468,0.843752,-0.067344,0.405528,13.790000,-2.940000,3.640000,24.06
27479,0.845216,-0.146400,0.430904,40.669998,0.350000,-5.460000,24.09
27490,0.830576,-0.154696,0.502152,58.169998,1.750000,-14.840000,24.09
27501,0.822768,-0.172264,0.607560,76.580002,2.240000,-21.980000,24.11
27512,0.801784,-0.167872,0.699792,90.089996,-2.240000,-29.400000,24.14
27523,0.805200,-0.193248,0.734928,105.489998,-4.200000,-38.570000,24.14
27534,0.812520,-0.096136,0.730536,123.830002,-8.260000,-44.939999,24.05
27545,0.853024,0.006832,0.675880,117.739998,-11.480000,-46.970001,24.05
27556,0.868152,0.064416,0.612440,97.720001,-12.320000,-45.150002,24.08
27567,0.813008,-0.060024,0.484096,73.570000,-6.300000,-38.009998,24.06
27578,0.749568,-0.253760,0.426512,51.450001,-7.770000,-31.430000,24.06
27589,0.698328,-0.140544,0.413824,21.700001,-10.290000,-20.580000,24.11
27600,0.719800,0.077104,0.427976,-33.180000,-6.020000,-7.280000,24.11
27611,0.723704,0.197640,0.511912,-65.379997,-3.850000,9.170000,24.09
27622,0.786656,0.285968,0.606096,-112.629997,1.190000,23.309999,24.11
27633,0.803248,0.216672,0.672464,-133.559998,3.780000,36.750000,24.11
27644,0.821304,0.272304,0.732000,-137.830002,3.220000,46.480000,24.07
27655,0.870592,0.248392,0.681736,-136.990005,4.480000,51.029999,24.07
27666,0.915976,0.154208,0.617320,-109.550003,3.780000,54.040001,24.09
27677,0.935496,0.194224,0.525088,-88.900002,6.580000,54.110001,24.09
27688,0.903776,0.084912,0.452864,-62.860001,9.240000,48.720001,24.07
27699,0.851560,-0.020496,0.421144,-34.020000,9.660000,42.419998,24.08
27710,0.833016,-0.159088,0.395280,-12.250000,9.240000,31.570000,24.08
27721,0.839360,-0.299144,0.407968,13.440000,10.290000,20.440001,24.09
27732,0.842776,-0.419680,0.457256,35.209999,10.570000,8.330000,24.09
27743,0.831552,-0.328912,0.528016,40.880001,8.260000,-5.530000,24.11
27754,0.837896,-0.289384,0.600240,37.240002,7.630000,-17.290001,24.10
27765,0.811056,-0.260592,0.675880,36.680000,6.580000,-26.950001,24.10
