timestamp_ms,ax,ay,az,gx,gy,gz,tempC
701749,0.778360,0.365024,0.262056,-32.689999,-91.910004,4.270000,20.64
701761,0.796416,0.228872,0.261080,-14.490000,-84.699997,2.660000,20.64
701772,0.798368,0.244000,0.210816,13.580000,-79.660004,1.820000,20.66
701783,0.800320,0.280600,0.139568,40.459999,-74.199997,2.380000,20.67
701794,0.815936,0.291336,0.095648,61.529999,-67.550003,1.400000,20.67
701806,0.820328,0.332816,0.099552,70.980003,-60.619999,1.890000,20.67
701817,0.803736,0.326960,0.150304,70.070000,-58.099998,0.980000,20.67
701829,0.807152,0.308904,0.203008,82.389999,-53.900002,0.350000,20.64
701839,0.805688,0.310368,0.204472,82.320000,-54.040001,-0.070000,20.64
701851,0.823256,0.222528,0.182512,86.099998,-50.189999,-1.470000,20.64
701863,0.813496,0.224968,0.157624,92.260002,-47.040001,-1.540000,20.70
701874,0.803736,0.375760,0.208376,71.400002,-47.599998,2.590000,20.70
701886,0.835456,0.293776,0.233264,56.700001,-43.959999,0.770000,20.61
701897,0.815936,0.329400,0.234728,45.779999,-41.090000,-0.070000,20.64
701908,0.821792,0.405528,0.194224,27.230000,-41.369999,0.840000,20.64
701919,0.854000,0.334280,0.143472,17.360001,-37.939999,-1.120000,20.65
701931,0.847656,0.411384,0.151280,-3.990000,-36.470001,1.400000,20.65
701942,0.870592,0.456768,0.121024,-33.250000,-33.599998,3.010000,20.63
701954,0.871080,0.498248,0.187880,-55.299999,-28.139999,6.160000,20.68
701965,0.831552,0.538264,0.226920,-93.730003,-27.370001,12.040000,20.68
701976,0.850584,0.533872,0.227896,-135.449997,-23.309999,24.780001,20.65
701988,0.863760,0.529480,0.147864,-172.899994,-23.309999,29.610001,20.65
701999,0.909632,0.424560,0.106872,-194.179993,-18.620001,34.369999,20.66
702010,0.920368,0.419192,0.068808,-215.389999,-13.160000,41.720001,20.67
702022,0.923296,0.450912,0.082960,-240.449997,-8.330000,54.599998,20.67
702033,0.940376,0.355264,0.130296,-249.619995,-4.060000,56.279999,20.67
702045,0.929640,0.324520,0.228384,-246.259995,1.960000,63.840000,20.66
702057,0.930128,0.333792,0.301096,-240.449997,4.620000,71.260002,20.66
702068,0.944768,0.150792,0.289872,-234.220001,8.470000,74.199997,20.65
702081,0.955016,-0.025864,0.278648,-208.320007,13.300000,70.000000,20.65
702092,0.937448,-0.020008,0.254736,-186.410004,11.690000,70.070000,20.65
702105,0.945256,-0.131760,0.243512,-161.839996,14.000000,66.639999,20.68
702116,0.923784,-0.206424,0.292800,-135.520004,14.000000,60.689999,20.68
702128,0.932080,-0.226432,0.368928,-119.839996,13.930000,55.720001,20.64
702139,0.916464,-0.336232,0.437248,-105.000000,13.860000,45.919998,20.60
702151,0.901336,-0.386496,0.486536,-74.410004,10.990000,35.279999,20.60
702162,0.890112,-0.423584,0.488488,-79.589996,7.350000,22.820000,20.69
702174,0.880352,-0.393816,0.453840,-68.949997,3.990000,7.630000,20.69
702185,0.886696,-0.409920,0.423584,-58.169998,0.700000,-6.650000,20.63
702197,0.879864,-0.430904,0.428464,-37.169998,-2.240000,-21.559999,20.71
702208,0.872056,-0.345992,0.440664,-10.640000,-6.790000,-35.980000,20.71
702220,0.885232,-0.302072,0.473848,20.930000,-10.850000,-47.740002,20.70
702231,0.893040,-0.216184,0.468968,57.750000,-14.560000,-56.349998,20.68
702243,0.907192,-0.109312,0.451888,96.180000,-17.010000,-66.290001,20.68
702254,0.931592,-0.066368,0.411384,135.380005,-14.630000,-71.820000,20.63
702266,0.923296,-0.127856,0.399184,184.380005,-13.230000,-79.660004,20.63
702277,0.877424,0.091256,0.420168,198.029999,-14.700000,-71.330002,20.63
702288,0.887672,0.325984,0.321104,174.580002,-15.260000,-61.880001,20.61
702300,0.879376,0.284504,0.219112,164.570007,-10.220000,-52.709999,20.61
702311,0.837896,0.295728,0.186416,161.279999,-7.280000,-42.840000,20.64
702323,0.812032,0.389912,0.240096,148.960007,-6.860000,-30.030001,20.64
702334,0.785680,0.722728,0.232776,84.559998,-5.320000,-9.520000,20.65
702346,0.860344,0.591456,0.203496,19.389999,4.410000,6.930000,20.64
702358,0.845216,0.539728,0.231800,-23.940001,12.320000,19.879999,20.64
702369,0.829600,0.490928,0.233264,-62.580002,16.379999,32.200001,20.70
702379,0.849608,0.337208,0.254248,-85.470001,18.969999,44.450001,20.70
702390,0.856928,0.269864,0.312320,-94.500000,20.299999,54.040001,20.67
702401,0.871080,0.310856,0.324520,-113.120003,21.139999,64.540001,20.68
702413,0.896944,0.167384,0.374296,-128.520004,22.190001,70.209999,20.68
702424,0.891088,0.002440,0.433344,-134.119995,22.120001,73.360001,20.63
702435,0.892064,-0.085400,0.513864,-136.990005,18.760000,75.739998,20.63
702445,0.896456,-0.095160,0.528504,-145.250000,13.440000,75.669998,20.66
702456,0.926224,-0.232288,0.536312,-143.710007,10.640000,70.839996,20.64
702467,0.926712,-0.273768,0.513376,-135.589996,8.260000,64.540001,20.64
702478,0.915488,-0.268400,0.466040,-129.570007,5.460000,55.439999,20.68
702490,0.926224,-0.430904,0.430416,-112.139999,5.040000,44.590000,20.68
702501,0.898408,-0.517280,0.421144,-89.110001,2.940000,29.260000,20.66
702512,0.893040,-0.604144,0.403576,-49.419998,0.910000,8.540000,20.63
702523,0.882792,-0.568032,0.382592,-11.480000,-3.570000,-10.570000,20.63
702534,0.895480,-0.598776,0.392352,31.219999,-5.670000,-31.010000,20.62
702545,0.881816,-0.500688,0.408944,70.769997,-10.150000,-45.500000,20.62
702557,0.900360,-0.301096,0.457256,89.669998,-12.880000,-60.900002,20.59
702568,0.906216,-0.262056,0.493856,108.919998,-14.910000,-75.320000,20.64
702579,0.918416,-0.261568,0.474336,147.839996,-17.150000,-87.709999,20.64
702590,0.941352,-0.226920,0.431880,198.029999,-18.480000,-96.040001,20.67
702601,0.950624,-0.111752,0.396256,234.360001,-16.799999,-95.970001,20.67
702612,0.932568,0.047824,0.349896,253.190002,-16.799999,-91.629997,20.68
702623,0.918904,0.118584,0.408944,244.929993,-15.680000,-78.540001,20.64
702634,0.849608,0.262056,0.323544,198.029999,-14.560000,-69.230003,20.64
702645,0.797880,0.388448,0.319152,127.750000,-15.470000,-50.470001,20.64
702656,0.782752,0.481656,0.177632,70.070000,-16.100000,-31.920000,20.64
702668,0.803248,0.465552,0.081496,11.760000,-10.360000,-13.160000,20.69
702678,0.813496,0.560224,0.091256,-43.259998,-1.960000,3.850000,20.64
702689,0.848632,0.627080,0.112728,-90.580002,7.350000,25.340000,20.64
702700,0.883768,0.532896,0.145912,-134.050003,14.070000,45.990002,20.64
702711,0.905728,0.425536,0.361608,-156.449997,20.230000,57.189999,20.64
702722,0.903288,0.440664,0.325496,-166.320007,20.860001,70.699997,20.68
702733,0.926224,0.372344,0.416264,-169.820007,19.600000,79.379997,20.68
702744,0.950136,0.262056,0.476776,-167.929993,18.270000,83.860001,20.65
702755,0.952088,0.296216,0.464088,-179.619995,16.240000,92.260002,20.62
702766,0.969168,-0.033672,0.445544,-171.149994,16.309999,89.320000,20.62
702777,0.939888,-0.157136,0.439200,-145.110001,15.820000,81.339996,20.66
702787,0.911584,-0.276208,0.449448,-107.730003,13.930000,70.769997,20.66
702798,0.904752,-0.420168,0.482632,-102.900002,12.320000,57.330002,20.64
702809,0.881816,-0.520696,0.469944,-76.089996,9.170000,43.610001,20.66
702820,0.883768,-0.627568,0.464576,-45.360001,5.390000,25.760000,20.66
702831,0.890112,-0.651968,0.444080,-19.389999,1.680000,5.250000,20.68
702842,0.881328,-0.587552,0.436272,6.580000,-2.940000,-10.640000,20.68
702853,0.898896,-0.548024,0.440176,26.389999,-6.580000,-27.580000,20.63
702864,0.900848,-0.469456,0.457256,40.740002,-9.030000,-44.520000,20.63
702875,0.897432,-0.361120,0.480192,54.040001,-10.780000,-58.450001,20.66
702886,0.910608,-0.326960,0.497272,73.779999,-12.670000,-68.529999,20.68
702897,0.924760,-0.309392,0.492392,97.930000,-15.330000,-79.519997,20.68
702908,0.935008,-0.234728,0.455304,133.419998,-15.400000,-87.779999,20.65
702919,0.922808,-0.189344,0.433344,167.229996,-13.790000,-86.870003,20.65
702931,0.933056,-0.134200,0.396256,192.149994,-16.030001,-87.639999,20.65
702942,0.908168,0.062464,0.367464,198.029999,-16.870001,-80.570000,20.63
702952,0.877424,0.332328,0.291824,178.220001,-18.480000,-66.709999,20.63
702964,0.879864,0.349896,0.285480,147.000000,-15.400000,-56.209999,20.64
702974,0.847168,0.372832,0.289872,117.739998,-12.530000,-44.730000,20.64
702986,0.815936,0.528016,0.311344,77.209999,-9.940000,-26.250000,20.70
702997,0.833504,0.501176,0.251320,19.879999,-6.580000,-7.700000,20.65
703007,0.844728,0.462136,0.208376,-28.910000,1.190000,5.670000,20.65
703018,0.849608,0.535336,0.175680,-65.660004,6.300000,25.760000,20.66
703029,0.883280,0.575840,0.183976,-103.459999,9.870000,39.689999,20.66
703041,0.818376,0.484584,0.255712,-122.570000,6.790000,50.259998,20.64
703052,0.929152,0.409432,0.325496,-138.529999,21.559999,62.090000,20.59
703062,0.901824,0.253272,0.416752,-140.630005,22.680000,71.400002,20.59
703074,0.909632,0.175680,0.450912,-139.300003,20.790001,77.559998,20.65
703085,0.910120,0.040992,0.483608,-132.300003,14.560000,80.989998,20.65
703095,0.939400,0.034648,0.462624,-129.639999,13.720000,81.059998,20.61
703107,0.946720,-0.082472,0.472872,-121.379997,13.860000,77.769997,20.61
703118,0.914024,-0.136152,0.499224,-109.970001,11.620000,71.540001,20.65
703128,0.904752,-0.215696,0.502640,-101.779999,9.310000,64.540001,20.66
703139,0.894992,-0.368440,0.492392,-91.070000,8.330000,51.099998,20.66
703150,0.892064,-0.533384,0.477752,-69.720001,6.160000,36.119999,20.63
703161,0.887184,-0.589016,0.458720,-42.910000,1.680000,22.120001,20.63
703172,0.870592,-0.615368,0.448472,-22.540001,-3.010000,3.290000,20.66
703184,0.878888,-0.580232,0.438712,4.270000,-7.280000,-15.890000,20.64
703194,0.893528,-0.524600,0.442128,23.660000,-9.380000,-29.260000,20.64
703206,0.896944,-0.519720,0.457256,44.660000,-11.130000,-45.919998,20.65
703217,0.897432,-0.433344,0.462624,68.320000,-13.230000,-61.880001,20.65
703228,0.901824,-0.349896,0.475312,86.239998,-15.470000,-73.779999,20.67
703239,0.895968,-0.340136,0.442128,121.309998,-17.080000,-84.489998,20.66
703250,0.913048,-0.275720,0.406016,164.289993,-17.780001,-91.419998,20.66
703262,0.924272,-0.137616,0.382592,203.350006,-16.520000,-93.239998,20.64
703272,0.914512,0.001464,0.400648,222.110001,-16.030001,-91.839996,20.64
703283,0.899872,0.200568,0.419192,213.850006,-16.520000,-81.129997,20.68
703294,0.872544,0.345504,0.337208,168.000000,-15.960000,-70.139999,20.62
703306,0.864736,0.254736,0.306952,127.959999,-11.480000,-57.189999,20.62
703316,0.814472,0.340624,0.277184,93.449997,-10.010000,-41.930000,20.62
703327,0.785192,0.515328,0.197640,35.490002,-9.940000,-25.340000,20.62
703338,0.830576,0.521184,0.168848,-13.650000,-2.940000,-5.390000,20.64
703349,0.860344,0.573400,0.209840,-49.700001,11.900000,18.059999,20.64
703362,0.897432,0.588040,0.221064,-93.800003,12.460000,29.400000,20.67
703372,0.898408,0.423096,0.309880,-110.180000,20.860001,46.200001,20.65
703383,0.884744,0.433344,0.367464,-121.379997,21.490000,58.240002,20.65
703394,0.919392,0.416752,0.402600,-131.110001,21.770000,69.720001,20.64
703405,0.935008,0.269376,0.427976,-132.300003,20.230000,76.650002,20.64
703416,0.940376,0.222040,0.433344,-129.149994,18.760000,81.760002,20.64
703427,0.947696,0.183488,0.425048,-131.460007,19.250000,85.260002,20.64
703438,0.929640,-0.004392,0.455304,-127.050003,20.580000,83.160004,20.64
703449,0.898896,-0.093208,0.463112,-116.269997,19.670000,75.320000,20.65
703460,0.883280,-0.231800,0.469456,-105.419998,18.059999,67.410004,20.65
703471,0.873032,-0.433344,0.479704,-88.550003,17.360001,52.220001,20.64
703481,0.858392,-0.564616,0.487024,-58.520000,13.860000,35.139999,20.63
703493,0.853512,-0.623176,0.492880,-27.090000,8.120000,20.930000,20.63
703503,0.854000,-0.561688,0.487024,-7.840000,3.010000,2.170000,20.62
703514,0.866688,-0.549976,0.486048,11.480000,0.280000,-16.030001,20.62
703525,0.868640,-0.508008,0.499712,31.150000,-3.430000,-30.100000,20.62
703536,0.867664,-0.310368,0.518256,38.849998,-5.950000,-45.360001,20.62
703548,0.888648,-0.334280,0.525576,50.540001,-8.120000,-58.310001,20.56
703559,0.895968,-0.351360,0.533384,80.150002,-10.430000,-71.889999,20.64
703570,0.901824,-0.302072,0.522160,118.300003,-12.810000,-79.309998,20.64
703581,0.903288,-0.248880,0.471408,161.979996,-11.550000,-84.419998,20.65
703592,0.910120,-0.256200,0.449936,200.130005,-11.970000,-89.320000,20.65
703603,0.891576,-0.116144,0.421632,231.000000,-14.140000,-86.870003,20.62
703614,0.858392,0.273280,0.395280,206.429993,-17.639999,-71.820000,20.61
703624,0.840824,0.491904,0.348432,162.330002,-20.299999,-55.860001,20.61
703635,0.845704,0.440664,0.320616,110.320000,-17.850000,-43.750000,20.65
703646,0.813984,0.435784,0.335744,64.470001,-14.420000,-30.660000,20.65
703657,0.767624,0.528016,0.348432,22.889999,-12.250000,-11.690000,20.66
703668,0.741760,0.587552,0.346968,-31.010000,-16.799999,3.500000,20.62
703679,0.845704,0.518256,0.315736,-81.900002,-4.620000,22.260000,20.62
703690,0.859856,0.495808,0.311832,-109.480003,0.770000,41.650002,20.68
703701,0.906216,0.514352,0.333792,-135.449997,3.430000,58.310001,20.68
703712,0.912560,0.452864,0.388936,-149.449997,1.050000,65.519997,20.66
703723,0.955016,0.317200,0.410896,-154.910004,4.130000,79.379997,20.66
703734,0.981368,0.231312,0.420656,-153.440002,6.160000,86.870003,20.64
703745,0.967216,0.146888,0.415288,-146.089996,8.890000,89.459999,20.70
703755,0.938424,0.018056,0.451400,-136.990005,10.220000,89.879997,20.70
703766,0.908168,-0.079056,0.478728,-124.180000,9.100000,84.279999,20.65
703777,0.885232,-0.138592,0.433832,-112.699997,10.080000,75.809998,20.65
703788,0.889624,-0.389912,0.413336,-89.949997,12.670000,61.250000,20.60
703800,0.854000,-0.589504,0.402600,-63.840000,11.690000,43.259998,20.60
703810,0.850584,-0.659776,0.416264,-30.450001,8.120000,28.420000,20.60
703821,0.851560,-0.683200,0.441152,-1.610000,3.570000,9.660000,20.66
703832,0.853512,-0.635864,0.462136,17.500000,-0.140000,-10.010000,20.66
703843,0.872056,-0.564616,0.447008,32.619999,-2.100000,-29.190001,20.62
703854,0.887184,-0.487024,0.477752,40.110001,-4.060000,-42.349998,20.59
703865,0.889624,-0.416264,0.480680,43.540001,-6.230000,-57.330002,20.59
703876,0.899384,-0.464088,0.489464,61.599998,-7.350000,-71.889999,20.63
703887,0.895968,-0.400648,0.518256,89.879997,-10.430000,-82.389999,20.63
703898,0.888160,-0.283528,0.522648,122.639999,-13.090000,-91.000000,20.68
703910,0.894992,-0.194712,0.486536,158.550003,-14.770000,-95.830002,20.68
703920,0.901336,-0.068808,0.465064,179.130005,-13.440000,-92.330002,20.65
703931,0.896944,0.027816,0.441640,184.800003,-14.840000,-89.739998,20.63
703943,0.883280,0.178120,0.370880,170.520004,-13.370000,-79.309998,20.63
703953,0.842288,0.298656,0.336232,149.100006,-14.070000,-65.519997,20.63
703964,0.809104,0.443592,0.298656,110.599998,-14.560000,-48.090000,20.63
703976,0.805200,0.540216,0.280112,63.560001,-12.530000,-34.650002,20.65
703987,0.812032,0.549976,0.279136,19.950001,-6.160000,-17.290001,20.63
703997,0.806664,0.573888,0.304512,-16.870001,1.470000,10.710000,20.63
704008,0.832528,0.683688,0.298168,-61.320000,-0.350000,13.230000,20.61
704019,0.877912,0.604632,0.287432,-90.370003,8.260000,33.320000,20.61
704030,0.879864,0.484096,0.337208,-108.500000,12.040000,48.299999,20.61
704041,0.901824,0.450912,0.384544,-121.940002,13.860000,59.080002,20.66
704052,0.908656,0.337696,0.418704,-126.489998,10.990000,68.529999,20.66
704064,0.921344,0.261080,0.424560,-127.959999,10.990000,76.860001,20.64
704077,0.926712,0.225944,0.451400,-134.330002,11.200000,83.790001,20.64
704089,0.929640,0.001464,0.439688,-125.930000,12.460000,82.110001,20.64
704101,0.897920,-0.100040,0.421632,-108.849998,11.900000,75.389999,20.66
704112,0.898896,-0.195688,0.439688,-96.529999,10.920000,68.040001,20.66
704123,0.882792,-0.325496,0.476288,-79.730003,10.850000,56.209999,20.64
704134,0.859368,-0.427000,0.499712,-60.410000,8.750000,45.430000,20.63
704145,0.854976,-0.531432,0.504104,-36.189999,4.760000,29.820000,20.63
704157,0.865224,-0.547536,0.490440,-19.110001,0.420000,12.530000,20.68
704167,0.869616,-0.552416,0.461160,0.140000,-2.170000,-5.460000,20.68
704178,0.889136,-0.466040,0.447008,14.420000,-4.340000,-19.320000,20.61
704190,0.898408,-0.398208,0.439200,21.000000,-4.270000,-34.160000,20.61
704201,0.897432,-0.411384,0.430904,33.599998,-5.040000,-48.930000,20.63
704211,0.895480,-0.326472,0.466528,52.430000,-6.930000,-59.919998,20.64
704222,0.901336,-0.288896,0.486536,80.080002,-8.820000,-70.769997,20.64
704234,0.918904,-0.282552,0.471896,113.050003,-10.290000,-79.940002,20.62
704244,0.925736,-0.215208,0.456768,158.759995,-10.990000,-85.190002,20.62
704256,0.924272,-0.057584,0.456768,190.960007,-10.360000,-83.580002,20.64
704267,0.910608,0.095160,0.498736,193.830002,-11.690000,-78.190002,20.57
704277,0.878888,0.282552,0.485560,171.779999,-12.250000,-66.010002,20.57
704289,0.849608,0.299632,0.467504,135.380005,-12.600000,-52.360001,20.64
704299,0.821304,0.270840,0.424560,101.500000,-11.760000,-42.070000,20.64
704311,0.783728,0.306952,0.415776,72.940002,-11.200000,-27.580000,20.66
704322,0.788120,0.450424,0.389424,31.219999,-7.630000,-3.010000,20.62
704333,0.845216,0.589016,0.339160,-18.270000,-8.610000,5.320000,20.62
704344,0.879376,0.606096,0.299144,-69.230003,-0.700000,23.520000,20.66
704355,0.877424,0.491904,0.304512,-96.389999,3.710000,39.130001,20.66
704365,0.894992,0.362096,0.390400,-115.290001,5.670000,48.930000,20.62
704376,0.889136,0.348920,0.452864,-127.400002,4.340000,61.880001,20.62
704387,0.890600,0.286944,0.498736,-132.789993,1.960000,70.910004,20.64
704398,0.930128,0.218624,0.499712,-138.110001,2.170000,76.230003,20.62
704409,0.946720,0.110288,0.495808,-132.440002,2.170000,80.430000,20.62
704420,0.941352,0.062952,0.490928,-122.989998,1.890000,80.779999,20.65
704430,0.931104,0.039040,0.458720,-114.449997,1.820000,77.629997,20.65
704441,0.921832,-0.109312,0.446520,-105.629997,4.130000,70.139999,20.62
704452,0.884744,-0.253760,0.435784,-87.779999,5.250000,58.730000,20.64
704463,0.872056,-0.388936,0.432368,-63.700001,4.970000,47.529999,20.64
704474,0.859856,-0.534848,0.437248,-30.450001,2.800000,30.240000,20.61
704485,0.860344,-0.538752,0.430416,-6.580000,-17.780001,12.460000,20.61
704496,0.876936,-0.518744,0.440664,18.620001,-2.100000,-4.340000,20.66
704507,0.891088,-0.445056,0.441152,36.119999,-3.290000,-17.010000,20.61
704518,0.898896,-0.315736,0.469944,42.139999,-3.710000,-32.830002,20.61
704529,0.894992,-0.301096,0.501664,48.299999,-4.410000,-47.040001,20.63
704540,0.903776,-0.382592,0.506544,74.339996,-6.930000,-57.959999,20.63
704551,0.930616,-0.374296,0.500200,113.050003,-9.240000,-68.459999,20.64
704562,0.930616,-0.331840,0.467504,146.720001,-8.470000,-73.430000,20.64
704573,0.920856,-0.278160,0.471408,178.149994,-10.430000,-76.160004,20.64
704584,0.895968,-0.117120,0.468480,181.020004,-11.690000,-71.750000,20.67
704595,0.859368,0.177144,0.432368,156.169998,-14.770000,-59.570000,20.67
704606,0.863760,0.280112,0.382104,114.309998,-14.910000,-48.580002,20.63
704617,0.845216,0.303536,0.343064,72.379997,-12.250000,-19.950001,20.63
704628,0.805200,0.281576,0.351360,32.970001,-9.730000,-26.600000,20.67
704639,0.782752,0.386496,0.350384,-0.770000,-8.120000,-8.540000,20.63
704650,0.812032,0.468968,0.333304,-43.540001,-5.810000,10.080000,20.63
704661,0.857904,0.470920,0.305488,-74.550003,-1.400000,22.469999,20.65
704672,0.868152,0.471408,0.326960,-90.019997,1.330000,37.380001,20.65
704683,0.888160,0.452376,0.384544,-103.389999,2.170000,51.590000,20.61
704694,0.906704,0.404064,0.429440,-113.680000,4.270000,59.849998,20.59
704705,0.916952,0.283528,0.452864,-115.360001,6.510000,69.580002,20.59
704716,0.919392,0.191784,0.468480,-109.269997,6.510000,73.010002,20.66
704727,0.922808,0.159576,0.452864,-101.989998,6.790000,75.250000,20.66
704738,0.918904,0.055632,0.428464,-94.220001,6.580000,74.059998,20.63
704748,0.910608,-0.040016,0.410896,-83.510002,7.420000,68.389999,20.63
704759,0.886696,-0.133712,0.431880,-74.550003,8.470000,61.740002,20.63
704770,0.874496,-0.335256,0.458720,-63.630001,9.100000,50.259998,20.63
704781,0.858880,-0.476776,0.497272,-45.360001,6.370000,36.889999,20.63
704792,0.848144,-0.546072,0.503616,-23.730000,2.380000,24.150000,20.66
704803,0.856440,-0.521672,0.484096,-4.410000,-1.400000,6.440000,20.66
704814,0.868640,-0.506056,0.457256,7.840000,-3.430000,-9.520000,20.64
704825,0.879864,-0.418216,0.436760,19.809999,-4.550000,-25.760000,20.65
704836,0.892552,-0.412848,0.434320,30.520000,-4.340000,-37.450001,20.65
704847,0.898408,-0.458720,0.441152,54.389999,-4.970000,-52.639999,20.64
704858,0.902800,-0.443104,0.462624,80.430000,-7.070000,-66.080002,20.64
704869,0.906704,-0.381128,0.474336,114.940002,-8.750000,-74.339996,20.68
704880,0.894504,-0.278648,0.471408,150.639999,-9.030000,-78.820000,20.65
704891,0.896944,-0.191296,0.458720,176.889999,-9.100000,-80.570000,20.65
704903,0.892552,0.056120,0.488000,184.240005,-11.480000,-75.739998,20.64
704914,0.891576,0.267912,0.437248,156.100006,-12.810000,-67.129997,20.64
704924,0.886208,0.253760,0.395768,127.050003,-9.940000,-57.119999,20.66
704935,0.848144,0.153720,0.375272,108.150002,-5.950000,-46.759998,20.66
704946,0.796904,0.183000,0.389424,80.360001,-6.370000,-20.299999,20.63
704957,0.769576,0.461160,0.341600,28.629999,-8.330000,-18.270000,20.61
704968,0.822280,0.498248,0.296216,-13.860000,-4.270000,0.630000,20.61
704979,0.861808,0.458232,0.336720,-55.650002,7.420000,25.480000,20.68
704990,0.884256,0.496296,0.332816,-89.250000,4.550000,24.080000,20.68
705001,0.890112,0.414800,0.398208,-109.339996,9.800000,42.279999,20.66
705012,0.881816,0.386496,0.447496,-121.519997,9.870000,53.410000,20.62
705023,0.921832,0.359168,0.500688,-133.419998,8.400000,64.260002,20.62
705033,0.949160,0.248880,0.478728,-134.470001,6.930000,71.400002,20.66
705044,0.944280,0.126392,0.510448,-131.809998,5.180000,74.620003,20.66
705055,0.938912,0.076128,0.525576,-127.680000,3.920000,75.389999,20.64
705066,0.928664,-0.035624,0.505568,-120.470001,2.870000,71.400002,20.64
705077,0.911584,-0.131272,0.473848,-107.940002,3.710000,60.970001,20.61
705088,0.889136,-0.285480,0.440176,-87.779999,4.690000,50.049999,20.60
705100,0.878888,-0.450912,0.431392,-59.009998,4.760000,35.279999,20.60
705110,0.858880,-0.545584,0.435784,-32.340000,2.450000,17.920000,20.64
705121,0.844728,-0.560712,0.454328,-0.350000,-0.630000,-0.630000,20.64
705133,0.865224,-0.492880,0.449936,23.030001,-3.360000,-13.650000,20.64
705144,0.888648,-0.390400,0.446520,34.230000,-4.340000,-28.910000,20.63
705156,0.893528,-0.409432,0.445056,50.119999,-4.270000,-44.099998,20.63
705167,0.899384,-0.412848,0.441640,77.209999,-5.250000,-57.680000,20.64
705179,0.910120,-0.314760,0.445544,106.120003,-5.600000,-68.040001,20.67
705190,0.909632,-0.203496,0.445544,130.059998,-3.920000,-70.349998,20.67
705202,0.890600,-0.140056,0.470920,142.589996,-4.270000,-73.010002,20.68
705213,0.889136,-0.042456,0.537776,146.860001,-6.020000,-70.000000,20.68
705224,0.866688,0.154208,0.526552,129.149994,-8.050000,-61.110001,20.68
705236,0.854000,0.174704,0.459696,101.639999,-8.260000,-51.099998,20.64
705247,0.841800,0.181536,0.400160,79.309998,-7.980000,-42.980000,20.64
705258,0.818376,0.264496,0.353312,49.630001,-6.510000,-29.260000,20.64
705270,0.813008,0.362584,0.317200,11.480000,-5.180000,-13.230000,20.64
705281,0.806176,0.357216,0.332328,-22.540001,-2.520000,1.820000,20.63
705292,0.815448,0.405040,0.351360,-55.930000,-1.470000,13.300000,20.63
705304,0.858880,0.393328,0.413336,-86.309998,2.450000,33.110001,20.63
705315,0.870592,0.376736,0.468480,-105.699997,3.500000,43.610001,20.62
705326,0.904264,0.372344,0.622200,-118.230003,3.920000,54.459999,20.62
705337,0.936472,0.355752,0.478728,-124.739998,2.590000,63.279999,20.62
705348,0.951112,0.229360,0.451400,-125.510002,2.590000,71.750000,20.63
705359,0.945256,0.152256,0.426512,-115.989998,5.600000,73.220001,20.63
705370,0.914024,0.081008,0.417240,-102.129997,6.580000,72.239998,20.66
705381,0.879376,-0.003904,0.434808,-92.750000,9.310000,65.309998,20.66
705393,0.860832,-0.161528,0.439200,-81.199997,11.480000,55.650002,20.59
705404,0.858392,-0.442616,0.443592,-57.049999,12.670000,40.950001,20.59
705415,0.834968,-0.541192,0.464576,-26.110001,9.940000,24.709999,20.59
705427,0.831552,-0.561200,0.483120,-2.170000,4.830000,8.120000,20.61
705438,0.846192,-0.498736,0.481168,11.900000,2.030000,-4.760000,20.61
705449,0.851560,-0.420168,0.485072,16.940001,0.350000,-20.090000,20.64
705460,0.859368,-0.368440,0.468968,20.580000,0.280000,-35.490002,20.58
705472,0.867176,-0.342576,0.472384,30.379999,-0.280000,-50.540001,20.58
705483,0.887672,-0.358192,0.481168,53.900002,-1.260000,-61.110001,20.63
705494,0.907192,-0.404064,0.497272,93.800003,-3.150000,-74.339996,20.63
705506,0.905728,-0.379664,0.487024,144.130005,-4.130000,-85.470001,20.64
705517,0.895480,-0.242048,0.474336,192.429993,-4.970000,-91.070000,20.64
705528,0.914512,-0.042944,0.476776,217.630005,-3.990000,-87.989998,20.64
705539,0.900848,0.124928,0.504104,214.479996,-3.640000,-81.690002,20.64
705551,0.866200,0.179096,0.548512,187.600006,-3.430000,-71.610001,20.64
705562,0.860344,0.226920,0.510936,150.009995,1.540000,-37.869999,20.66
705573,0.798856,0.325008,0.404064,106.400002,-6.440000,-52.990002,20.67
705584,0.794952,0.289872,0.316224,66.500000,-1.680000,-33.320000,20.67
705595,0.759816,0.484096,0.302560,5.530000,-3.010000,-10.430000,20.65
705607,0.791048,0.533384,0.341112,-53.830002,-2.590000,11.060000,20.65
705618,0.825208,0.503128,0.450912,-107.379997,-1.890000,28.980000,20.68
705630,0.875472,0.466528,0.548512,-136.360001,0.420000,39.340000,20.61
705641,0.891576,0.420656,0.605120,-149.309998,1.610000,50.259998,20.61
705652,0.910608,0.379664,0.630496,-156.520004,-1.470000,61.599998,20.66
705663,0.937448,0.255712,0.581208,-163.380005,-3.500000,70.000000,20.66
705674,0.944280,0.255712,0.531432,-162.539993,-8.820000,76.720001,20.66
705685,0.937448,0.195200,0.480680,-153.160004,-10.010000,74.830002,20.66
705696,0.916464,0.051240,0.457256,-135.169998,-5.530000,66.919998,20.66
705708,0.880352,-0.071248,0.416752,-116.690002,-0.420000,57.470001,20.62
705719,0.860832,-0.304512,0.390888,-81.970001,4.200000,41.580002,20.62
705730,0.852048,-0.487024,0.369416,-35.070000,5.390000,24.080000,20.64
705742,0.838384,-0.384056,0.366488,11.200000,4.410000,4.900000,20.67
705753,0.845216,-0.405040,0.390888,40.950001,2.730000,-7.420000,20.67
705764,0.864736,-0.351848,0.412360,57.680000,2.100000,-22.120001,20.67
705776,0.877424,-0.256200,0.454328,67.690002,1.750000,-36.330002,20.67
705787,0.886208,-0.203008,0.511424,74.760002,1.190000,-49.770000,20.62
705799,0.910120,-0.240096,0.548024,95.269997,-0.840000,-60.619999,20.67
705810,0.918416,-0.275720,0.543144,131.250000,-0.980000,-71.400002,20.67
705822,0.913536,-0.203496,0.531432,169.679993,-2.310000,-76.580002,20.65
705833,0.935008,-0.106384,0.492880,196.630005,-1.260000,-68.879997,20.59
705845,0.913536,-0.028304,0.447984,196.279999,-0.070000,-68.389999,20.59
705856,0.868640,-0.062952,0.468480,168.839996,1.750000,-59.500000,20.58
705868,0.766648,0.053680,0.471408,123.900002,-3.360000,-48.509998,20.58
705879,0.718336,0.301584,0.455304,53.900002,-11.480000,-29.400000,20.66
705890,0.740784,0.572912,0.459208,-27.930000,-15.540000,-8.050000,20.60
705902,0.807152,0.604632,0.451400,-91.349998,-13.580000,10.150000,20.60
705913,0.853512,0.541680,0.483608,-133.910004,-9.450000,22.820000,20.66
705925,0.889624,0.413824,0.508984,-152.529999,-5.530000,35.770000,20.66
705936,0.916464,0.365024,0.576328,-160.929993,-5.670000,49.139999,20.64
705948,0.921344,0.365512,0.557296,-166.669998,-10.780000,61.110001,20.62
705959,0.968680,0.318664,0.520696,-157.080002,-14.070000,68.809998,20.62
705970,0.969168,0.370392,0.475312,-144.130005,-14.420000,71.680000,20.63
705982,0.952088,0.299632,0.440664,-133.559998,-9.100000,70.000000,20.68
705994,0.921344,0.095160,0.401624,-112.489998,-2.800000,62.160000,20.68
706005,0.882304,-0.168848,0.376248,-76.300003,2.730000,49.980000,20.67
706016,0.860344,-0.355264,0.363560,-33.810001,4.410000,35.209999,20.67
706028,0.850096,-0.448472,0.368440,6.510000,3.780000,19.040001,20.65
706039,0.836920,-0.391376,0.404064,32.130001,1.470000,4.130000,20.66
706050,0.848632,-0.340624,0.427000,52.220001,1.190000,-9.870000,20.66
706061,0.858880,-0.302072,0.464576,65.309998,0.980000,-23.940001,20.65
706073,0.863272,-0.282552,0.504104,75.739998,0.910000,-34.860001,20.65
706084,0.877424,-0.307440,0.521184,96.599998,-0.420000,-47.459999,20.65
706096,0.890600,-0.236680,0.543632,119.070000,-1.470000,-56.209999,20.62
706107,0.894992,-0.204472,0.528992,146.509995,-1.820000,-62.439999,20.62
706119,0.894992,-0.114192,0.502640,171.289993,-3.360000,-64.470001,20.63
706130,0.895968,0.024400,0.476776,183.190002,-3.500000,-61.880001,20.63
706142,0.881328,0.168848,0.468968,182.070007,-3.360000,-58.869999,20.67
706153,0.871568,0.253272,0.497760,168.630005,-6.300000,-49.279999,20.61
706164,0.853512,0.321592,0.471896,139.369995,-5.880000,-44.240002,20.61
706175,0.823256,0.199592,0.442128,116.059998,-3.360000,-39.900002,20.65
706186,0.791536,0.319152,0.412360,83.300003,-4.130000,-28.070000,20.65
706198,0.791048,0.335256,0.398696,36.680000,-4.830000,-14.770000,20.62
706209,0.813008,0.419192,0.413824,15.610000,-3.360000,-1.750000,20.61
706220,0.828624,0.456768,0.395768,-23.730000,-1.190000,11.130000,20.61
706232,0.837408,0.474336,0.394304,-63.980000,1.400000,23.379999,20.63
706243,0.861320,0.378200,0.400648,-88.410004,4.060000,31.290001,20.63
706254,0.860832,0.321104,0.425536,-102.760002,4.690000,37.310001,20.63
706266,0.881816,0.247416,0.434320,-108.430000,3.710000,41.720001,20.66
706277,0.899872,0.078080,0.456768,-102.900002,4.200000,44.099998,20.66
706288,0.908168,0.001952,0.478728,-88.269997,4.760000,46.830002,20.64
706299,0.899872,0.067344,0.506544,-89.459999,1.050000,47.320000,20.61
706310,0.916952,0.071248,0.504592,-99.120003,-0.070000,51.380001,20.61
706322,0.933544,-0.151280,0.553880,-93.730003,-0.980000,48.790001,20.66
706333,0.913536,-0.042944,0.559248,-96.949997,-5.320000,47.459999,20.66
706345,0.933544,-0.045872,0.542168,-101.500000,-8.890000,45.570000,20.65
706356,0.945744,0.024400,0.496296,-106.120003,-11.410000,45.009998,20.64
706367,0.954528,0.008784,0.460184,-106.750000,-11.410000,42.630001,20.64
706378,0.928664,-0.076128,0.446032,-99.260002,-8.400000,33.810001,20.68
706390,0.922320,-0.203984,0.414800,-80.290001,-5.110000,23.170000,20.68
706401,0.896456,-0.254736,0.412848,-50.610001,-2.590000,10.080000,20.67
706413,0.882792,-0.234728,0.374296,-20.230000,-1.890000,-2.310000,20.68
706424,0.886696,-0.243512,0.370392,12.110000,-0.210000,-15.400000,20.68
706436,0.871568,-0.193736,0.414312,41.580002,1.890000,-29.190001,20.62
706448,0.883768,-0.191296,0.462136,74.690002,1.120000,-41.230000,20.62
706459,0.891088,-0.172264,0.502152,103.040001,1.190000,-53.410000,20.61
706470,0.896456,-0.166408,0.558760,138.039993,0.140000,-60.270000,20.63
706481,0.894992,-0.158600,0.577792,172.059998,-0.490000,-64.680000,20.63
706493,0.883280,-0.040992,0.577792,192.919998,-0.910000,-64.610001,20.65
706504,0.871568,0.015128,0.571448,191.029999,0.420000,-60.060001,20.59
706515,0.831552,-0.011712,0.549488,159.669998,1.190000,-53.689999,20.59
706527,0.751032,0.042456,0.484584,108.360001,-3.080000,-42.490002,20.62
706538,0.710528,0.355752,0.388448,64.540001,-10.570000,-22.540001,20.62
706549,0.756400,0.474824,0.366488,-10.640000,-12.320000,-3.990000,20.66
706560,0.799344,0.480680,0.386496,-70.559998,-8.330000,9.450000,20.65
706572,0.810080,0.473848,0.439688,-116.199997,-6.230000,23.799999,20.65
706583,0.842288,0.311832,0.495320,-134.610001,-3.430000,34.509998,20.66
706594,0.852048,0.259128,0.560712,-145.809998,-3.850000,43.820000,20.66
706605,0.863272,0.235216,0.593408,-147.350006,-7.280000,51.380001,20.65
706617,0.900360,0.244000,0.553392,-139.509995,-13.090000,57.889999,20.67
706628,0.934520,0.255224,0.478728,-130.199997,-15.470000,59.150002,20.67
706640,0.941840,0.285480,0.395768,-124.110001,-12.670000,54.669998,20.61
706652,0.930616,0.096136,0.354288,-107.029999,-5.110000,45.709999,20.61
706663,0.891088,-0.138104,0.360144,-72.029999,0.910000,34.720001,20.64
706674,0.881816,-0.174216,0.366488,-31.780001,2.870000,20.650000,20.64
706686,0.887672,-0.308416,0.402112,7.000000,5.320000,4.830000,20.64
706697,0.883768,-0.387960,0.430904,41.090000,2.800000,-13.020000,20.64
706708,0.898408,-0.461160,0.448472,87.010002,0.630000,-30.940001,20.64
706719,0.919392,-0.435784,0.492392,123.129997,-1.190000,-45.080002,20.65
706730,0.925248,-0.399672,0.540216,152.460007,-1.820000,-53.200001,20.66
706742,0.914512,-0.348432,0.564128,178.570007,-2.590000,-61.599998,20.66
706753,0.912072,-0.234728,0.587552,189.630005,-2.240000,-64.540001,20.63
706765,0.887184,-0.107848,0.575840,190.259995,-2.660000,-66.500000,20.63
706776,0.854000,0.020984,0.542656,173.740005,-6.790000,-62.090000,20.60
706787,0.848632,0.103944,0.434320,140.210007,-7.490000,-52.709999,20.67
706798,0.838384,0.136640,0.349408,99.120003,-4.620000,-42.279999,20.67
706809,0.793000,0.322080,0.321104,60.270000,-8.610000,-31.850000,20.66
706820,0.789584,0.492880,0.308904,-5.320000,-6.090000,-13.510000,20.66
706831,0.828624,0.453352,0.338184,-55.090000,-1.960000,3.640000,20.65
706842,0.807152,0.423584,0.422120,-90.930000,1.120000,14.350000,20.62
706853,0.825208,0.567056,0.444568,-139.160004,-0.630000,31.010000,20.62
706864,0.874008,0.414800,0.480680,-135.800003,0.700000,42.490002,20.64
706876,0.897432,0.404552,0.545096,-138.110001,-0.280000,51.660000,20.64
706887,0.909144,0.466040,0.561200,-150.149994,-4.270000,61.810001,20.66
706898,0.951112,0.382592,0.528992,-161.000000,-7.140000,70.139999,20.62
706909,0.963312,0.233752,0.489464,-157.919998,-7.700000,70.910004,20.62
706920,0.964776,0.136640,0.446520,-147.979996,-6.720000,69.160004,20.67
706932,0.945744,-0.017568,0.406504,-125.370003,-3.150000,61.529999,20.67
706943,0.913536,-0.089304,0.399184,-97.650002,-1.540000,52.849998,20.63
706955,0.895480,-0.227896,0.406016,-67.480003,1.470000,43.680000,20.64
706966,0.867664,-0.346480,0.412848,-33.599998,2.730000,28.629999,20.64
706977,0.855952,-0.387472,0.411384,-0.560000,1.960000,12.110000,20.64
706988,0.860344,-0.320128,0.432368,19.530001,0.560000,-2.310000,20.64
707000,0.874984,-0.316224,0.453840,37.730000,0.700000,-17.360001,20.66
707011,0.886208,-0.340624,0.491416,59.500000,0.210000,-32.830002,20.62
707022,0.892552,-0.287432,0.516304,82.040001,-0.420000,-46.970001,20.62
707033,0.918904,-0.307440,0.512400,109.269997,-0.280000,-54.880001,20.61
707044,0.913048,-0.291336,0.507520,135.309998,-1.540000,-66.989998,20.61
707056,0.900848,-0.219600,0.530944,166.039993,-3.570000,-71.680000,20.62
707067,0.901824,-0.109312,0.510448,182.979996,-1.120000,-68.669998,20.62
707079,0.871080,-0.047824,0.550952,181.160004,-1.750000,-66.080002,20.62
707090,0.830088,0.138592,0.532408,155.119995,-4.550000,-56.560001,20.62
707102,0.780312,0.228872,0.480192,117.809998,-7.630000,-44.590000,20.64
707113,0.762744,0.301584,0.442128,75.529999,-8.960000,-35.070000,20.64
707124,0.770064,0.352824,0.404552,26.110001,-7.280000,-19.459999,20.68
707136,0.770552,0.437248,0.371856,-24.850000,-6.090000,-3.220000,20.68
707147,0.792512,0.526552,0.367952,-59.849998,-5.320000,15.330000,20.65
707158,0.826672,0.477264,0.427488,-99.470001,-2.240000,29.190001,20.63
707170,0.843752,0.367952,0.525576,-118.370003,-2.170000,44.099998,20.63
707181,0.869128,0.416264,0.563152,-123.269997,-5.390000,55.369999,20.61
707192,0.916464,0.469456,0.569496,-136.360001,-8.540000,63.770000,20.61
707204,0.940376,0.375760,0.556320,-148.259995,-10.010000,71.190002,20.67
707215,0.951112,0.217160,0.501176,-147.770004,-9.800000,73.010002,20.64
707226,0.933544,0.068320,0.447984,-134.610001,-9.100000,71.260002,20.64
707237,0.919880,-0.002928,0.427488,-115.709999,-7.910000,64.889999,20.59
707249,0.903288,-0.090280,0.404064,-95.410004,-3.990000,55.790001,20.59
707260,0.878888,-0.240096,0.385520,-68.389999,-0.980000,43.540001,20.69
707271,0.865224,-0.413336,0.381616,-32.549999,0.560000,30.870001,20.61
707283,0.849120,-0.438712,0.368928,3.710000,0.560000,12.530000,20.61
707294,0.861808,-0.362096,0.380640,20.090000,0.350000,-1.190000,20.64
707305,0.881816,-0.363072,0.396744,38.430000,1.190000,-16.240000,20.64
707316,0.893528,-0.334768,0.428952,53.270000,1.750000,-31.850000,20.66
707328,0.897920,-0.311344,0.463112,69.720001,2.380000,-46.200001,20.64
707339,0.914512,-0.397232,0.492880,96.669998,1.610000,-58.310001,20.64
707351,0.905240,-0.410408,0.496296,135.240005,0.490000,-73.150002,20.64
707362,0.898408,-0.275232,0.513376,167.300003,-0.840000,-79.449997,20.61
707374,0.892552,-0.103944,0.503616,181.860001,0.000000,-76.510002,20.61
707385,0.897920,-0.058560,0.490440,186.759995,2.380000,-75.809998,20.62
707397,0.839360,0.013664,0.521672,178.149994,1.540000,-70.209999,20.62
707408,0.788120,0.221064,0.461648,153.229996,-2.030000,-58.380001,20.67
707419,0.770552,0.281088,0.428952,113.330002,-2.660000,-44.099998,20.66
707431,0.752496,0.427488,0.391864,60.340000,-1.890000,-26.180000,20.66
707442,0.742736,0.582184,0.374296,-1.820000,-2.660000,-7.280000,20.64
707454,0.771040,0.672464,0.367952,-67.550003,-2.800000,9.100000,20.64
707465,0.819352,0.681736,0.398696,-120.680000,-1.260000,28.840000,20.69
707476,0.861320,0.535824,0.452376,-148.259995,1.890000,41.650002,20.63
707488,0.893528,0.391376,0.506056,-153.720001,3.150000,53.619999,20.63
707499,0.914512,0.336232,0.535336,-154.490005,1.190000,63.419998,20.69
707511,0.927200,0.261080,0.510936,-157.990005,-1.610000,70.349998,20.69
707522,0.943792,0.147376,0.495808,-152.880005,-3.080000,73.080002,20.66
707534,0.941840,0.075152,0.473360,-132.440002,-2.380000,71.330002,20.65
707545,0.930128,0.089792,0.428952,-119.000000,-1.260000,65.800003,20.65
707557,0.904752,-0.082472,0.408456,-103.459999,4.060000,54.740002,20.64
707568,0.880840,-0.369904,0.384056,-75.459999,8.890000,41.020000,20.66
707580,0.863272,-0.395768,0.391376,-37.660000,10.010000,29.120001,20.66
707591,0.853024,-0.481168,0.421632,0.630000,8.260000,13.020000,20.70
707603,0.851072,-0.478728,0.453840,31.639999,6.230000,-2.520000,20.70
707614,0.861808,-0.372832,0.491904,45.430000,5.180000,-15.400000,20.66
707626,0.876448,-0.254736,0.502152,48.790001,4.340000,-27.860001,20.68
707637,0.872544,-0.204960,0.518744,48.790001,5.040000,-41.230000,20.68
707648,0.868640,-0.187392,0.531920,57.820000,3.920000,-52.990002,20.65
707660,0.890600,-0.189344,0.540704,78.050003,2.590000,-62.160000,20.65
707672,0.899384,-0.210816,0.525088,112.349998,1.750000,-70.000000,20.62
707684,0.889136,-0.098088,0.549976,149.169998,-0.840000,-70.629997,20.62
707696,0.893528,-0.009272,0.525088,160.300003,0.560000,-66.220001,20.62
707708,0.873032,0.013664,0.505568,149.520004,4.060000,-59.360001,20.60
707719,0.796904,0.009760,0.528016,128.869995,2.030000,-50.119999,20.68
707730,0.725656,0.240096,0.523624,104.370003,-5.950000,-37.240002,20.68
707743,0.731512,0.468480,0.474824,42.419998,-10.290000,-18.340000,20.63
707754,0.775920,0.525576,0.471408,-12.740000,-9.590000,-3.990000,20.64
707766,0.800320,0.557784,0.477752,-67.970001,-7.840000,13.160000,20.64
707777,0.850584,0.439200,0.479216,-101.989998,-4.970000,26.740000,20.64
707788,0.871080,0.356728,0.507032,-114.029999,-4.620000,40.110001,20.64
707800,0.885232,0.299144,0.556808,-117.739998,-6.860000,52.080002,20.66
707811,0.906216,0.339648,0.576816,-125.230003,-11.830000,60.410000,20.61
707823,0.933056,0.335744,0.544608,-129.919998,-14.840000,67.269997,20.61
707834,0.953552,0.245952,0.486048,-119.279999,-13.580000,68.320000,20.66
707846,0.939400,0.156160,0.447984,-103.110001,-7.700000,65.379997,20.66
707857,0.922320,0.066856,0.425536,-89.250000,-3.500000,59.990002,20.67
707868,0.885232,-0.076616,0.407968,-73.290001,1.190000,51.169998,20.64
707880,0.864248,-0.310856,0.401624,-46.130001,2.730000,38.360001,20.64
707891,0.853512,-0.399672,0.416264,-17.150000,1.680000,23.940001,20.67
707903,0.853024,-0.422608,0.436760,3.570000,1.120000,10.080000,20.67
707914,0.856440,-0.338672,0.447496,22.540001,1.190000,-3.010000,20.62
707926,0.874496,-0.248880,0.459208,30.100000,2.380000,-15.190000,20.64
707937,0.998448,-0.267424,0.465552,41.020000,3.010000,-27.790001,20.64
707949,0.858392,-0.231312,0.478240,61.320000,2.730000,-41.299999,20.66
707960,0.879376,-0.234240,0.502640,91.769997,1.610000,-51.240002,20.60
707972,0.903288,-0.225456,0.501176,126.070000,1.890000,-61.180000,20.60
707983,0.902800,-0.194224,0.530944,159.250000,1.260000,-64.610001,20.66
707995,0.895480,-0.088328,0.522160,175.910004,4.130000,-60.480000,20.66
708007,0.862784,-0.040016,0.562176,169.539993,4.830000,-59.220001,20.65
708018,0.815448,-0.022448,0.541680,151.059998,3.850000,-53.340000,20.63
708029,0.760792,0.126392,0.517768,126.699997,-1.400000,-42.980000,20.63
708041,0.742736,0.391376,0.482632,77.489998,-7.350000,-26.600000,20.65
708053,0.789584,0.420168,0.431880,21.280001,-5.950000,-13.230000,20.62
708064,0.794464,0.427488,0.416752,-17.010000,-2.940000,0.770000,20.62
708075,0.803248,0.537776,0.422608,-63.630001,-3.010000,16.660000,20.64
708087,0.828136,0.418704,0.501664,-100.449997,-2.730000,30.379999,20.64
708098,0.841312,0.371856,0.588528,-116.550003,-3.850000,42.279999,20.65
708110,0.871080,0.350384,0.601216,-123.339996,-6.930000,53.060001,20.65
708121,0.904264,0.360144,0.566568,-132.929993,-10.570000,58.590000,20.65
708132,0.951112,0.236192,0.510936,-130.130005,-10.780000,62.580002,20.68
708144,0.943304,0.202520,0.479216,-116.690002,-10.430000,65.660004,20.68
708155,0.935496,0.154696,0.461160,-101.989998,-8.330000,65.449997,20.65
708167,0.910120,0.045384,0.461648,-87.290001,-5.320000,59.990002,20.61
708178,0.889136,-0.114192,0.461160,-67.059998,-2.030000,51.029999,20.61
708190,0.869128,-0.263520,0.450424,-40.529999,-0.210000,38.779999,20.64
708202,0.861320,-0.351360,0.436760,-12.670000,0.070000,25.340000,20.64
708213,0.857416,-0.320616,0.444080,6.300000,0.280000,10.780000,20.64
708225,0.865224,-0.285480,0.447496,15.260000,0.910000,-0.630000,20.68
708236,0.871568,-0.245952,0.452864,22.469999,2.170000,-13.790000,20.68
708248,0.878888,-0.204472,0.486536,26.879999,1.750000,-25.270000,20.69
708259,0.871080,-0.284992,0.501176,43.259998,1.890000,-39.619999,20.64
708271,0.889136,-0.350872,0.527528,76.160004,0.280000,-51.380001,20.64
708283,0.898896,-0.338672,0.540704,117.180000,-0.840000,-59.220001,20.64
708294,0.888160,-0.209352,0.543144,147.630005,-2.870000,-60.549999,20.64
708306,0.895968,-0.172752,0.523136,164.500000,-1.260000,-59.779999,20.66
708317,0.856440,-0.114680,0.527040,165.339996,0.210000,-56.980000,20.65
708329,0.797880,0.030744,0.505568,143.500000,-2.520000,-47.740002,20.65
708340,0.764696,0.217648,0.473360,102.480003,-7.630000,-38.570000,20.64
708351,0.756400,0.301584,0.453840,50.259998,-7.910000,-23.520000,20.64
708362,0.751520,0.370880,0.490440,9.590000,-8.330000,-12.390000,20.63
708374,0.764696,0.530944,0.475800,-41.720001,-9.590000,4.270000,20.66
708386,0.830576,0.456280,0.460672,-90.440002,-7.350000,17.219999,20.66
708398,0.844240,0.296704,0.490440,-102.900002,-4.480000,27.860001,20.64
708409,0.862296,0.335744,0.504592,-107.449997,-6.440000,39.759998,20.67
708420,0.899384,0.352824,0.499712,-109.199997,-7.840000,49.070000,20.67
708432,0.916952,0.309392,0.492392,-111.580002,-8.400000,54.950001,20.67
708443,0.934520,0.240096,0.492880,-105.839996,-6.790000,58.939999,20.67
708455,0.922808,0.169824,0.482632,-93.099998,-4.690000,58.450001,20.65
708466,0.908168,0.112240,0.470920,-83.790001,-2.310000,54.740002,20.68
708478,0.891576,-0.035136,0.458232,-72.589996,1.120000,49.419998,20.68
708489,0.870592,-0.212280,0.451888,-54.040001,3.150000,39.200001,20.66
708501,0.860832,-0.315248,0.449448,-33.389999,3.220000,28.559999,20.64
708512,0.849120,-0.368440,0.458232,-13.440000,2.660000,16.030001,20.64
708524,0.847656,-0.357216,0.468968,3.990000,2.520000,2.660000,20.69
708536,0.862784,-0.250344,0.478240,9.730000,2.380000,-7.770000,20.69
708547,0.860832,-0.237656,0.469944,19.180000,4.060000,-20.719999,20.64
708560,0.874008,-0.140056,0.501664,24.150000,3.780000,-33.599998,20.68
708571,0.876448,-0.245464,0.521184,45.919998,3.990000,-43.119999,20.68
708583,0.894504,-0.332816,0.490928,86.309998,4.060000,-53.619999,20.66
708594,0.895480,-0.299632,0.506544,128.240005,3.570000,-61.180000,20.68
708605,0.896944,-0.195688,0.505568,158.970001,2.940000,-64.330002,20.68
708617,0.879376,-0.110288,0.500200,173.179993,3.990000,-64.120003,20.64
708629,0.837408,0.029768,0.532896,160.300003,4.410000,-58.310001,20.64
708640,0.781288,0.138592,0.542168,117.809998,1.050000,-48.790001,20.61
708652,0.752008,0.220576,0.508008,71.190002,-3.220000,-36.259998,20.62
708664,0.732976,0.384544,0.538264,18.129999,-8.120000,-24.850000,20.62
708675,0.783240,0.469456,0.509472,-35.279999,-8.190000,-10.850000,20.64
708687,0.814472,0.416264,0.491904,-74.410004,-6.440000,4.200000,20.64
708698,0.847168,0.302072,0.471408,-88.830002,-4.060000,16.100000,20.66
708710,0.847168,0.297192,0.500688,-98.559998,-3.500000,30.309999,20.64
708721,0.852048,0.286456,0.558272,-102.059998,-5.180000,40.810001,20.64
708732,0.889624,0.344528,0.553392,-107.589996,-6.720000,47.529999,20.67
708744,0.926224,0.272304,0.520208,-106.330002,-6.510000,50.680000,20.61
708755,0.939400,0.203984,0.492880,-99.050003,-4.270000,52.290001,20.61
708766,0.917440,0.204472,0.486536,-98.419998,-3.290000,52.150002,20.63
708778,0.904264,0.046848,0.484584,-94.430000,0.140000,47.599998,20.63
708789,0.892064,-0.127368,0.484584,-78.750000,2.520000,39.900002,20.61
708800,0.876448,-0.248392,0.483120,-55.580002,3.920000,30.170000,20.64
708811,0.874984,-0.314272,0.467992,-28.629999,3.990000,21.209999,20.64
708823,0.863272,-0.250344,0.452376,-8.050000,4.900000,8.400000,20.67
708834,0.867664,-0.217160,0.474824,5.530000,5.460000,-1.750000,20.67
708846,0.865224,-0.232288,0.475800,22.750000,6.020000,-14.070000,20.64
708857,0.873032,-0.215696,0.514352,38.919998,5.810000,-26.389999,20.63
708868,0.874496,-0.287920,0.558272,59.009998,4.340000,-38.639999,20.63
708879,0.876936,-0.281088,0.576816,89.949997,3.290000,-49.840000,20.68
708890,0.882792,-0.249856,0.599752,120.470001,1.960000,-55.930000,20.68
708902,0.866200,-0.116632,0.611464,135.729996,-0.560000,-56.840000,20.66
708913,0.870592,-0.011224,0.573888,134.750000,-1.120000,-54.459999,20.67
708925,0.867176,-0.055144,0.526064,126.910004,-0.070000,-53.759998,20.67
708936,0.831552,-0.086864,0.473360,113.750000,1.680000,-46.900002,20.67
708947,0.762744,0.067344,0.471896,86.870003,-3.570000,-36.750000,20.67
708959,0.729072,0.314272,0.468480,42.139999,-8.890000,-20.580000,20.67
708970,0.765672,0.374296,0.487024,-8.190000,-10.500000,-7.910000,20.62
708982,0.796416,0.439200,0.516792,-49.770000,-7.980000,5.600000,20.62
708993,0.806176,0.433832,0.568032,-87.080002,-7.700000,15.610000,20.67
709005,0.839360,0.318176,0.604632,-104.720001,-6.020000,25.620001,20.65
709016,0.848632,0.312320,0.617808,-105.209999,-8.540000,34.930000,20.65
709027,0.874008,0.405040,0.607560,-109.900002,-12.950000,44.590000,20.66
709039,0.926224,0.311832,0.549976,-111.230003,-13.720000,50.119999,20.66
709050,0.926712,0.213744,0.501664,-96.809998,-11.060000,50.959999,20.61
709062,0.919880,0.204960,0.458232,-82.599998,-8.540000,51.590000,20.62
709074,0.911584,0.079056,0.431392,-67.970001,-3.570000,47.389999,20.62
709085,0.883280,-0.043920,0.417240,-49.630001,0.910000,40.320000,20.66
709097,0.861320,-0.167872,0.413336,-28.840000,3.080000,30.520000,20.66
709108,0.854488,-0.232776,0.431880,-10.920000,4.200000,18.410000,20.60
709120,0.858392,-0.255712,0.460184,6.090000,4.900000,6.860000,20.64
709131,0.846680,-0.138104,0.495808,13.090000,5.250000,-4.200000,20.64
709143,0.863272,-0.164456,0.524600,17.780001,5.390000,-12.740000,20.70
709154,0.865224,-0.266448,0.564128,37.450001,5.950000,-28.629999,20.60
709166,0.870104,-0.317688,0.583648,70.000000,2.100000,-39.340000,20.60
709178,0.889624,-0.289384,0.579256,103.389999,0.210000,-50.189999,20.71
709189,0.898896,-0.283040,0.561688,135.309998,-1.190000,-56.630001,20.71
709200,0.893040,-0.211792,0.553392,161.559998,-1.400000,-59.290001,20.62
709212,0.875472,-0.061488,0.516792,173.740005,-2.520000,-59.709999,20.66
709224,0.849120,0.068808,0.483120,157.570007,-2.310000,-53.410000,20.66
709235,0.813496,0.057096,0.470432,134.539993,-1.890000,-48.650002,20.68
709246,0.773968,0.048312,0.482632,114.730003,-3.290000,-40.740002,20.68
709257,0.745664,0.276208,0.518256,72.870003,-6.510000,-26.530001,20.67
709269,0.743224,0.455304,0.517280,12.320000,-10.990000,-8.540000,20.62
709280,0.777384,0.464088,0.512888,-45.990002,-11.200000,1.400000,20.62
709295,0.805688,0.517768,0.504592,-96.809998,-10.570000,19.809999,20.61
709306,0.846192,0.358192,0.506056,-115.360001,-9.310000,27.090000,20.63
709317,0.874008,0.250832,0.507520,-115.080002,-6.160000,35.070000,20.63
709329,0.873032,0.183488,0.537288,-106.750000,-7.770000,40.459999,20.65
709340,0.874984,0.215696,0.594384,-105.839996,-12.320000,46.549999,20.65
709351,0.901336,0.277184,0.558272,-108.709999,-15.750000,52.360001,20.60
709363,0.927200,0.220576,0.530944,-104.510002,-15.190000,52.919998,20.64
709376,0.925736,0.227896,0.502152,-98.070000,-12.530000,52.360001,20.64
709389,0.916464,0.119072,0.461648,-93.730003,-7.420000,48.020000,20.65
709400,0.899872,-0.052704,0.443592,-81.269997,-3.150000,40.110001,20.62
709412,0.873032,-0.232288,0.437736,-59.500000,-2.100000,30.240000,20.62
709423,0.870104,-0.319640,0.439688,-31.780001,-2.590000,19.320000,20.65
709435,0.869128,-0.290848,0.427976,-4.620000,-2.450000,7.980000,20.70
709446,0.884744,-0.173728,0.431392,13.580000,-0.700000,-2.590000,20.70
709457,0.889136,-0.082472,0.458720,20.860001,2.240000,-10.850000,20.69
709469,0.876936,-0.140056,0.511912,34.090000,3.220000,-23.240000,20.69
709481,0.868640,-0.241560,0.550952,65.449997,2.310000,-37.380001,20.68
709492,0.894504,-0.270840,0.564128,103.879997,1.120000,-48.509998,20.65
709503,0.899872,-0.274744,0.573888,141.820007,-0.070000,-56.000000,20.65
709515,0.895968,-0.209840,0.568032,164.919998,-1.190000,-58.169998,20.66
709526,0.889136,-0.118096,0.546072,179.970001,-0.840000,-57.820000,20.66
709538,0.845216,-0.082960,0.538264,180.110001,-0.490000,-57.189999,20.64
709549,0.814960,-0.028304,0.489464,162.889999,-1.820000,-50.820000,20.68
709561,0.761768,0.137616,0.467992,128.589996,-5.320000,-40.599998,20.68
709573,0.743224,0.389424,0.411384,71.820000,-11.900000,-25.549999,20.68
709585,0.783240,0.426024,0.396744,-2.520000,-8.610000,-10.920000,20.68
709597,0.783728,0.417240,0.427488,-55.090000,-5.040000,3.080000,20.68
709607,0.776896,0.426024,0.451400,-89.809998,-4.480000,15.610000,20.65
709619,0.804712,0.361120,0.511912,-118.230003,-4.480000,25.830000,20.65
709629,0.833504,0.349896,0.543632,-128.309998,-4.970000,37.240002,20.67
709641,0.853512,0.383568,0.590480,-130.479996,-9.380000,47.320000,20.66
709652,0.906216,0.411384,0.574376,-139.580002,-11.900000,56.279999,20.66
709663,0.942816,0.288408,0.539240,-138.460007,-11.200000,59.220001,20.66
709674,0.930128,0.184952,0.502640,-121.379997,-10.080000,60.270000,20.66
709685,0.926224,0.167384,0.462136,-101.709999,-8.890000,59.779999,20.70
709696,0.922320,0.118584,0.408456,-87.989998,-4.900000,56.139999,20.60
709708,0.891088,0.002440,0.379664,-69.300003,0.980000,47.950001,20.60
709719,0.869128,-0.180072,0.377224,-47.110001,4.690000,36.750000,20.66
709730,0.860832,-0.320128,0.402600,-18.760000,7.000000,25.690001,20.66
709742,0.849120,-0.368928,0.437248,9.520000,7.280000,10.290000,20.65
709753,0.859856,-0.275720,0.459208,22.610001,6.440000,-1.120000,20.70
709764,0.858392,-0.263520,0.506544,28.770000,7.000000,-13.650000,20.70
709775,0.853512,-0.212768,0.531432,38.009998,7.280000,-25.340000,20.67
709786,0.868152,-0.209352,0.557784,51.169998,5.600000,-52.570000,20.67
709798,0.878400,-0.257176,0.557296,77.699997,4.410000,-46.970001,20.68
709809,0.888160,-0.256688,0.560224,111.650002,3.360000,-57.400002,20.67
709820,0.888160,-0.160064,0.556808,132.860001,1.400000,-61.389999,20.67
709831,0.893528,-0.049288,0.542656,149.240005,0.770000,-60.200001,20.66
709843,0.878400,0.064416,0.523624,149.380005,-0.910000,-57.330002,20.66
709854,0.871080,0.018544,0.517280,143.289993,0.980000,-53.970001,20.67
709866,0.810080,0.005368,0.520696,120.680000,1.540000,-45.500000,20.65
709877,0.734928,0.109312,0.550952,84.559998,-3.710000,-34.930000,20.65
709888,0.718824,0.357704,0.569984,33.180000,-10.360000,-19.389999,20.67
709899,0.767136,0.477752,0.537288,-8.190000,-11.550000,-5.530000,20.67
709911,0.793976,0.525088,0.495320,-55.790001,-10.990000,7.700000,20.62
709922,0.837896,0.386008,0.446032,-93.870003,-10.570000,19.530001,20.63
709933,0.876936,0.361120,0.459696,-113.260002,-7.420000,30.799999,20.63
709944,0.868640,0.263520,0.517280,-118.930000,-7.140000,40.320000,20.65
709956,0.881816,0.371368,0.579744,-125.720001,-11.830000,51.310001,20.65
709967,0.921832,0.329888,0.570960,-124.809998,-14.770000,58.450001,20.62
709980,0.956480,0.175680,0.559248,-108.570000,-13.160000,60.410000,20.67
709992,0.933056,0.228872,0.487024,-90.720001,-12.390000,62.369999,20.67
710005,0.935008,0.174704,0.442128,-78.610001,-7.420000,60.200001,20.64
710017,0.907680,0.049776,0.409432,-65.940002,-2.030000,54.810001,20.67
710030,0.866688,-0.138592,0.404064,-45.919998,1.680000,41.580002,20.67
710041,0.868640,-0.277672,0.415288,-25.270000,3.080000,29.750000,20.66
710052,0.866688,-0.345016,0.452376,-0.700000,4.550000,1.120000,20.63
710063,0.863760,-0.272304,0.504104,12.250000,4.200000,6.230000,20.63
710074,0.861320,-0.295240,0.543632,19.809999,2.870000,-6.230000,20.65
710086,0.862784,-0.387472,0.566568,37.869999,-17.360001,-20.160000,20.65
710097,0.879376,-0.384544,0.584136,61.320000,-2.870000,-33.180000,20.63
710108,0.892064,-0.379176,0.563640,87.220001,-3.850000,-42.349998,20.67
710120,0.890112,-0.381128,0.554368,110.250000,-2.730000,-47.320000,20.67
710131,0.883768,-0.438712,0.522160,131.250000,-3.220000,-53.549999,20.70
710143,0.848144,-0.216184,0.478728,130.690002,-7.000000,-50.680000,20.65
710154,0.802760,0.108824,0.454328,102.129997,-12.040000,-39.970001,20.65
710165,0.801784,0.174704,0.456768,55.160000,-13.650000,-32.900002,20.63
710177,0.790072,0.228384,0.503128,14.700000,-12.600000,-24.290001,20.63
710188,0.770552,0.365512,0.566568,-30.379999,-13.930000,-12.390000,20.66
710199,0.804224,0.295240,0.618296,-64.470001,-13.370000,-1.470000,20.66
710211,0.821304,0.311344,0.597312,-81.129997,-16.170000,11.830000,20.66
710222,0.850096,0.466528,0.544120,-96.529999,-19.459999,29.959999,20.67
710233,0.913048,0.405040,0.505568,-99.470001,-19.740000,43.330002,20.67
710244,0.920368,0.440176,0.470432,-96.250000,-17.430000,53.900002,20.61
710255,0.924760,0.464576,0.414800,-93.730003,-14.910000,60.060001,20.64
710266,0.918904,0.360632,0.379176,-87.080002,-7.420000,61.250000,20.64
710277,0.902800,0.185928,0.329888,-76.019997,0.700000,57.189999,20.68
710289,0.877912,-0.079056,0.338184,-49.349998,6.160000,47.599998,20.68
710300,0.853024,-0.265960,0.368928,-19.389999,10.010000,36.049999,20.59
710312,0.831552,-0.313784,0.420168,9.800000,10.570000,21.280001,20.67
710323,0.832528,-0.300120,0.496296,24.639999,9.590000,11.130000,20.67
710334,0.841800,-0.380640,0.547536,34.860001,8.400000,-3.010000,20.65
710346,0.838872,-0.375760,0.566568,46.549999,5.740000,-17.010000,20.65
710357,0.849608,-0.394792,0.598288,59.150002,1.190000,-31.500000,20.67
710368,0.874496,-0.347944,0.590480,80.989998,-1.890000,-44.240002,20.67
710379,0.890600,-0.284016,0.576328,100.239998,-4.130000,-52.570000,20.67
710391,0.900848,-0.171288,0.554856,112.769997,-6.090000,-57.119999,20.64
710403,0.895480,-0.101016,0.535336,115.570000,-6.720000,-54.950001,20.64
710415,0.888648,-0.094184,0.538752,105.629997,-6.860000,-53.200001,20.64
710426,0.868640,-0.128832,0.491416,96.180000,-6.720000,-49.279999,20.63
710437,0.819352,-0.021960,0.416752,80.500000,-7.770000,-38.360001,20.63
710449,0.798368,0.097112,0.372832,57.049999,-9.310000,-30.520000,20.64
710460,0.780800,0.305976,0.392352,20.790001,-11.550000,-16.309999,20.65
710471,0.810080,0.465552,0.459208,-26.950001,-11.550000,0.140000,20.65
710483,0.855464,0.478240,0.513864,-72.940002,-8.120000,12.880000,20.61
710494,0.870104,0.327936,0.556320,-95.550003,-4.620000,22.330000,20.61
710505,0.848144,0.369904,0.574864,-111.300003,-8.750000,36.119999,20.62
710517,0.906704,0.376736,0.533872,-120.680000,-11.830000,48.299999,20.61
710528,0.948672,0.326472,0.494344,-118.510002,-11.900000,54.529999,20.61
710539,0.931592,0.296704,0.480680,-109.550003,-11.410000,58.169998,20.66
710550,0.927200,0.187880,0.431392,-100.099998,-7.000000,56.560001,20.66
710561,0.914024,0.051240,0.412360,-83.720001,-2.590000,51.310001,20.71
710572,0.879376,-0.095160,0.404552,-59.500000,1.960000,43.540001,20.64
710584,0.861320,-0.262056,0.390888,-27.930000,3.920000,32.410000,20.64
710595,0.849608,-0.257176,0.391376,-1.260000,6.440000,17.500000,20.68
710606,0.856928,-0.239608,0.416752,9.380000,8.050000,6.020000,20.68
710618,0.851560,-0.313784,0.450424,28.770000,9.940000,-8.750000,20.61
710629,0.867664,-0.335744,0.455304,51.099998,9.940000,-23.030001,20.64
710640,0.873520,-0.353800,0.461160,76.580002,9.030000,-34.020000,20.64
710651,0.896456,-0.370392,0.497272,101.919998,8.050000,-48.439999,20.65
710663,0.891576,-0.295728,0.543632,119.699997,6.510000,-57.820000,20.65
710674,0.877912,-0.224480,0.573400,127.820000,4.270000,-61.040001,20.61
710685,0.884744,-0.181536,0.575840,131.110001,3.990000,-60.340000,20.66
710697,0.856928,-0.134200,0.596824,127.260002,1.960000,-60.970001,20.66
710708,0.814960,0.039040,0.569496,102.410004,-0.700000,-51.939999,20.66
710719,0.787144,0.143472,0.517280,72.589996,-4.480000,-45.570000,20.66
710730,0.790072,0.129808,0.432368,57.610001,-3.990000,-35.700001,20.65
710741,0.750056,0.312808,0.479704,35.980000,-6.580000,-22.610001,20.66
710753,0.772504,0.458720,0.477752,-9.800000,-8.890000,-5.390000,20.66
710764,0.822280,0.355752,0.570960,-49.630001,-5.530000,7.770000,20.65
710775,0.817888,0.413824,0.554368,-75.739998,-9.100000,19.040001,20.65
710786,0.851072,0.466040,0.583160,-95.970001,-13.860000,32.480000,20.65
710798,0.911584,0.366976,0.588528,-105.139999,-15.470000,42.840000,20.60
710809,0.930128,0.381616,0.561200,-109.339996,-18.549999,55.299999,20.60
710820,0.938424,0.410896,0.505568,-114.239998,-18.059999,60.200001,20.64
710832,0.960384,0.328912,0.459696,-119.839996,-12.390000,61.040001,20.64
710843,0.923296,0.126880,0.415288,-107.730003,-5.040000,58.029999,20.65
710854,0.870104,0.062464,0.377712,-88.410004,-1.400000,50.750000,20.64
710866,0.868640,-0.177144,0.367952,-56.700001,3.430000,38.779999,20.64
710877,0.858392,-0.380640,0.383568,-15.120000,6.090000,25.129999,20.66
710889,0.844728,-0.374784,0.392352,15.470000,6.090000,11.340000,20.66
710900,0.853512,-0.310368,0.414800,40.389999,7.490000,-1.680000,20.66
710911,0.848632,-0.223016,0.461160,47.180000,9.800000,-13.930000,20.60
710922,0.850584,-0.193736,0.498736,46.689999,11.130000,-22.540001,20.60
710934,0.851072,-0.212768,0.529480,50.610001,11.760000,-34.369999,20.63
710945,0.855464,-0.180560,0.556808,59.990002,9.520000,-43.259998,20.65
710957,0.868152,-0.186416,0.553880,79.730003,7.070000,-51.029999,20.65
710968,0.887672,-0.142496,0.553880,96.389999,4.550000,-55.439999,20.59
710979,0.895968,-0.070760,0.535336,107.800003,5.040000,-56.139999,20.59
710990,0.900360,-0.107848,0.545584,114.940002,4.060000,-36.610001,20.64
711001,0.867664,-0.149328,0.507032,115.919998,4.270000,-53.549999,20.63
711012,0.804224,-0.035136,0.494344,102.550003,1.960000,-44.240002,20.63
711024,0.768600,0.213256,0.477752,81.480003,-4.480000,-31.570000,20.63
711035,0.767624,0.385520,0.520208,41.509998,-6.930000,-17.570000,20.63
711046,0.786656,0.411872,0.584136,-6.230000,-7.700000,-9.450000,20.66
711057,0.814472,0.363072,0.633912,-43.400002,-6.370000,0.840000,20.61
711068,0.830576,0.377224,0.613904,-65.660004,-9.800000,12.530000,20.61
711079,0.862296,0.395280,0.581208,-87.779999,-12.320000,27.020000,20.62
711091,0.898408,0.419680,0.491416,-101.570000,-15.890000,41.720001,20.62
711102,0.941352,0.407968,0.469944,-108.570000,-18.059999,50.330002,20.66
711113,0.945256,0.413824,0.448960,-109.690002,-15.470000,55.020000,20.71
711124,0.938912,0.283040,0.448960,-100.169998,-9.870000,55.650002,20.71
711135,0.920368,0.200568,0.442616,-89.739998,-4.340000,52.570000,20.65
711147,0.896944,0.069784,0.430416,-77.349998,17.709999,46.549999,20.65
711158,0.878400,-0.159576,0.414800,-52.080002,3.850000,36.470001,20.63
711169,0.866688,-0.237656,0.406016,-23.940001,4.830000,27.020000,20.66
711181,0.856928,-0.291824,0.423096,-1.890000,4.620000,14.700000,20.66
711192,0.865224,-0.314272,0.450912,13.720000,5.460000,3.990000,20.68
711203,0.865712,-0.191296,0.482144,17.990000,6.650000,-6.580000,20.68
711214,0.865712,-0.191784,0.491904,20.860001,8.400000,-15.890000,20.61
711225,0.855952,-0.169336,0.521672,24.780001,7.070000,-26.459999,20.72
711237,0.873520,-0.193248,0.514840,39.549999,6.930000,-36.119999,20.72
711248,0.883768,-0.210816,0.534360,62.439999,5.460000,-44.380001,20.66
711259,0.901336,-0.194712,0.549976,81.970001,5.180000,-50.119999,20.66
711271,0.894992,-0.149816,0.560224,99.959999,6.090000,-50.400002,20.67
711282,0.885232,-0.148352,0.576816,112.489998,4.970000,-51.029999,20.58
711293,0.837408,-0.069784,0.613904,113.330002,2.310000,-49.700001,20.58
711304,0.792512,0.115168,0.614880,95.830002,-2.310000,-41.720001,20.64
711316,0.789096,0.182024,0.546072,69.089996,-4.760000,-32.480000,20.64
711327,0.796904,0.139080,0.508984,49.980000,-4.900000,-22.820000,20.65
711338,0.764696,0.340136,0.506544,21.000000,-7.840000,-11.130000,20.71
711349,0.785680,0.455304,0.526064,-21.559999,-11.060000,-0.770000,20.71
711360,0.826184,0.447496,0.539728,-63.560001,-10.780000,12.460000,20.67
711371,0.839360,0.344528,0.574376,-83.230003,-11.480000,23.450001,20.67
711383,0.839848,0.338184,0.602680,-97.370003,-14.070000,33.880001,20.67
711394,0.868640,0.319640,0.579256,-105.629997,-17.010000,44.310001,20.61
711405,0.904264,0.292312,0.542656,-101.500000,-17.290001,49.700001,20.61
711416,0.919392,0.269864,0.498248,-88.339996,-16.870001,52.360001,20.63
711428,0.932080,0.307440,0.420656,-83.650002,-13.160000,55.299999,20.63
711439,0.922320,0.122488,0.379176,-73.919998,-8.260000,51.520000,20.68
711450,0.877912,0.014152,0.389912,-58.310001,-3.150000,45.080002,20.65
711461,0.861808,-0.148352,0.435784,-38.220001,-0.980000,39.130001,20.65
711472,0.854000,-0.261568,0.461160,-14.000000,0.280000,28.700001,20.66
711483,0.849608,-0.311832,0.467504,5.250000,0.560000,17.150000,20.66
711494,0.844728,-0.249368,0.467992,20.580000,1.120000,5.740000,20.70
711505,0.857416,-0.198616,0.468968,22.820000,2.940000,-1.610000,20.65
711517,0.852048,-0.126392,0.481656,20.510000,5.810000,-10.710000,20.65
711528,0.851560,-0.096624,0.504104,16.730000,6.580000,-20.090000,20.66
711539,0.863272,-0.221552,0.486536,29.750000,7.980000,-31.639999,20.66
711550,0.870592,-0.215696,0.506544,54.950001,6.650000,-41.299999,20.64
711562,0.888648,-0.229360,0.531920,80.709999,5.600000,-48.509998,20.71
711573,0.868640,-0.168360,0.566080,102.830002,4.130000,-52.009998,20.71
711585,0.880840,-0.075640,0.570960,113.330002,2.800000,-49.279999,20.65
711596,0.875960,-0.085888,0.564616,112.980003,3.640000,-49.770000,20.65
711607,0.833992,-0.111752,0.557296,103.320000,4.340000,-46.410000,20.67
711618,0.781288,0.037576,0.558760,87.639999,-1.680000,-39.060001,20.61
711630,0.763232,0.215208,0.517768,58.099998,-6.440000,-27.020000,20.61
711641,0.787144,0.271328,0.505568,25.690001,-6.370000,-15.820000,20.64
711652,0.779824,0.400160,0.531432,-10.780000,-8.400000,-7.980000,20.64
711664,0.814960,0.496296,0.542656,-47.740002,-8.680000,5.460000,20.64
711675,0.844728,0.393816,0.558272,-88.550003,-7.420000,15.190000,20.64
711686,0.851072,0.296216,0.562176,-81.339996,-7.630000,26.110001,20.64
711697,0.862296,0.298656,0.554856,-81.339996,-10.010000,34.580002,20.65
711709,0.896944,0.282552,0.539728,-80.919998,-11.480000,38.779999,20.65
711720,0.917440,0.251320,0.512400,-75.949997,-11.690000,44.029999,20.67
711731,0.920856,0.267424,0.496296,-72.239998,-11.410000,49.000000,20.62
711742,0.931104,0.203496,0.482632,-70.209999,-9.030000,50.820000,20.62
711753,0.906704,0.102480,0.478728,-68.180000,-6.300000,48.509998,20.71
711765,0.890600,-0.029768,0.493856,-61.389999,-4.830000,43.959999,20.71
711776,0.876936,-0.122488,0.486048,-49.910000,-3.710000,39.200001,20.69
711787,0.872056,-0.169824,0.475312,-37.660000,-3.710000,32.619999,20.64
711799,0.870592,-0.218136,0.461160,-24.430000,-2.380000,24.360001,20.64
711810,0.868152,-0.252296,0.450424,-13.440000,-0.770000,14.910000,20.67
711821,0.859368,-0.246928,0.433832,1.610000,0.630000,3.430000,20.67
711832,0.863760,-0.152744,0.441640,8.120000,2.310000,-4.410000,20.66
711843,0.866688,-0.145424,0.455304,11.270000,6.090000,-12.880000,20.66
711854,0.856440,-0.145424,0.489952,18.969999,7.770000,-23.240000,20.66
711865,0.858392,-0.178120,0.521184,33.459999,6.720000,-33.459999,20.68
711876,0.861320,-0.194224,0.552904,58.310001,4.690000,-40.320000,20.68
711888,0.885232,-0.220088,0.581208,87.709999,3.570000,-48.509998,20.66
711898,0.879376,-0.148840,0.577792,106.889999,2.170000,-52.990002,20.63
711910,0.889624,-0.089304,0.558272,122.080002,2.380000,-51.380001,20.63
711921,0.875960,-0.166408,0.534848,134.259995,3.010000,-55.090000,20.66
711933,0.843264,-0.158112,0.499712,144.970001,3.640000,-52.080002,20.66
711944,0.769576,0.161040,0.508984,126.209999,-2.170000,-42.840000,20.62
711955,0.764208,0.361120,0.523624,83.370003,-7.700000,-30.660000,20.62
711967,0.783240,0.427976,0.541680,34.230000,-7.490000,-19.600000,20.62
711978,0.781288,0.462624,0.521672,-3.430000,-6.650000,-8.610000,20.69
711989,0.801296,0.393816,0.506056,-43.959999,-6.580000,3.500000,20.69
712001,0.799832,0.292312,0.529968,-74.129997,-7.000000,14.490000,20.65
712013,0.815448,0.329888,0.531432,-91.489998,-9.100000,26.879999,20.68
712024,0.836432,0.295728,0.535336,-99.330002,-11.760000,36.540001,20.68
712035,0.871568,0.283040,0.562664,-103.250000,-12.810000,42.560001,20.67
712047,0.912560,0.213744,0.556320,-103.599998,-11.690000,46.340000,20.66
712058,0.916952,0.145424,0.504592,-94.220001,-11.550000,49.910000,20.66
712069,0.934032,0.156160,0.465552,-84.629997,-12.880000,53.619999,20.68
712080,0.928664,0.169336,0.451400,-79.029999,-11.830000,56.209999,20.68
712092,0.922808,0.069296,0.463600,-72.519997,-8.470000,53.130001,20.64
712103,0.894992,-0.035624,0.476776,-66.010002,-5.320000,45.639999,20.63
712115,0.884744,-0.137616,0.466040,-52.639999,-2.800000,37.169998,20.63
712126,0.878888,-0.247416,0.457744,-33.320000,-1.260000,28.840000,20.72
712137,0.876936,-0.319152,0.449936,-11.900000,-0.840000,17.500000,20.72
712148,0.870104,-0.326960,0.437248,9.380000,0.070000,6.230000,20.67
712160,0.877912,-0.235704,0.416264,19.530001,2.590000,-4.060000,20.67
712171,0.883280,-0.188856,0.407968,26.320000,5.040000,-14.350000,20.67
712182,0.871080,-0.150792,0.430416,29.889999,7.770000,-23.450001,20.62
712193,0.868640,-0.213744,0.450912,43.540001,8.470000,-34.790001,20.62
712206,0.866200,-0.222040,0.518256,66.919998,7.140000,-46.830002,20.73
712217,0.887184,-0.233752,0.557784,93.099998,5.320000,-53.410000,20.65
712228,0.895968,-0.222040,0.557784,121.449997,3.850000,-59.990002,20.65
712239,0.900848,-0.166896,0.557296,138.740005,5.040000,-58.590000,20.67
712251,0.847656,-0.145912,0.605608,138.529999,3.220000,-58.869999,20.67
712262,0.800320,-0.054168,0.630008,125.230003,-16.379999,-51.099998,20.64
712274,0.748104,0.187392,0.579744,95.129997,-7.210000,-38.709999,20.63
712285,0.739320,0.320616,0.542656,50.400002,-11.270000,-25.340000,20.63
712296,0.761280,0.444568,0.543144,0.770000,-12.320000,-12.390000,20.68
712307,0.787144,0.546560,0.564128,-48.790001,-12.600000,-1.190000,20.64
712319,0.830576,0.495808,0.534360,-86.169998,-11.410000,11.620000,20.64
712330,0.865712,0.240096,0.534848,-96.949997,-7.980000,22.190001,20.67
712341,0.866200,0.163480,0.542168,-92.750000,-10.430000,31.850000,20.67
712352,0.871080,0.246440,0.522160,-86.099998,-15.680000,41.020000,20.70
712363,0.927688,0.342088,0.509472,-89.459999,-18.900000,48.860001,20.63
712375,0.961848,0.299632,0.522648,-87.849998,-15.610000,54.180000,20.63
712386,0.929640,0.325984,0.491904,-85.680000,-13.510000,57.119999,20.64
712397,0.915976,0.243024,0.464576,-85.120003,-10.780000,54.320000,20.64
712408,0.904752,0.069784,0.428952,-77.070000,-3.990000,50.119999,20.67
712419,0.886696,-0.089792,0.403576,-58.590000,0.560000,42.770000,20.65
712431,0.859856,-0.241560,0.388936,-38.150002,1.820000,32.270000,20.65
712441,0.857416,-0.337696,0.395768,-12.110000,1.960000,21.420000,20.62
712453,0.861808,-0.352336,0.428952,12.810000,4.760000,12.740000,20.62
712464,0.855464,-0.311344,0.454816,31.010000,5.040000,1.120000,20.70
712475,0.855464,-0.264496,0.466040,42.000000,6.090000,-12.040000,20.70
712486,0.863272,-0.209840,0.486536,45.500000,8.120000,-22.400000,20.68
712498,0.861320,-0.209352,0.473848,55.790001,9.590000,-33.669998,20.68
712509,0.864248,-0.148352,0.481656,67.129997,9.100000,-41.790001,20.68
712520,0.882792,-0.153232,0.519720,78.889999,7.770000,-46.970001,20.66
712531,0.880840,-0.136152,0.515328,92.050003,6.930000,-52.500000,20.65
712543,0.882304,-0.118584,0.535336,100.099998,4.690000,-53.689999,20.65
712554,0.863760,-0.114192,0.538752,104.720001,5.110000,-51.169998,20.65
712566,0.821304,-0.041480,0.568520,93.660004,3.010000,-46.410000,20.65
712577,0.773968,0.067832,0.617320,70.839996,-0.980000,-37.380001,20.66
712588,0.754448,0.241560,0.624152,41.720001,-5.600000,-25.969999,20.66
712600,0.765672,0.321104,0.583160,9.380000,-7.980000,-14.630000,20.66
712611,0.777872,0.403576,0.565592,-24.500000,-10.080000,-6.020000,20.66
712623,0.806664,0.397232,0.530456,-55.439999,-10.150000,6.790000,20.66
712634,0.829112,0.382592,0.528016,-75.879997,-10.570000,17.430000,20.67
712645,0.860344,0.306464,0.538752,-82.459999,-10.150000,28.629999,20.66
712656,0.872056,0.241072,0.529480,-78.889999,-10.850000,35.000000,20.66
712668,0.881328,0.244488,0.523624,-76.930000,-12.670000,42.279999,20.66
712679,0.908168,0.203496,0.525576,-74.620003,-13.580000,46.689999,20.66
712691,0.904752,0.204960,0.503616,-68.669998,-13.510000,50.119999,20.69
712702,0.914024,0.209840,0.466528,-64.610001,-12.320000,51.240002,20.62
712714,0.909632,0.130784,0.448472,-62.160000,-7.490000,48.790001,20.62
712725,0.878888,0.018056,0.443104,-56.349998,-2.800000,43.049999,20.68
712736,0.862296,-0.173240,0.455304,-40.320000,-0.420000,33.810001,20.68
712748,0.858880,-0.284016,0.459208,-22.260000,0.280000,23.240000,20.65
712759,0.851560,-0.267912,0.455304,16.379999,1.330000,12.390000,20.70
712770,0.854976,-0.170800,0.463112,11.200000,3.010000,2.590000,20.70
712781,0.870592,-0.150792,0.482144,15.750000,5.810000,-5.320000,20.62
712793,0.853024,-0.213256,0.488488,27.440001,6.930000,-17.219999,20.66
712804,0.854488,-0.230824,0.510448,45.919998,5.180000,-27.650000,20.66
712815,0.860344,-0.233264,0.544120,65.660004,3.500000,-39.549999,20.68
712827,0.894504,-0.256688,0.573888,95.900002,2.380000,-47.529999,20.68
712837,0.885720,-0.218624,0.591944,126.209999,1.120000,-52.570000,20.64
712849,0.899872,-0.183976,0.551928,150.570007,-0.420000,-55.720001,20.62
712860,0.872056,-0.093208,0.539240,153.089996,0.350000,-52.639999,20.62
712871,0.833016,-0.010736,0.555344,136.710007,-1.890000,-48.580002,20.62
712882,0.803248,0.064904,0.550952,106.050003,-3.220000,-39.340000,20.62
712894,0.785192,0.140544,0.482144,69.089996,-6.790000,-29.959999,20.65
712905,0.770064,0.231800,0.446520,25.129999,-7.840000,-16.940001,20.66
712917,0.783728,0.312808,0.467504,-21.350000,-9.450000,-8.330000,20.66
712928,0.798856,0.407480,0.459208,-64.750000,-8.050000,6.300000,20.69
712939,0.843752,0.295240,0.503128,-90.650002,-6.370000,15.400000,20.69
712951,0.837408,0.219112,0.551928,-96.389999,-5.880000,23.309999,20.67
712962,0.855952,0.290848,0.592432,-97.160004,-9.450000,35.980000,20.61
712974,0.894992,0.292800,0.597312,-97.930000,-11.900000,44.240002,20.61
712985,0.924760,0.319152,0.544608,-99.050003,-12.810000,49.279999,20.63
712997,0.931104,0.290360,0.499712,-88.900002,-12.880000,54.180000,20.63
713009,0.927688,0.307928,0.467992,-81.059998,-10.360000,54.950001,20.66
713019,0.917440,0.213744,0.456768,-76.860001,-6.090000,51.730000,20.68
713031,0.884256,0.005856,0.466528,-63.630001,-1.190000,45.290001,20.68
713042,0.860344,-0.157624,0.467016,-42.349998,1.120000,35.349998,20.66
713053,0.858880,-0.306464,0.469944,-22.120001,1.680000,22.959999,20.66
713065,0.859856,-0.316224,0.466528,3.430000,1.680000,9.730000,20.65
713075,0.861320,-0.231312,0.477264,17.639999,1.960000,-16.870001,20.62
713087,0.873520,-0.232288,0.483120,28.700001,3.920000,-11.200000,20.62
713098,0.876448,-0.267424,0.478240,45.290001,3.850000,-24.150000,20.62
713109,0.890112,-0.266448,0.479216,61.250000,3.150000,-35.630001,20.62
713121,0.893040,-0.307928,0.501664,83.790001,2.590000,-48.160000,20.65
713132,0.896944,-0.328912,0.517280,112.070000,1.820000,-57.189999,20.66
713143,0.890600,-0.244976,0.555344,133.630005,-0.140000,-60.200001,20.66
713155,0.874008,-0.053192,0.567544,129.009995,-2.380000,-58.730000,20.68
713166,0.866200,-0.033184,0.539240,118.370003,-1.540000,-57.959999,20.64
713177,0.825696,-0.142496,0.536312,115.080002,-0.350000,-56.770000,20.64
713188,0.757864,0.069296,0.542168,104.860001,-5.320000,-48.160000,20.70
713199,0.751032,0.290848,0.530456,73.919998,-9.030000,-34.020000,20.70
713211,0.769576,0.435296,0.504104,25.200001,-9.590000,-24.150000,20.66
713222,0.802272,0.483608,0.466528,-19.250000,-6.510000,-10.500000,20.66
713233,0.800808,0.446520,0.446520,-48.230000,-5.390000,1.050000,20.65
713244,0.808128,0.366976,0.451400,-70.980003,-4.900000,12.530000,20.70
713255,0.826672,0.319152,0.481168,-83.230003,-4.830000,23.309999,20.70
713266,0.834480,0.304512,0.539240,-88.830002,-7.490000,33.880001,20.71
713277,0.872056,0.356240,0.605120,-92.540001,-10.640000,42.209999,20.71
713288,0.898896,0.393328,0.587552,-103.949997,-13.580000,49.770000,20.70
713299,0.938912,0.288408,0.546072,-104.160004,-13.090000,55.720001,20.64
713311,0.928664,0.238144,0.509960,-100.309998,-12.950000,56.910000,20.64
713322,0.931592,0.164944,0.457256,-97.720001,-11.480000,56.490002,20.66
713333,0.912560,0.081496,0.430416,-93.379997,-8.470000,54.040001,20.66
713344,0.890600,-0.027328,0.431392,-80.849998,-5.040000,45.990002,20.67
713355,0.866200,-0.180072,0.434320,-57.889999,-1.960000,37.240002,20.62
713366,0.863272,-0.297680,0.434320,-34.439999,-0.070000,26.180000,20.62
713377,0.850096,-0.322568,0.435296,-3.780000,0.840000,10.920000,20.67
713388,0.847168,-0.204472,0.448472,14.210000,2.030000,1.540000,20.67
713399,0.873032,-0.230824,0.446032,23.030001,5.250000,-10.220000,20.66
713410,0.874008,-0.270352,0.447984,37.590000,6.300000,-24.150000,20.66
713421,0.864736,-0.256200,0.465552,55.230000,4.200000,-33.320000,20.66
713432,0.883280,-0.278648,0.506544,75.879997,2.380000,-44.169998,20.65
713443,0.886696,-0.253760,0.540216,93.870003,1.610000,-53.549999,20.65
713454,0.871568,-0.225456,0.568520,114.589996,0.490000,-59.360001,20.69
713464,0.867664,-0.109312,0.572424,119.769997,-2.100000,-60.130001,20.65
713476,0.861808,-0.048800,0.557784,108.570000,-1.400000,-56.770000,20.65
713487,0.831064,-0.048800,0.557296,90.860001,-1.680000,-52.080002,20.63
713497,0.781288,0.043432,0.556320,73.779999,-5.320000,-45.500000,20.63
713508,0.758352,0.270840,0.542656,36.330002,-9.590000,-34.299999,20.70
713519,0.775920,0.384544,0.492880,23.940001,-10.360000,-23.309999,20.70
713530,0.800320,0.391376,0.449936,-4.970000,-6.160000,-14.070000,20.65
713541,0.802272,0.327448,0.456768,-30.379999,-3.430000,-1.540000,20.63
713552,0.807640,0.379176,0.460672,-48.020000,-3.080000,12.040000,20.63
713563,0.828136,0.402112,0.493856,-67.620003,-4.690000,26.040001,20.66
713574,0.855464,0.417240,0.527528,-81.199997,-5.950000,34.720001,20.66
713585,0.878400,0.398208,0.537288,-89.110001,-8.260000,43.049999,20.65
713596,0.910120,0.323544,0.531432,-95.900002,-8.050000,49.209999,20.63
713607,0.932568,0.236192,0.529968,-94.849998,-5.600000,52.849998,20.63
713618,0.915976,0.142496,0.486048,-86.029999,-5.040000,52.849998,20.66
713629,0.921832,0.041480,0.466528,-71.750000,-4.130000,51.169998,20.66
713640,0.916464,-0.022448,0.444080,-55.650002,-2.240000,47.180000,20.68
713651,0.894016,-0.104432,0.443104,-40.389999,-0.210000,39.549999,20.68
713662,0.889136,-0.215696,0.455792,-28.070000,1.470000,29.610001,20.68
713673,0.876936,-0.298656,0.462624,-8.260000,2.030000,17.290001,20.64
713684,0.863760,-0.297680,0.468480,9.660000,1.470000,7.000000,20.64
713695,0.879376,-0.244000,0.466528,20.650000,3.150000,-3.430000,20.69
713706,0.882304,-0.123952,0.500688,23.660000,4.690000,-12.600000,20.69
713717,0.875472,-0.108824,0.510936,24.780001,6.230000,-20.860001,20.69
713728,0.871080,-0.186904,0.511912,37.799999,5.600000,-31.920000,20.66
713739,0.881816,-0.264496,0.519232,59.220001,4.970000,-44.029999,20.66
713750,0.893040,-0.267912,0.518744,91.419998,3.920000,-51.730000,20.66
713760,0.891088,-0.203496,0.541192,118.440002,2.030000,-56.279999,20.66
713771,0.885232,-0.001952,0.569984,116.199997,0.700000,-52.009998,20.68
713782,0.867176,0.037088,0.563640,95.690002,0.700000,-49.560001,20.71
713793,0.829112,-0.104920,0.558272,80.919998,1.820000,-46.549999,20.71
713804,0.768600,-0.004880,0.571448,71.889999,-2.730000,-39.830002,20.67
713815,0.735904,0.227408,0.557296,44.029999,-7.910000,-25.690001,20.67
713826,0.778848,0.344040,0.535824,8.470000,-8.960000,-16.590000,20.65
713837,0.801784,0.426024,0.507032,-16.450001,-7.140000,-4.690000,20.65
713848,0.824720,0.492392,0.452376,-47.110001,-6.720000,8.540000,20.70
713859,0.852536,0.409432,0.466528,-70.769997,-5.320000,18.690001,20.66
713870,0.843752,0.284504,0.530456,-76.440002,-5.460000,30.379999,20.66
713881,0.845704,0.358680,0.588528,-81.059998,-8.050000,42.560001,20.68
713891,0.884744,0.316712,0.601216,-82.389999,-11.480000,47.320000,20.68
713902,0.905240,0.324032,0.561200,-77.629997,-12.670000,54.040001,20.66
713913,0.932568,0.271328,0.508984,-68.250000,-11.480000,58.869999,20.68
713924,0.926712,0.215208,0.463600,-57.610001,-8.890000,59.290001,20.68
713935,0.910120,0.164456,0.437248,-51.169998,-6.300000,56.910000,20.66
713946,0.891088,0.056120,0.442616,-49.349998,-2.450000,52.779999,20.66
713957,0.864736,-0.113216,0.457256,-38.570000,0.280000,44.380001,20.67
713968,0.853024,-0.266936,0.468480,-20.860001,0.770000,32.689999,20.67
713979,0.850584,-0.346480,0.475312,-6.160000,0.770000,19.250000,20.66
713990,0.851072,-0.349896,0.478728,12.950000,1.400000,8.540000,20.63
714001,0.863760,-0.208864,0.492880,18.059999,2.100000,-2.310000,20.63
714012,0.869128,-0.265960,0.488488,23.590000,3.850000,-14.770000,20.67
714023,0.876448,-0.329888,0.467016,41.090000,3.080000,-26.389999,20.67
714033,0.876936,-0.381128,0.476288,67.690002,1.820000,-41.230000,20.68
714044,0.893040,-0.429928,0.509472,93.870003,0.980000,-54.320000,20.67
714055,0.883280,-0.399672,0.518744,126.209999,0.490000,-63.910000,20.67
714066,0.861808,-0.248392,0.548024,147.070007,-1.820000,-66.639999,20.67
714077,0.850584,-0.026840,0.565592,144.339996,-3.710000,-64.120003,20.67
714088,0.843264,0.059048,0.551440,129.080002,-4.970000,-62.439999,20.67
714099,0.835456,0.108824,0.522160,106.470001,-4.410000,-57.680000,20.66
714110,0.779824,0.203008,0.526552,78.610001,-6.510000,-47.669998,20.66
714121,0.755912,0.355752,0.519720,50.189999,-9.450000,-34.930000,20.73
714132,0.761768,0.415288,0.522160,11.270000,-9.450000,-20.580000,20.73
714143,0.785680,0.387960,0.499712,-18.830000,-7.700000,-12.460000,20.67
714154,0.784216,0.469944,0.464576,-44.240002,-6.650000,5.390000,20.67
714165,0.812032,0.491416,0.453352,-72.870003,-8.680000,20.510000,20.66
714176,0.852536,0.476288,0.469944,-90.019997,-7.630000,31.010000,20.61
714188,0.877424,0.417240,0.533384,-98.910004,-7.350000,45.849998,20.61
714200,0.901824,0.428952,0.560224,-103.180000,-7.700000,54.669998,20.68
714211,0.920856,0.405040,0.531920,-106.959999,-8.120000,60.270000,20.65
714222,0.944280,0.248392,0.524112,-101.500000,-6.300000,64.750000,20.65
714233,0.928176,0.153232,0.495320,-90.440002,-5.530000,64.820000,20.71
714244,0.923296,0.068320,0.459208,-72.940002,-3.570000,62.509998,20.71
714255,0.904752,-0.013176,0.451888,-58.310001,-0.350000,57.330002,20.69
714266,0.881328,-0.101504,0.447008,-43.259998,2.030000,49.560001,20.69
714277,0.857416,-0.210328,0.473360,-27.230000,4.200000,40.180000,20.67
714288,0.852048,-0.350872,0.509960,-10.640000,4.410000,28.070000,20.68
714299,0.837896,-0.403576,0.549000,3.780000,3.430000,13.930000,20.68
714309,0.844728,-0.374296,0.553880,13.580000,1.820000,3.640000,20.70
714320,0.859856,-0.358680,0.552416,16.590000,0.560000,-7.630000,20.70
714331,0.865712,-0.373808,0.531920,21.139999,0.560000,-19.740000,20.68
714342,0.857904,-0.320616,0.527040,25.270000,-0.560000,-29.190001,20.65
714353,0.862784,-0.309880,0.518256,34.790001,-1.820000,-39.759998,20.65
714364,0.867176,-0.293776,0.495320,46.830002,-3.080000,-51.939999,20.66
714375,0.881816,-0.270352,0.483608,62.020000,-4.130000,-60.900002,20.66
714386,0.875960,-0.258640,0.474336,84.349998,-4.480000,-67.339996,20.65
714397,0.865712,-0.236680,0.485072,103.669998,-3.640000,-70.070000,20.65
714408,0.853024,-0.128832,0.538264,122.080002,-5.670000,-70.559998,20.68
714419,0.814472,0.062464,0.549000,117.879997,-7.980000,-66.500000,20.67
714430,0.809104,0.287432,0.535824,93.940002,-11.130000,-57.820000,20.67
714441,0.810568,0.397232,0.510936,75.040001,-12.320000,-50.750000,20.65
714452,0.801296,0.481656,0.487024,51.310001,-11.760000,-42.070000,20.65
714463,0.819352,0.471896,0.458720,31.150000,-9.590000,-32.340000,20.68
714473,0.820328,0.440176,0.422608,16.379999,-5.600000,-19.809999,20.66
714485,0.797880,0.546560,0.400160,-11.410000,-4.480000,-3.010000,20.66
714496,0.821792,0.544120,0.428952,-39.759998,-3.500000,10.640000,20.66
714507,0.833016,0.561200,0.449936,-66.570000,-1.890000,24.219999,20.66
714518,0.845704,0.466040,0.467992,-82.320000,-0.910000,37.029999,20.68
714529,0.863272,0.326472,0.479704,-85.470001,2.660000,43.750000,20.68
714539,0.866200,0.233752,0.503616,-84.000000,2.240000,47.880001,20.68
714551,0.885720,0.291824,0.461648,-92.190002,0.350000,61.180000,20.69
714562,0.913048,0.241072,0.442128,-100.589996,-0.770000,70.419998,20.69
714573,0.925248,0.207400,0.470920,-100.800003,-0.770000,74.480003,20.67
714584,0.899872,0.240096,0.503616,-102.199997,-0.840000,77.139999,20.67
714594,0.891576,0.151768,0.514352,-107.449997,0.490000,73.919998,20.66
714605,0.871568,-0.048312,0.560224,-100.519997,3.010000,66.570000,20.66
714616,0.835944,-0.194712,0.569984,-87.779999,2.520000,56.349998,20.66
714627,0.839848,-0.383568,0.541680,-62.439999,-17.570000,42.770000,20.69
714638,0.828136,-0.399184,0.506544,-35.419998,-2.590000,27.650000,20.69
714649,0.840336,-0.422608,0.478728,-12.530000,-4.760000,14.910000,20.67
714661,0.842288,-0.417728,0.461648,3.990000,-4.900000,-2.170000,20.64
714671,0.851072,-0.456280,0.476288,26.180000,-5.880000,-18.830000,20.64
714683,0.837896,-0.408456,0.512888,48.509998,-7.210000,-34.790001,20.64
714694,0.839360,-0.387960,0.577304,71.540001,-11.410000,-48.230000,20.64
714705,0.858392,-0.365024,0.597800,98.209999,-14.910000,-62.090000,20.65
714716,0.848144,-0.235216,0.618784,120.260002,-18.059999,-73.150002,20.66
714727,0.879864,-0.134688,0.602680,129.990005,-18.059999,-71.190002,20.66
714738,0.889136,-0.103456,0.569008,123.410004,-18.620001,-71.680000,20.71
714749,0.862296,-0.190808,0.526064,112.349998,-18.059999,-65.519997,20.71
714760,0.793488,0.062952,0.442128,88.339996,-21.770000,-55.020000,20.71
714771,0.761280,0.277672,0.359168,50.330002,-27.440001,-41.720001,20.69
714782,0.779824,0.374784,0.367952,21.209999,-23.940001,-27.650000,20.69
714793,0.798368,0.522648,0.397232,-20.370001,-20.230000,-12.180000,20.72
714804,0.821304,0.655872,0.388936,-63.630001,-16.100000,4.480000,20.72
714815,0.876448,0.586088,0.390400,-93.099998,-9.380000,21.559999,20.70
714826,0.883768,0.450424,0.388448,-99.120003,-3.500000,37.450001,20.70
714837,0.882792,0.392840,0.390400,-95.129997,-2.310000,47.669998,20.69
714847,0.909144,0.308416,0.419192,-85.750000,-0.560000,58.310001,20.68
714858,0.896944,0.276696,0.457744,-71.680000,0.140000,64.750000,20.68
714869,0.890112,0.341600,0.471896,-67.830002,0.140000,68.949997,20.65
714880,0.894504,0.184952,0.470920,-68.389999,5.460000,65.730003,20.65
714891,0.859368,-0.011712,0.467992,-63.980000,7.840000,56.490002,20.67
714902,0.855464,-0.163968,0.464576,-55.790001,8.960000,45.430000,20.65
714913,0.839848,-0.346480,0.447984,-37.520000,8.680000,33.250000,20.65
714924,0.830088,-0.349896,0.471896,-24.500000,7.140000,16.309999,20.65
714935,0.845704,-0.487512,0.513864,0.140000,4.550000,0.980000,20.65
714946,0.853512,-0.580232,0.536800,34.650002,1.400000,-13.230000,20.67
714957,0.874008,-0.518256,0.525576,60.130001,-2.030000,-32.270000,20.67
714968,0.894016,-0.431880,0.536312,84.910004,-4.270000,-48.160000,20.64
714979,0.901336,-0.391864,0.539728,109.269997,-5.530000,-59.430000,20.70
714990,0.879376,-0.305976,0.540704,133.139999,-9.590000,-69.930000,20.70
715001,0.898408,-0.156648,0.530456,144.970001,-9.310000,-75.110001,20.70
715012,0.887672,-0.029768,0.484584,153.089996,-11.900000,-75.040001,20.70
715023,0.911584,0.038552,0.474824,145.320007,-9.870000,-69.930000,20.67
715034,0.861320,0.203984,0.442128,108.989998,-9.800000,-61.529999,20.69
715045,0.839848,0.142496,0.443592,81.550003,-7.350000,-48.790001,20.69
715056,0.774944,0.186904,0.462136,48.439999,-7.980000,-37.380001,20.62
715067,0.745176,0.394792,0.452864,10.010000,-10.850000,-22.680000,20.62
715078,0.787144,0.556320,0.425536,-21.770000,-10.710000,-5.880000,20.65
715089,0.839360,0.565104,0.374784,-65.800003,-6.370000,10.710000,20.62
715100,0.879864,0.443592,0.359168,-90.510002,0.770000,23.660000,20.62
715111,0.878888,0.461160,0.387960,-101.290001,3.150000,39.270000,20.66
715121,0.886208,0.481168,0.464088,-113.820000,1.820000,54.389999,20.66
715132,0.914512,0.438712,0.490928,-124.739998,0.840000,62.860001,20.68
715143,0.949648,0.284504,0.547048,-119.070000,0.840000,69.580002,20.68
715154,0.936472,0.354288,0.549976,-110.110001,-1.120000,76.300003,20.69
715165,0.941352,0.289872,0.506544,-103.599998,0.280000,76.790001,20.68
715176,0.920856,0.102968,0.462136,-94.779999,4.550000,71.120003,20.68
715187,0.887184,-0.077592,0.429928,-79.940002,7.490000,61.950001,20.66
715198,0.861320,-0.242048,0.415776,-57.540001,8.400000,50.330002,20.66
715209,0.846192,-0.369904,0.424560,-38.430000,7.840000,34.580002,20.69
715220,0.846680,-0.469944,0.443104,-11.340000,6.790000,16.170000,20.67
715231,0.846680,-0.475800,0.492880,13.020000,4.970000,3.290000,20.67
715241,0.865712,-0.544120,0.516304,33.880001,2.450000,-14.840000,20.70
715252,0.862296,-0.503616,0.526064,61.810001,-1.050000,-33.669998,20.70
715263,0.878888,-0.447008,0.537288,89.250000,-4.480000,-46.619999,20.67
715274,0.894992,-0.392840,0.536800,117.389999,-6.020000,-61.320000,20.67
715285,0.896944,-0.285480,0.530944,139.789993,-7.420000,-71.820000,20.66
715296,0.881816,-0.018056,0.517768,160.720001,-9.170000,-75.389999,20.65
715307,0.894992,0.026840,0.498248,165.899994,-9.100000,-71.400002,20.65
715318,0.891088,0.048312,0.484096,162.050003,-7.280000,-68.809998,20.68
715329,0.838872,0.126392,0.495808,135.660004,-6.860000,-57.889999,20.68
715340,0.791048,0.185440,0.449936,96.809998,-9.240000,-47.950001,20.63
715351,0.752008,0.306952,0.422120,50.889999,-11.480000,-30.240000,20.73
715362,0.739320,0.445544,0.415776,10.290000,-13.090000,-14.280000,20.73
715373,0.769088,0.587552,0.415776,-42.349998,-12.880000,1.890000,20.69
715384,0.836920,0.661728,0.431880,-87.709999,-9.310000,20.020000,20.69
715395,0.879864,0.513376,0.460184,-107.029999,-2.170000,33.810001,20.68
715406,0.882792,0.419680,0.485560,-114.519997,-0.140000,47.110001,20.66
715417,0.904752,0.278648,0.508984,-110.040001,0.560000,54.459999,20.66
715428,0.924272,0.358192,0.477752,-106.400002,-1.820000,66.010002,20.66
715439,0.947696,0.303048,0.458720,-95.970001,-2.380000,72.099998,20.66
715450,0.944768,0.279136,0.467504,-87.500000,-0.210000,74.199997,20.70
715461,0.925248,0.221064,0.453840,-86.730003,3.570000,72.449997,20.70
715471,0.906704,0.017568,0.453352,-90.089996,7.490000,67.550003,20.69
715482,0.863760,-0.088328,0.451888,-82.599998,12.600000,57.959999,20.65
715493,0.854000,-0.397232,0.455304,-62.580002,13.440000,43.259998,20.65
715504,0.844728,-0.480192,0.486536,-32.689999,11.480000,27.020000,20.68
715515,0.840336,-0.510936,0.515328,-6.930000,7.490000,14.560000,20.68
715526,0.851072,-0.531920,0.551440,10.500000,3.990000,-0.770000,20.71
715537,0.870592,-0.455792,0.569496,19.530001,2.520000,-15.470000,20.66
715548,0.860832,-0.386496,0.572912,20.860001,-0.140000,-27.020000,20.66
715559,0.876448,-0.377224,0.533872,31.920000,-2.590000,-42.980000,20.67
715570,0.879864,-0.347944,0.500200,44.310001,-2.730000,-58.169998,20.67
715581,0.900360,-0.354288,0.478240,65.309998,-1.820000,-64.610001,20.71
715592,0.879376,-0.306952,0.472384,84.419998,-0.630000,-70.070000,20.71
715603,0.870104,-0.348432,0.489952,105.139999,-1.890000,-74.900002,20.69
715614,0.847168,-0.115168,0.490928,114.239998,-3.780000,-72.660004,20.70
715625,0.819352,0.138592,0.469944,94.989998,-6.370000,-66.150002,20.70
715636,0.819352,0.286944,0.425536,76.720001,-6.440000,-59.080002,20.70
715647,0.801784,0.409432,0.429440,54.810001,-4.830000,-49.349998,20.70
715658,0.812032,0.391864,0.404552,29.330000,0.350000,-39.270000,20.69
715668,0.796416,0.345504,0.418704,9.660000,4.900000,-24.709999,20.71
715679,0.803736,0.408944,0.385520,-19.389999,6.790000,-8.470000,20.71
715690,0.808616,0.413824,0.378688,-43.889999,9.030000,4.340000,20.66
715701,0.818376,0.463600,0.428952,-60.619999,10.150000,19.950001,20.66
715712,0.838872,0.484096,0.471408,-75.809998,9.870000,33.599998,20.66
715722,0.880840,0.437736,0.483120,-88.410004,11.200000,42.560001,20.67
715733,0.905728,0.258640,0.496784,-92.190002,12.390000,50.959999,20.67
715744,0.892064,0.271816,0.484584,-94.639999,10.850000,62.580002,20.64
715755,0.903776,0.277672,0.510448,-101.919998,9.240000,65.800003,20.64
715766,0.903776,0.217160,0.535336,-110.879997,11.200000,65.870003,20.68
715777,0.844240,0.093696,0.567544,-111.580002,13.650000,59.570000,20.68
715787,0.807152,-0.105408,0.569008,-96.949997,14.350000,48.369999,20.64
715798,0.813984,-0.366976,0.531432,-68.180000,15.050000,32.130001,20.61
715809,0.813984,-0.382592,0.475800,-28.490000,13.370000,17.360001,20.61
715820,0.818376,-0.396256,0.443592,7.980000,11.690000,0.000000,20.67
715831,0.828624,-0.421632,0.472384,34.650002,9.590000,-16.870001,20.67
715842,0.826672,-0.373320,0.551440,66.919998,5.880000,-28.490000,20.68
715852,0.827160,-0.298656,0.623664,87.709999,2.030000,-43.119999,20.68
715863,0.841312,-0.246440,0.686616,113.190002,-1.260000,-57.049999,20.68
715874,0.852048,-0.174704,0.703696,140.839996,-6.020000,-66.010002,20.64
715885,0.904752,-0.164944,0.686128,168.419998,-8.470000,-73.430000,20.64
715896,0.907680,-0.015128,0.627080,176.119995,-8.820000,-74.269997,20.65
715907,0.882304,0.039528,0.640256,164.710007,-10.920000,-70.209999,20.65
715918,0.878400,-0.030256,0.599264,148.399994,-11.620000,-66.010002,20.65
715929,0.806176,-0.007808,0.481656,126.910004,-12.250000,-57.119999,20.66
715940,0.744688,0.163480,0.406016,85.750000,-17.500000,-39.830002,20.66
715951,0.707600,0.453352,0.391376,29.190001,-25.059999,-25.760000,20.72
715962,0.767624,0.555832,0.434320,-18.620001,-22.889999,-7.490000,20.72
715973,0.807152,0.539728,0.489464,-67.970001,-16.660000,8.120000,20.69
715984,0.813008,0.559248,0.522160,-101.779999,-11.480000,18.900000,20.67
715995,0.837896,0.457744,0.524112,-115.360001,-7.350000,29.540001,20.67
716006,0.862296,0.339648,0.546072,-118.440002,-6.370000,41.860001,20.70
716017,0.868640,0.326472,0.505568,-113.190002,-7.490000,52.150002,20.70
716028,0.896456,0.348432,0.500200,-101.570000,-8.470000,60.619999,20.71
716039,0.901336,0.387472,0.474824,-96.669998,-8.260000,64.050003,20.71
716049,0.909632,0.295240,0.458720,-91.419998,-3.010000,64.330002,20.65
716060,0.870104,0.140056,0.477752,-82.809998,3.710000,57.330002,20.64
716071,0.831064,-0.053192,0.492880,-72.940002,6.230000,46.619999,20.64
716082,0.826184,-0.243512,0.496784,-49.349998,7.840000,36.189999,20.68
716093,0.826184,-0.309880,0.496296,-23.799999,7.140000,21.280001,20.68
716104,0.819840,-0.348920,0.511424,-2.590000,6.230000,6.860000,20.68
716115,0.835944,-0.356728,0.537776,25.410000,4.970000,-3.710000,20.69
716126,0.856440,-0.326472,0.543632,54.040001,4.760000,-19.110001,20.69
716137,0.853024,-0.208864,0.547536,75.320000,3.430000,-32.130001,20.67
716148,0.869128,-0.165920,0.543632,102.410004,1.680000,-45.009998,20.67
716159,0.907192,-0.147864,0.565104,131.740005,1.680000,-55.020000,20.71
716170,0.902800,-0.078080,0.579256,155.119995,0.910000,-60.060001,20.68
716182,0.911096,0.009272,0.585600,157.779999,0.840000,-55.439999,20.68
716193,0.899872,-0.124440,0.611952,151.479996,1.330000,-55.299999,20.70
716204,0.839360,-0.115168,0.595360,137.550003,-0.700000,-47.110001,20.70
716216,0.752008,0.124928,0.569984,103.949997,-7.980000,-36.610001,20.67
716227,0.755424,0.311344,0.508984,50.119999,-15.190000,-22.959999,20.67
716238,0.778360,0.381128,0.491904,-9.030000,-14.350000,-9.310000,20.67
716249,0.767624,0.467504,0.495320,-52.639999,-14.280000,2.450000,20.71
716260,0.803248,0.544608,0.510936,-101.220001,-13.090000,18.200001,20.71
716271,0.832528,0.509960,0.535824,-129.009995,-12.110000,28.420000,20.69
716282,0.863760,0.487512,0.551928,-139.580002,-10.290000,42.070000,20.64
716294,0.903288,0.315736,0.534848,-131.039993,-7.350000,48.720001,20.64
716305,0.896456,0.279136,0.490928,-109.760002,-7.420000,54.880001,20.68
716316,0.889136,0.352824,0.471408,-82.739998,-8.680000,60.410000,20.68
716328,0.907680,0.368928,0.441152,-65.940002,-5.250000,62.790001,20.65
716339,0.873032,0.292312,0.449936,-55.369999,0.840000,58.730000,20.65
716350,0.848144,0.039528,0.466528,-39.410000,4.200000,50.750000,20.65
716362,0.840336,-0.159088,0.498736,-19.320000,5.600000,38.849998,20.64
716372,0.833992,-0.250344,0.518744,-4.620000,4.620000,26.180000,20.64
716384,0.831064,-0.241560,0.527040,10.080000,3.920000,12.320000,20.69
716395,0.840824,-0.175680,0.543632,10.080000,2.100000,2.660000,20.64
716406,0.847168,-0.291336,0.551928,21.070000,2.380000,-6.930000,20.64
716418,0.843752,-0.279136,0.580232,38.919998,-2.310000,-20.510000,20.69
716429,0.847168,-0.264008,0.582184,66.290001,-6.160000,-34.369999,20.69
716441,0.882792,-0.231312,0.603656,95.970001,-8.680000,-44.099998,20.68
716452,0.893528,-0.154696,0.606096,116.480003,-9.520000,-52.150002,20.65
716463,0.870592,0.003904,0.621712,124.529999,-13.300000,-54.180000,20.65
716474,0.891576,0.100528,0.557784,108.290001,-16.799999,-50.400002,20.70
716486,0.897432,0.039040,0.532408,86.800003,-13.720000,-43.330002,20.70
716497,0.833016,-0.044896,0.513376,69.650002,-13.510000,-40.389999,20.70
716509,0.780800,0.085888,0.503616,48.509998,-16.730000,-28.139999,20.70
716520,0.781776,0.258640,0.479216,8.540000,-20.090000,-14.140000,20.70
716532,0.806176,0.318176,0.452376,-34.509998,-17.780001,-1.470000,20.63
716543,0.820816,0.402112,0.414800,-70.349998,-15.890000,11.480000,20.63
716554,0.845704,0.388936,0.420168,-94.849998,-13.230000,24.010000,20.65
716566,0.866200,0.317688,0.466528,-113.260002,-10.080000,34.299999,20.71
716577,0.863272,0.309392,0.503616,-113.540001,-9.310000,44.520000,20.71
716588,0.891088,0.317688,0.503616,-113.120003,-8.610000,51.380001,20.66
716599,0.919392,0.213256,0.494344,-102.339996,-7.490000,58.730000,20.66
716610,0.913048,0.231312,0.487512,-86.940002,-8.190000,66.010002,20.65
716621,0.915488,0.315248,0.478240,-80.919998,-8.400000,71.680000,20.69
716632,0.903776,0.239120,0.466528,-79.660004,-3.710000,70.769997,20.69
716644,0.866688,0.119072,0.466528,-75.110001,1.190000,65.519997,20.72
716655,0.855464,-0.089304,0.452376,-66.570000,5.320000,55.509998,20.72
716666,0.846192,-0.366976,0.447984,-42.000000,6.720000,41.160000,20.70
716678,0.833504,-0.426512,0.450424,-9.660000,4.620000,25.549999,20.69
716689,0.847168,-0.477752,0.440176,18.969999,3.990000,9.730000,20.69
716701,0.862296,-0.400648,0.424560,46.549999,4.270000,-6.370000,20.71
716712,0.866688,-0.388936,0.447008,66.220001,4.410000,-18.760000,20.70
716723,0.863760,-0.385520,0.488976,88.269997,3.290000,-36.400002,20.70
716735,0.857416,-0.357704,0.582184,110.389999,-0.630000,-53.200001,20.66
716746,0.886208,-0.321592,0.637816,134.190002,-4.060000,-66.989998,20.66
716758,0.888648,-0.266448,0.666608,152.250000,-7.980000,-77.559998,20.70
716769,0.894992,-0.182024,0.648552,173.669998,-11.130000,-82.669998,20.65
716780,0.889624,-0.013664,0.603656,173.740005,-13.860000,-79.589996,20.65
716792,0.881816,0.041480,0.553392,154.000000,-14.770000,-73.849998,20.69
716803,0.854488,0.004392,0.503128,137.270004,-16.100000,-69.930000,20.69
716815,0.779824,0.147864,0.413336,105.419998,-17.150000,-58.029999,20.70
716826,0.751520,0.387472,0.351848,60.549999,-20.580000,-36.049999,20.68
716837,0.757376,0.531920,0.374784,15.260000,-18.830000,-21.770000,20.68
716849,0.776408,0.704672,0.419680,-28.770000,-14.980000,-4.060000,20.70
716860,0.819840,0.692472,0.391864,-76.019997,-8.120000,14.140000,20.70
716871,0.846680,0.611464,0.377712,-100.379997,-1.680000,30.170000,20.70
716882,0.868640,0.504592,0.401624,-106.680000,2.030000,42.279999,20.71
716894,0.876448,0.424560,0.422120,-100.870003,5.250000,53.759998,20.71
716905,0.896944,0.348920,0.431880,-92.680000,5.530000,60.970001,20.68
716916,0.908168,0.355752,0.427000,-80.709999,4.970000,70.209999,20.68
716927,0.925736,0.347944,0.426024,-71.400002,6.090000,76.019997,20.69
716938,0.907680,0.325984,0.428952,-69.160004,7.490000,78.540001,20.70
716949,0.899384,0.203008,0.463600,-71.959999,10.710000,75.949997,20.70
716960,0.859856,-0.022448,0.516304,-70.279999,13.020000,68.669998,20.71
716971,0.841800,-0.191296,0.557296,-63.419998,12.530000,58.939999,20.71
716983,0.833992,-0.312808,0.580232,-52.290001,9.170000,49.840000,20.71
716994,0.837408,-0.418216,0.599264,-38.360001,5.390000,36.959999,20.70
717005,0.833992,-0.465064,0.602680,-25.690001,0.910000,22.889999,20.70
717016,0.845704,-0.489464,0.594384,-9.660000,-2.940000,7.140000,20.69
717028,0.856928,-0.474336,0.559248,6.370000,-5.250000,-7.910000,20.69
717039,0.874008,-0.412848,0.513864,16.799999,-5.600000,-19.740000,20.72
717050,0.859856,-0.336232,0.518256,24.780001,-6.860000,-35.139999,20.71
717061,0.855952,-0.297192,0.488000,52.849998,-9.100000,-47.950001,20.71
717072,0.868152,-0.286944,0.517768,49.770000,-11.340000,-61.669998,20.67
717084,0.874008,-0.321592,0.553392,77.070000,-13.650000,-72.730003,20.67
717095,0.881816,-0.304024,0.566080,112.419998,-15.400000,-81.269997,20.68
717107,0.883280,-0.241072,0.531920,149.729996,-15.120000,-85.610001,20.67
717118,0.857416,-0.090280,0.507520,171.779999,-17.150000,-85.680000,20.67
717130,0.843752,0.073200,0.506056,173.949997,-21.420000,-79.449997,20.68
717141,0.808128,0.430904,0.480680,135.380005,-25.900000,-64.889999,20.72
717152,0.813008,0.631960,0.406016,80.989998,-27.650000,-51.240002,20.72
717164,0.830088,0.614392,0.348920,23.590000,-21.139999,-36.610001,20.68
717175,0.823256,0.479704,0.311832,5.320000,-12.110000,-24.920000,20.68
717186,0.806176,0.524600,0.299144,-12.950000,-5.950000,-7.350000,20.68
717197,0.789584,0.643184,0.325496,-42.419998,-2.730000,14.140000,20.68
717209,0.822768,0.691984,0.341112,-73.360001,2.030000,29.959999,20.68
717220,0.853024,0.581696,0.355264,-86.379997,7.560000,44.310001,20.69
717231,0.863272,0.512400,0.373320,-91.489998,12.810000,54.669998,20.69
717243,0.887672,0.345992,0.392352,-97.230003,17.150000,64.400002,20.70
717254,0.878888,0.234728,0.403576,-98.279999,18.830000,71.260002,20.71
717265,0.876448,0.134688,0.471896,-91.910004,16.030001,77.699997,20.71
717276,0.873520,0.202032,0.489952,-100.099998,11.690000,83.370003,20.75
717288,0.885720,0.169824,0.524600,-112.980003,8.890000,85.959999,20.75
717299,0.874008,0.045872,0.586576,-120.120003,9.730000,80.430000,20.66
717310,0.833992,-0.031720,0.627568,-128.380005,8.190000,71.330002,20.67
717322,0.832040,-0.280112,0.608536,-126.209999,7.000000,56.070000,20.67
717333,0.839360,-0.549488,0.600240,-97.650002,4.970000,35.560001,20.71
717345,0.815936,-0.606584,0.546072,-53.689999,-2.380000,14.770000,20.71
717356,0.852048,-0.585600,0.482632,-9.800000,-7.630000,-5.390000,20.71
717368,0.864248,-0.548024,0.482632,24.990000,-11.130000,-23.660000,20.67
717380,0.869128,-0.521672,0.524112,59.360001,-14.280000,-42.139999,20.67
717391,0.843264,-0.435296,0.594872,87.430000,-19.809999,-57.680000,20.64
717402,0.847656,-0.272304,0.663680,107.239998,-24.360001,-71.050003,20.69
717414,0.854000,-0.177632,0.660752,129.429993,-28.770000,-80.709999,20.69
717425,0.878888,-0.080032,0.638304,153.089996,-31.430000,-87.080002,20.68
717437,0.901336,0.046360,0.555344,172.690002,-31.780001,-87.290001,20.68
717448,0.913536,0.069784,0.501176,174.929993,-30.170000,-83.720001,20.67
717460,0.908168,0.030744,0.410896,165.410004,-26.110001,-72.870003,20.66
717472,0.822280,0.195688,0.275720,136.009995,-26.600000,-59.570000,20.66
717484,0.781288,0.440664,0.179584,93.519997,-27.580000,-39.970001,20.68
717495,0.793000,0.607560,0.145912,43.049999,-21.280001,-20.440001,20.68
717507,0.827160,0.772992,0.157624,-18.059999,-10.290000,-1.050000,20.65
717518,0.861320,0.750056,0.206424,-59.430000,2.800000,20.580000,20.74
717530,0.868152,0.650016,0.256688,-87.709999,15.050000,38.220001,20.74
717541,0.854976,0.520696,0.304512,-98.349998,22.959999,52.639999,20.69
717552,0.869128,0.395768,0.334768,-95.830002,26.809999,66.849998,20.69
717564,0.872056,0.282064,0.381616,-87.639999,27.580000,75.529999,20.69
717575,0.878888,0.279624,0.423584,-81.410004,26.459999,84.279999,20.72
717587,0.880352,0.272304,0.450912,-79.519997,24.360001,88.199997,20.72
717599,0.895968,0.251808,0.487024,-90.650002,24.639999,90.510002,20.70
717610,0.856928,0.088328,0.543144,-102.970001,24.920000,83.370003,20.69
717622,0.819352,-0.220088,0.607072,-107.309998,22.680000,72.589996,20.69
717634,0.822280,-0.423584,0.644160,-100.169998,17.500000,58.520000,20.72
717646,0.824232,-0.552904,0.643672,-81.410004,10.080000,42.349998,20.68
717657,0.846680,-0.673440,0.637328,-50.119999,3.150000,24.430000,20.68
717669,0.843264,-0.677832,0.618784,-9.660000,-4.270000,6.230000,20.70
717681,0.848144,-0.554368,0.613416,21.490000,-13.020000,-11.830000,20.70
717692,0.880840,-0.487512,0.616832,43.049999,-17.219999,-28.350000,20.72
717705,0.868640,-0.325496,0.618784,57.959999,-20.650000,-41.860001,20.72
717717,0.872544,-0.230824,0.614880,64.330002,-26.389999,-47.740002,20.72
717728,0.900360,-0.149328,0.567056,70.070000,-27.299999,-59.779999,20.73
717740,0.853024,-0.087840,0.528992,80.080002,-30.240000,-63.980000,20.69
717751,0.883768,-0.032696,0.474336,98.349998,-29.400000,-65.730003,20.69
717763,0.879864,0.059536,0.443592,116.129997,-31.010000,-64.120003,20.73
717775,0.894992,0.226432,0.406016,110.669998,-31.639999,-55.790001,20.70
717787,0.920856,0.284992,0.361608,90.580002,-28.209999,-46.410000,20.70
717799,0.892552,0.362096,0.339648,65.309998,-24.219999,-35.000000,20.69
717811,0.865712,0.460672,0.316712,35.070000,-21.000000,-21.700001,20.69
717822,0.870592,0.460184,0.298168,2.730000,-14.070000,-8.120000,20.70
717834,0.871568,0.426024,0.317688,-26.040001,-5.460000,9.170000,20.64
717846,0.866688,0.442128,0.301584,-51.099998,0.840000,21.490000,20.64
717857,0.873520,0.317688,0.305488,-61.040001,7.070000,35.279999,20.71
717868,0.876448,0.300120,0.317200,-68.250000,11.620000,47.529999,20.71
717880,0.880840,0.203496,0.346480,-70.839996,15.400000,57.470001,20.67
717892,0.872056,0.206424,0.377224,-73.220001,16.799999,64.959999,20.71
717903,0.872544,0.222528,0.410896,-81.760002,16.870001,71.889999,20.71
717915,0.853512,0.170312,0.469944,-93.730003,17.990000,69.860001,20.70
717927,0.826672,-0.039528,0.530944,-97.160004,19.040001,62.650002,20.73
717939,0.823744,-0.265472,0.562664,-85.959999,19.180000,49.840000,20.73
717950,0.813496,-0.372832,0.580232,-70.839996,15.540000,32.759998,20.68
717962,0.817888,-0.560224,0.590968,-43.330002,9.800000,13.440000,20.69
717973,0.820328,-0.634888,0.588528,-6.510000,1.680000,-6.160000,20.69
717985,0.848632,-0.452376,0.575352,9.730000,-5.670000,-23.450001,20.73
717997,0.870592,-0.483120,0.567544,29.049999,-9.380000,-39.830002,20.73
718009,0.869616,-0.427976,0.557296,55.509998,-13.580000,-56.840000,20.70
718021,0.889624,-0.129320,0.555344,75.250000,-16.940001,-69.580002,20.67
718032,0.900848,-0.223992,0.580720,89.809998,-19.180000,-75.599998,20.67
718044,0.887672,-0.241560,0.547536,111.860001,-20.719999,-80.709999,20.70
718057,0.860832,-0.032208,0.476288,121.309998,-22.260000,-75.110001,20.68
718068,0.872544,0.183488,0.405040,113.820000,-23.030001,-65.099998,20.68
718080,0.864736,0.324520,0.326472,94.010002,-21.209999,-53.970001,20.69
718091,0.838384,0.495320,0.332328,59.849998,-18.340000,-38.919998,20.69
718103,0.852048,0.527040,0.312808,15.330000,-11.690000,-22.260000,20.62
718115,0.854488,0.549000,0.298168,-25.200001,-6.230000,-3.080000,20.70
718126,0.862784,0.525576,0.296216,-61.880001,0.280000,15.750000,20.70
718137,0.871568,0.454328,0.352824,-81.129997,5.110000,30.030001,20.71
718149,0.879864,0.476776,0.375272,-90.300003,6.650000,46.900002,20.70
718160,0.921344,0.479216,0.392840,-95.059998,8.960000,61.599998,20.70
718172,0.931104,0.433344,0.428952,-99.680000,12.460000,70.769997,20.71
718184,0.910608,0.273768,0.440176,-97.720001,15.820000,74.620003,20.71
718195,0.890600,0.122000,0.448960,-91.000000,17.920000,69.580002,20.71
718206,0.867664,-0.031720,0.439200,-87.500000,18.270000,62.720001,20.70
718218,0.838872,-0.292312,0.442616,-67.339996,18.690001,47.040001,20.70
718229,0.824720,-0.347944,0.493368,-44.660000,15.470000,29.680000,20.67
718241,0.858880,-0.604144,0.553392,-9.590000,12.670000,11.620000,20.67
718253,0.842288,-0.614880,0.601704,43.189999,5.530000,-10.640000,20.71
718266,0.868640,-0.506544,0.643184,74.269997,-2.310000,-27.860001,20.69
718277,0.893528,-0.408456,0.655384,96.529999,-8.050000,-42.419998,20.69
718289,0.903776,-0.216184,0.609024,110.809998,-12.600000,-56.630001,20.73
718301,0.925736,-0.088816,0.576328,111.790001,-16.240000,-61.880001,20.66
718313,0.935496,-0.029280,0.510448,101.220001,-16.660000,-59.080002,20.66
718325,0.919392,-0.086864,0.481168,96.320000,-16.590000,-58.240002,20.71
718336,0.873520,-0.067832,0.428464,97.860001,-14.700000,-52.570000,20.70
718348,0.832040,0.022448,0.409920,91.419998,-15.260000,-41.650002,20.70
718360,0.803736,0.212280,0.395280,62.020000,-16.730000,-26.740000,20.71
718371,0.801296,0.398696,0.350872,11.200000,-16.940001,-11.130000,20.71
718383,0.821792,0.422120,0.375272,-33.529999,-14.700000,5.460000,20.69
718394,0.854000,0.412360,0.440176,-68.879997,-10.710000,17.570000,20.68
718408,0.860344,0.412848,0.492392,-96.250000,-7.980000,30.870001,20.68
718419,0.905240,0.401136,0.470432,-104.440002,-7.840000,42.349998,20.68
718431,0.946232,0.356728,0.459696,-105.209999,-6.510000,52.430000,20.64
718442,0.942816,0.341112,0.439688,-101.500000,-4.830000,59.779999,20.64
718453,0.929152,0.275232,0.439688,-95.550003,-2.100000,62.439999,20.69
718464,0.912560,0.102480,0.439200,-83.160004,1.400000,57.610001,20.69
718475,0.885720,-0.002440,0.434320,-66.989998,5.880000,51.099998,20.72
718487,0.858392,-0.157136,0.399672,-48.160000,8.890000,39.270000,20.66
718498,0.852536,-0.239608,0.383080,-28.910000,11.620000,24.500000,20.66
718510,0.846192,-0.331352,0.395280,-4.830000,12.810000,10.360000,20.71
718521,0.848632,-0.452376,0.423584,28.420000,12.460000,-6.090000,20.71
718533,0.860344,-0.428464,0.455304,63.419998,11.270000,-23.100000,20.66
718545,0.873520,-0.308904,0.511912,88.339996,8.890000,-36.400002,20.68
718556,0.893040,-0.300120,0.533384,116.690002,7.770000,-49.000000,20.68
718568,0.902312,-0.184464,0.551440,137.899994,6.440000,-57.750000,20.69
718579,0.892552,-0.062464,0.569984,144.479996,3.360000,-61.669998,20.67
718591,0.910120,-0.016592,0.572912,142.309998,2.170000,-59.570000,20.67
718602,0.905728,-0.132248,0.526064,136.080002,4.270000,-59.849998,20.73
718613,0.846680,-0.012200,0.471896,127.190002,3.920000,-51.240002,20.73
718626,0.770552,0.177144,0.452376,85.470001,-5.810000,-38.500000,20.70
718638,0.775920,0.445056,0.453352,36.400002,-12.110000,-21.070000,20.70
718649,0.810568,0.374296,0.504104,-13.510000,-10.150000,-7.770000,20.70
718660,0.807640,0.480680,0.531432,-53.410000,-10.080000,3.850000,20.70
718672,0.841800,0.472384,0.533872,-86.099998,-12.040000,16.660000,20.66
718684,0.885232,0.373808,0.545584,-102.059998,-11.760000,27.370001,20.66
718695,0.908656,0.321592,0.551440,-109.199997,-11.200000,37.939999,20.73
718707,0.920368,0.321104,0.506544,-107.379997,-13.020000,44.240002,20.73
718719,0.948672,0.247904,0.468480,-94.849998,-13.160000,47.180000,20.69
718731,0.939888,0.241560,0.433832,-83.580002,-10.360000,48.090000,20.67
718742,0.935984,0.136640,0.415776,-71.120003,-5.670000,43.959999,20.67
718754,0.913048,0.005856,0.376736,-52.639999,-0.490000,36.610001,20.68
718765,0.891088,-0.049776,0.363560,-31.570000,4.200000,26.809999,20.71
718776,0.880840,-0.129320,0.365512,-11.760000,7.140000,0.560000,20.71
718788,0.863272,-0.110288,0.392352,5.110000,9.940000,6.440000,20.70
718799,0.884744,-0.093696,0.433344,15.470000,11.970000,-4.270000,20.70
718810,0.884256,-0.233752,0.484584,32.970001,13.720000,-16.590000,20.71
718822,0.866688,-0.287920,0.542656,64.540001,10.010000,-31.150000,20.69
718834,0.896456,-0.313296,0.577792,97.930000,7.070000,-43.259998,20.69
718846,0.894992,-0.211792,0.602192,125.650002,4.550000,-50.259998,20.71
718857,0.894016,-0.142984,0.606584,136.710007,1.260000,-52.990002,20.71
718869,0.895968,-0.061976,0.553880,136.919998,-0.070000,-52.849998,20.70
718880,0.876448,-0.099064,0.512400,132.649994,-0.560000,-51.939999,20.73
718892,0.828624,-0.063440,0.485560,124.599998,-2.450000,-46.830002,20.73
718904,0.784704,0.181536,0.468480,94.639999,-8.260000,-36.049999,20.69
718915,0.788608,0.305976,0.468480,35.840000,-11.340000,-23.870001,20.70
718926,0.793488,0.429440,0.488976,3.710000,-11.480000,-11.340000,20.70
718938,0.805200,0.448472,0.482632,-42.910000,-12.390000,0.840000,20.70
718949,0.817400,0.446032,0.488488,-70.980003,-13.020000,12.110000,20.70
718961,0.846680,0.412848,0.518256,-88.269997,-13.860000,19.879999,20.75
718972,0.865712,0.451888,0.532896,-98.980003,-14.910000,30.870001,20.69
718984,0.908656,0.401136,0.507032,-100.029999,-15.120000,39.549999,20.69
718995,0.942328,0.334768,0.468968,-92.820000,-13.510000,44.169998,20.70
719006,0.943304,0.284504,0.441640,-79.589996,-11.760000,47.880001,20.70
719018,0.942816,0.249856,0.400648,-66.360001,-9.730000,49.560001,20.71
719029,0.938424,0.174216,0.371368,-49.770000,-6.860000,47.389999,20.68
719040,0.920856,0.121512,0.369904,-37.799999,-2.870000,44.029999,20.68
719052,0.897920,0.018056,0.390888,-29.400000,0.630000,37.939999,20.72
719063,0.886696,-0.116632,0.431880,-17.290001,3.290000,29.330000,20.69
719075,0.874496,-0.224480,0.477264,-2.310000,3.990000,22.260000,20.69
719086,0.866200,-0.234240,0.532896,8.890000,2.450000,13.790000,20.68
719097,0.864248,-0.244000,0.562176,15.190000,0.630000,4.620000,20.68
719109,0.872544,-0.250344,0.553880,24.430000,-0.490000,-2.870000,20.72
719121,0.869616,-0.184464,0.500688,27.860001,-3.080000,-9.030000,20.71
719132,0.875960,-0.131272,0.474824,27.440001,-4.900000,-14.210000,20.71
719144,0.873520,-0.087352,0.469456,25.549999,-5.810000,-17.920000,20.68
719156,0.875472,-0.042456,0.522160,0.910000,-6.440000,-20.370001,20.68
719167,0.866688,-0.067344,0.558760,17.080000,-8.120000,-24.010000,20.70
719178,0.861808,-0.046360,0.566568,21.139999,-10.430000,-25.200001,20.67
719190,0.871080,-0.004880,0.563640,25.549999,-13.160000,-25.549999,20.67
719202,0.874496,0.026840,0.549000,29.750000,-15.470000,-26.459999,20.72
719214,0.871080,0.161528,0.529968,20.930000,-17.780001,-25.969999,20.71
719226,0.888648,0.146888,0.476776,13.230000,-17.990000,-26.740000,20.71
719238,0.881328,0.170800,0.415776,8.890000,-17.219999,-27.860001,20.70
719251,0.891576,0.175192,0.356728,8.820000,-17.219999,-27.719999,20.66
719263,0.902800,0.186416,0.314272,19.250000,-15.960000,-29.469999,20.66
719274,0.899384,0.327448,0.332816,14.630000,-12.810000,-25.480000,20.72
719287,0.921344,0.266448,0.335256,10.430000,-5.460000,-22.820000,20.67
719299,0.880352,0.198616,0.413824,11.830000,-0.140000,-18.200001,20.67
719311,0.862784,0.237168,0.427976,8.330000,3.150000,-7.700000,20.72
719323,0.859368,0.153232,0.433832,2.800000,7.630000,-1.470000,20.72
719335,0.829112,0.172752,0.408456,-15.540000,8.680000,6.510000,20.72
719346,0.836920,0.139568,0.372832,-36.470001,9.100000,16.520000,20.67
719358,0.835944,0.185440,0.395768,-60.410000,9.450000,27.719999,20.67
719370,0.862296,0.285968,0.401624,-91.000000,8.820000,37.380001,20.69
719381,0.890600,0.346480,0.421632,-123.620003,7.560000,49.349998,20.71
719393,0.909632,0.186904,0.451400,-137.970001,9.450000,53.270000,20.71
719404,0.909144,0.054168,0.478240,-129.289993,10.080000,53.480000,20.71
719416,0.900848,-0.009760,0.487024,-109.129997,10.220000,47.950001,20.71
719428,0.879376,-0.054168,0.492880,-80.430000,10.080000,38.150002,20.69
719440,0.861320,-0.092720,0.488488,-52.570000,10.290000,25.690001,20.71
719451,0.864736,-0.145424,0.467016,-22.190001,11.060000,9.800000,20.71
719463,0.882792,-0.277672,0.483608,15.680000,12.460000,-6.230000,20.68
719474,0.888648,-0.415776,0.485560,63.139999,11.340000,-24.780001,20.71
719486,0.890112,-0.407480,0.537776,110.599998,7.070000,-41.369999,20.71
719497,0.893528,-0.325984,0.574864,147.350006,3.360000,-55.720001,20.73
719509,0.892064,-0.238632,0.615856,171.779999,-0.490000,-62.230000,20.73
719520,0.890112,0.003416,0.616832,166.250000,-5.320000,-63.630001,20.73
719532,0.887184,0.176168,0.619760,132.369995,-9.170000,-55.930000,20.68
719544,0.881816,0.088816,0.546560,100.309998,-8.540000,-55.720001,20.68
719555,0.844728,-0.196664,0.489952,87.220001,-4.690000,-49.070000,20.73
719567,0.748104,0.059536,0.430904,57.610001,-9.940000,-34.299999,20.71
719579,0.765672,0.416264,0.386496,3.500000,-16.100000,-14.280000,20.71
719590,0.811056,0.490440,0.413336,-46.970001,-14.490000,1.470000,20.71
719602,0.824232,0.652456,0.447984,-90.790001,-13.370000,18.410000,20.71
719613,0.885720,0.481168,0.621224,-111.720001,-9.100000,30.309999,20.71
719625,0.886696,0.393328,0.552904,-117.389999,-6.650000,39.619999,20.75
719637,0.911096,0.368928,0.561200,-119.000000,-7.070000,53.480000,20.75
719649,0.929640,0.289384,0.516304,-108.639999,-8.190000,56.070000,20.71
719660,0.930128,0.275720,0.476288,-90.160004,-10.010000,58.660000,20.66
719672,0.933544,0.225456,0.446032,-73.779999,-6.930000,57.330002,20.66
719683,0.914512,0.062952,0.402600,-54.880001,-1.680000,49.560001,20.70
719695,0.896944,-0.054168,0.392840,-35.840000,2.660000,40.669998,20.70
719707,0.872544,-0.197640,0.382592,-11.760000,5.250000,29.260000,20.66
719718,0.859368,-0.265960,0.421144,11.480000,5.390000,15.540000,20.68
719730,0.860344,-0.293288,0.467992,30.240000,4.480000,4.340000,20.68
719741,0.868152,-0.344040,0.506544,48.720001,3.850000,-9.100000,20.73
719755,0.875960,-0.302072,0.536312,62.230000,3.080000,-21.490000,20.68
719766,0.893040,-0.316224,0.547536,73.360001,2.590000,-31.290001,20.68
719779,0.880352,-0.358192,0.540216,88.620003,1.820000,-39.480000,20.73
719791,0.848144,-0.207888,0.523136,93.519997,-1.540000,-40.740002,20.67
719802,0.848144,-0.028792,0.507520,88.970001,-6.020000,-39.270000,20.67
719814,0.850584,0.113216,0.520208,76.440002,-7.210000,-36.540001,20.69
719825,0.839848,0.245952,0.547048,57.259998,-7.070000,-32.689999,20.69
719837,0.841312,0.314272,0.567544,39.759998,-7.210000,-27.020000,20.71
719848,0.859856,0.259128,0.514840,20.299999,-6.650000,-21.209999,20.73
719860,0.854488,0.223992,0.480192,4.340000,-7.560000,-11.130000,20.73
719872,0.850096,0.210816,0.478240,-2.800000,-10.360000,-2.730000,20.69
719885,0.850584,0.345504,0.504592,-22.049999,-12.880000,8.610000,20.69
719896,0.872544,0.422120,0.517280,-44.310001,-14.840000,15.470000,20.69
719908,0.898408,0.365024,0.538264,-60.619999,-13.020000,19.320000,20.72
719919,0.899872,0.274256,0.527040,-68.529999,-12.670000,22.889999,20.72
719931,0.905728,0.177632,0.504104,-68.809998,-12.180000,22.959999,20.66
719943,0.900360,0.083936,0.467992,-59.080002,-12.320000,19.180000,20.69
719955,0.903776,0.100528,0.429440,-42.139999,-11.690000,13.160000,20.69
719966,0.898408,0.088328,0.399184,-29.889999,-9.450000,7.490000,20.71
719978,0.897920,-0.121512,0.397232,7.840000,-6.720000,-4.130000,20.68
719989,0.901824,-0.192272,0.406016,57.259998,-5.530000,-17.570000,20.68
720001,0.905728,-0.184952,0.423584,103.250000,-5.110000,-31.360001,20.68
720012,0.896944,-0.105896,0.453352,122.290001,-6.020000,-38.080002,20.68
720024,0.898896,0.033672,0.482144,103.879997,-5.110000,-35.279999,20.68
720035,0.887184,-0.036112,0.525576,71.260002,-4.480000,-34.230000,20.71
720047,0.850096,-0.081008,0.494832,46.200001,-4.130000,-29.750000,20.71
720058,0.799344,-0.006832,0.442616,8.330000,-6.930000,-21.910000,20.73
720070,0.790560,0.164944,0.386496,-20.160000,-9.660000,-12.670000,20.73
720081,0.801784,0.241072,0.402600,-55.090000,-8.400000,-3.010000,20.71
720093,0.855464,0.305976,0.408944,-85.540001,-3.640000,9.380000,20.70
720105,0.890600,0.291336,0.374296,-104.650002,-0.280000,20.160000,20.70
720117,0.904264,0.257664,0.378200,-109.550003,1.190000,31.500000,20.70
720128,0.905240,0.341112,0.415776,-113.330002,1.330000,42.980000,20.69
720139,0.911584,0.371368,0.473360,-109.900002,-0.140000,51.590000,20.69
720151,0.921344,0.442616,0.501664,-106.190002,0.000000,55.299999,20.71
720162,0.914024,0.305000,0.481656,-96.809998,3.360000,51.450001,20.71
720174,0.888160,0.179584,0.432856,-78.750000,8.680000,44.310001,20.71
720185,0.888648,-0.042944,0.370392,-46.619999,13.580000,31.709999,20.72
720197,0.879376,-0.140544,0.349896,-5.390000,15.470000,17.080000,20.72
720208,0.865712,-0.220576,0.403576,36.680000,14.770000,3.290000,20.70
720220,0.876448,-0.354288,0.467016,83.230003,13.300000,-13.440000,20.71
720232,0.890112,-0.289872,0.554368,115.010002,11.620000,-29.049999,20.71
720243,0.890112,-0.286944,0.611952,139.789993,7.840000,-43.189999,20.68
720255,0.900848,-0.235704,0.650504,155.399994,2.940000,-56.000000,20.68
720266,0.901336,-0.130784,0.626592,156.449997,-1.470000,-61.389999,20.72
720278,0.898408,0.008784,0.616344,135.520004,-4.970000,-59.290001,20.70
720290,0.890600,0.002440,0.538264,104.860001,-4.970000,-53.830002,20.70
720301,0.865224,-0.186904,0.477264,86.309998,-2.310000,-49.209999,20.74
720313,0.774944,-0.015128,0.421632,64.050003,-7.420000,-38.709999,20.68
720327,0.770552,0.347456,0.431392,2.240000,-13.650000,-18.690001,20.68
720339,0.804224,0.462624,0.490440,-34.790001,-12.740000,-0.140000,20.74
720351,0.818376,0.605120,0.521672,-76.580002,-12.460000,13.930000,20.67
720363,0.869128,0.551928,0.511424,-103.949997,-10.780000,26.110001,20.67
720374,0.913536,0.388448,0.513864,-108.150002,-6.860000,33.950001,20.76
720386,0.908656,0.231800,0.539240,-101.989998,-5.180000,41.790001,20.76
720398,0.895968,0.269864,0.528016,-91.559998,-9.240000,46.340000,20.75
720409,0.920368,0.303536,0.509960,-79.800003,-12.390000,49.490002,20.72
720420,0.940864,0.311832,0.472384,-73.430000,-10.640000,49.560001,20.72
720431,0.928176,0.207400,0.398696,-60.689999,-4.690000,42.980000,20.70
720443,0.910608,0.154208,0.375272,-54.250000,1.190000,35.490002,20.70
720454,0.894504,-0.113216,0.383080,-36.820000,4.900000,24.639999,20.69
720466,0.859368,-0.213744,0.418216,-3.990000,6.650000,10.150000,20.70
720477,0.864248,-0.163968,0.464088,20.299999,6.650000,2.240000,20.70
720488,0.878888,-0.280112,0.494344,49.279999,7.420000,-9.940000,20.72
720500,0.885720,-0.232776,0.501664,76.230003,7.980000,-23.379999,20.71
720512,0.881816,-0.135176,0.535336,89.110001,5.180000,-32.340000,20.71
720523,0.876448,-0.061976,0.543632,92.400002,2.030000,-38.849998,20.73
720535,0.897920,-0.123464,0.536800,99.330002,-0.210000,-44.240002,20.73
720546,0.904264,-0.113216,0.503128,104.790001,0.140000,-46.759998,20.69
720557,0.873520,-0.040992,0.509960,102.269997,0.350000,-42.630001,20.71
720569,0.836920,-0.006832,0.501176,84.980003,-1.190000,-39.340000,20.71
720581,0.801784,0.104920,0.531920,55.230000,-3.710000,-29.680000,20.70
720592,0.775432,0.280600,0.544608,17.080000,-8.120000,-19.180000,20.70
720604,0.785680,0.362584,0.508008,-32.970001,-8.190000,-7.420000,20.74
720615,0.817400,0.294264,0.477752,-64.959999,-7.770000,3.010000,20.66
720627,0.825208,0.235216,0.443592,-73.360001,-6.860000,9.100000,20.66
720638,0.849120,0.222040,0.449448,-75.949997,-6.090000,18.760000,20.73
720649,0.864248,0.263520,0.489952,-80.150002,-7.910000,28.629999,20.69
720661,0.882304,0.405528,0.521672,-92.400002,-11.200000,40.110001,20.69
