timestamp_ms,ax,ay,az,gx,gy,gz,tempC
586745,-0.001952,-0.16104,1.03456,-5.11,-71.68,-31.43,21.39
586757,0.003904,-0.160552,1.057008,-13.02,-72.589996,-31.92,21.34
586769,0.020496,-0.172752,1.057984,-20.65,-73.989998,-32.34,21.4
586782,0.045384,-0.236192,1.029192,-24.99,-74.970001,-34.16,21.4
586793,0.071248,-0.27328,0.975024,-22.4,-76.370003,-34.860001,21.4
586805,0.115168,-0.231312,0.99308,-23.450001,-76.580002,-32.759998,21.4
586817,0.154208,-0.18056,1.03212,-27.51,-76.510002,-32.619999,21.4
586828,0.169336,-0.177144,1.06384,-32.619999,-77.419998,-33.040001,21.41
586840,0.196176,-0.232288,1.05652,-39.130001,-79.029999,-33.810001,21.38
586852,0.201056,-0.28304,1.060424,-43.889999,-82.879997,-35.77,21.38
586864,0.213256,-0.298656,1.08092,-48.299999,-90.650002,-38.080002,21.36
586876,0.255712,-0.216184,1.067256,-62.790001,-95.129997,-38.709999,21.36
586888,0.305976,-0.166408,1.04188,-82.389999,-96.18,-38.779999,21.39
586900,0.350384,-0.236192,0.992592,-92.959999,-94.150002,-40.529999,21.36
586912,0.352336,-0.364536,0.967704,-87.57,-93.660004,-43.540001,21.36
586923,0.359656,-0.412848,0.9394,-71.610001,-96.949997,-46.130001,21.4
586935,0.384544,-0.395768,0.909144,-60.130001,-100.519997,-47.389999,21.37
586946,0.408456,-0.366,0.88572,-48.93,-103.459999,-48.509998,21.37
586958,0.434808,-0.303048,0.887672,-45.5,-106.400002,-49.209999,21.36
586970,0.465552,-0.223504,0.865224,-51.73,-107.800003,-49.349998,21.4
586982,0.527528,-0.221064,0.798856,-58.59,-104.019997,-47.529999,21.4
586993,0.537288,-0.262544,0.787632,-58.939999,-100.169998,-46.41,21.38
587004,0.533872,-0.276208,0.759328,-55.23,-97.650002,-43.119999,21.38
587016,0.535824,-0.29768,0.76616,-48.93,-96.18,-39.060001,21.39
587028,0.537776,-0.323056,0.78568,-41.23,-96.879997,-35.77,21.37
587039,0.554856,-0.29036,0.815936,-38.919998,-99.540001,-32.060001,21.37
587051,0.588528,-0.261568,0.7686,-41.23,-99.959999,-28.91,21.36
587063,0.616832,-0.294264,0.714432,-46.130001,-99.190002,-28.139999,21.36
587075,0.62952,-0.271816,0.635376,-52.290001,-98.07,-26.6,21.37
587086,0.671,-0.244488,0.549488,-58.450001,-93.589996,-23.17,21.37
587098,0.682224,-0.289872,0.524112,-59.150002,-88.129997,-20.93,21.37
587110,0.66612,-0.310368,0.529968,-53.970001,-85.190002,-18.9,21.37
587122,0.674416,-0.30012,0.510448,-47.669998,-81.970001,-15.47,21.35
587133,0.685152,-0.301096,0.51484,-44.240002,-78.190002,-12.74,21.35
587145,0.681248,-0.233752,0.479704,-46.689999,-73.709999,-8.89,21.36
587157,0.696376,-0.264008,0.416264,-46.48,-66.57,-6.3,21.34
587169,0.696864,-0.30012,0.360632,-40.25,-60.830002,-4.06,21.34
587181,0.711504,-0.278648,0.318664,-33.32,-54.599998,0.35,21.37
587193,0.748104,-0.220088,0.300608,-33.880001,-46.34,6.23,21.37
587205,0.7442,-0.287432,0.296704,-30.24,-37.66,10.29,21.34
587216,0.71736,-0.345016,0.343064,-27.719999,-32.060001,14.56,21.35
587228,0.7076,-0.3294,0.352336,-32.27,-28.84,18.620001,21.35
587239,0.716384,-0.352824,0.3538,-39.759998,-21.98,21.84,21.34
587251,0.689544,-0.411384,0.377224,-42.630001,-16.73,23.59,21.33
587263,0.682712,-0.406016,0.357216,-48.09,-13.37,25.690001,21.33
587274,0.71004,-0.455304,0.339648,-52.290001,-7.7,26.389999,21.37
587286,0.698816,-0.486048,0.366,-55.16,-4.27,27.370001,21.37
587298,0.695888,-0.545584,0.398696,-58.450001,-1.61,25.76,21.39
587310,0.6954,-0.552416,0.403576,-59.360001,0.49,24.360001,21.36
587321,0.686128,-0.6344,0.413824,-55.439999,2.1,21.0,21.36
587332,0.672952,-0.685152,0.420168,-48.580002,1.82,16.799999,21.41
587345,0.682712,-0.654408,0.425536,-42.700001,1.05,13.86,21.33
587356,0.695888,-0.68076,0.432368,-44.029999,3.01,9.52,21.33
587368,0.678808,-0.710528,0.435784,-48.580002,4.13,4.9,21.34
587379,0.685152,-0.772504,0.452376,-47.32,5.18,-1.26,21.34
587391,0.66368,-0.702232,0.481168,-47.32,3.29,-7.0,21.43
587403,0.670024,-0.745176,0.508496,-47.669998,2.59,-11.9,21.37
587414,0.667096,-0.784704,0.530944,-41.509998,-0.42,-20.370001,21.37
587426,0.66368,-0.759328,0.523624,-34.02,-4.41,-27.93,21.35
587438,0.69052,-0.73444,0.489464,-22.469999,-8.89,-37.169998,21.34
587449,0.708576,-0.709064,0.448472,-8.68,-11.55,-47.040001,21.34
587461,0.731512,-0.696376,0.42212,9.94,-15.61,-56.279999,21.38
587473,0.734928,-0.706136,0.435296,38.709999,-19.389999,-66.5,21.38
587484,0.732,-0.610488,0.44164,62.720001,-23.379999,-76.230003,21.38
587497,0.752008,-0.633912,0.471408,88.199997,-28.77,-84.559998,21.35
587510,0.74908,-0.5978,0.482144,119.279999,-38.990002,-98.279999,21.35
587522,0.801296,-0.484096,0.509472,134.889999,-44.52,-102.690002,21.39
587534,0.8052,-0.551928,0.5124,163.520004,-49.0,-110.529999,21.33
587545,0.776896,-0.427,0.522648,187.320007,-59.290001,-115.010002,21.33
587557,0.784216,-0.340624,0.525576,203.839996,-64.68,-112.209999,21.37
587568,0.793488,-0.367952,0.523624,227.080002,-74.269997,-113.470001,21.39
587580,0.781288,-0.293288,0.480192,256.76001,-82.879997,-110.599998,21.39
587592,0.806664,-0.199104,0.41968,280.700012,-90.510002,-105.279999,21.38
587603,0.79544,0.14152,0.33184,253.820007,-94.43,-92.610001,21.38
587615,0.860832,0.35136,0.215696,192.779999,-80.360001,-75.110001,21.38
587627,0.867176,0.338672,0.116144,125.160004,-65.169998,-58.450001,21.36
587639,0.879376,0.438712,0.003904,40.880001,-38.990002,-36.75,21.36
587650,0.889624,0.376736,-0.038552,-30.17,-13.58,-12.04,21.36
587662,0.884744,0.459208,-0.094672,-107.730003,9.94,15.33,21.36
587674,0.923296,0.466528,-0.065392,-158.059998,35.349998,44.450001,21.36
587685,0.89548,0.388448,0.062952,-209.789993,55.23,72.660004,21.34
587697,0.865224,0.28304,0.20984,-253.960007,67.410004,96.529999,21.34
587708,0.861808,0.132248,0.341112,-272.160004,70.349998,117.669998,21.37
587719,0.845704,-0.052216,0.465064,-272.51001,67.830002,131.460007,21.39
587730,0.87352,-0.19032,0.550464,-265.160004,63.209999,139.089996,21.39
587742,0.831064,-0.337208,0.656848,-250.320007,51.799999,142.449997,21.36
587754,0.860832,-0.338184,0.676368,-246.259995,40.529999,146.440002,21.38
587765,0.88572,-0.377712,0.584624,-240.520004,41.509998,145.389999,21.38
587777,0.809592,-0.70516,0.514352,-207.199997,36.049999,135.869995,21.39
587789,0.735416,-0.817888,0.450424,-163.869995,29.4,123.129997,21.39
587800,0.642696,-0.999912,0.408456,-110.809998,19.32,104.300003,21.38
587812,0.606584,-1.105808,0.352336,-55.09,4.48,77.279999,21.35
587824,0.593408,-1.209752,0.3538,-7.0,-4.13,50.119999,21.35
587835,0.578768,-1.372744,0.369416,33.18,-14.56,20.23,21.38
587846,0.61,-1.367864,0.399184,51.869999,-23.73,-7.84,21.38
587858,0.626104,-1.347856,0.430904,60.130001,-29.469999,-34.509998,21.37
587870,0.634888,-1.210728,0.44408,58.099998,-33.740002,-57.610001,21.38
587882,0.67588,-1.04432,0.436272,52.290001,-34.16,-76.720001,21.38
587894,0.695888,-0.973072,0.41236,59.150002,-32.759998,-94.360001,21.39
587905,0.650016,-0.844728,0.392352,75.669998,-39.830002,-108.010002,21.36
587917,0.71492,-0.781288,0.352336,106.470001,-42.0,-119.419998,21.36
587928,0.713456,-0.802272,0.296704,149.660004,-48.790001,-129.639999,21.36
587940,0.7442,-0.652456,0.259128,209.509995,-59.709999,-137.690002,21.36
587951,0.786656,-0.459696,0.250344,257.809998,-65.519997,-139.229996,21.33
587963,0.799832,-0.367464,0.21716,294.0,-70.559998,-137.830002,21.34
587974,0.825696,-0.237168,0.201544,319.200012,-73.010002,-131.25,21.34
587986,0.807152,-0.146888,0.196176,331.450012,-74.410004,-123.970001,21.4
588000,0.802272,-0.0488,0.193736,337.540009,-74.129997,-111.510002,21.36
588011,0.791536,0.054656,0.209352,335.299988,-71.82,-99.400002,21.36
588023,0.786168,0.384056,0.171288,288.959991,-64.959999,-83.720001,21.38
588034,0.841312,0.482144,0.110288,218.679993,-47.599998,-65.519997,21.36
588046,0.869128,0.638304,0.001464,111.089996,-23.799999,-48.580002,21.36
588058,0.903288,0.535824,-0.120048,16.66,4.97,-27.02,21.37
588069,0.85156,0.415288,-0.182024,-46.41,28.139999,-7.0,21.37
588081,0.81984,0.452376,-0.122,-100.309998,46.759998,14.84,21.38
588093,0.833504,0.510448,0.002928,-158.479996,65.379997,38.709999,21.35
588104,0.827648,0.45628,0.15128,-206.360001,82.949997,57.470001,21.35
588115,0.811544,0.307928,0.290848,-234.009995,91.769997,76.720001,21.34
588126,0.808616,0.265472,0.392352,-258.089996,94.639999,94.639999,21.34
588138,0.82228,0.068808,0.42456,-276.920013,93.940002,109.620003,21.31
588150,0.815936,-0.090768,0.4758,-285.809998,87.849998,122.220001,21.35
588162,0.845704,-0.175192,0.565592,-290.98999,80.150002,131.460007,21.35
588173,0.835944,-0.316712,0.64172,-289.380005,72.239998,135.940002,21.38
588185,0.837896,-0.400648,0.670024,-284.410004,63.700001,137.690002,21.39
588196,0.828136,-0.558272,0.667584,-272.019989,54.599998,135.240005,21.39
588207,0.823256,-0.596336,0.573888,-251.929993,48.650002,128.869995,21.34
588219,0.78324,-0.684664,0.508008,-217.490005,45.43,115.709999,21.34
588230,0.680272,-0.828136,0.45628,-164.570007,35.07,101.43,21.37
588242,0.651968,-0.935008,0.390888,-98.629997,22.049999,80.150002,21.33
588254,0.617808,-1.137528,0.33184,-22.469999,7.98,47.669998,21.33
588265,0.617808,-1.249768,0.335744,40.740002,-7.84,21.280001,21.37
588277,0.640256,-1.301008,0.400648,77.209999,-16.52,0.98,21.35
588288,0.63684,-1.27856,0.462624,89.879997,-22.75,-24.360001,21.35
588300,0.639768,-1.177056,0.525088,87.220001,-27.23,-48.650002,21.34
588311,0.662216,-1.079944,0.54656,81.970001,-27.51,-68.389999,21.34
588323,0.674416,-0.928664,0.540704,89.529999,-29.959999,-85.330002,21.36
588334,0.708088,-0.818864,0.527528,111.230003,-30.66,-100.449997,21.39
588346,0.664168,-0.759328,0.506056,151.619995,-40.950001,-116.410004,21.39
588358,0.731512,-0.70028,0.477752,203.070007,-51.169998,-130.270004,21.36
588370,0.76372,-0.621224,0.469456,258.160004,-62.720001,-140.979996,21.41
588382,0.806664,-0.525576,0.415776,309.609985,-71.68,-146.649994,21.41
588393,0.84424,-0.484096,0.310368,363.579987,-78.260002,-147.490005,21.4
588405,0.828136,-0.382104,0.238632,415.309998,-88.410004,-140.210007,21.4
588417,0.76616,-0.218624,0.20252,446.390015,-97.580002,-128.380005,21.37
588428,0.766648,0.089792,0.201544,437.220001,-104.019997,-115.989998,21.41
588440,0.830088,0.225456,0.203496,403.339996,-95.129997,-95.970001,21.41
588452,0.781288,0.658312,0.1952,273.559998,-76.510002,-73.220001,21.37
588463,0.853512,0.794464,0.111264,120.540001,-40.740002,-53.27,21.39
588475,0.815448,0.567544,-0.02684,11.55,-6.37,-32.27,21.39
588486,0.826672,0.5368,-0.179096,-74.970001,21.07,-8.68,21.34
588498,0.87596,0.565592,-0.178608,-144.899994,43.889999,16.870001,21.34
588509,0.844728,0.578768,-0.015128,-198.940002,61.810001,39.48,21.37
588521,0.859368,0.553392,0.160552,-238.910004,77.910004,60.900002,21.39
588532,0.848144,0.37088,0.3172,-274.470001,88.269997,79.449997,21.39
588543,0.780312,0.20496,0.461648,-287.700012,90.580002,94.779999,21.39
588555,0.772992,0.082472,0.558272,-292.529999,84.699997,107.870003,21.39
588566,0.804224,-0.009272,0.604632,-297.779999,78.260002,116.410004,21.37
588578,0.852536,-0.025864,0.58804,-307.299988,72.029999,124.32,21.35
588589,0.870592,-0.132736,0.582672,-312.970001,66.779999,129.080002,21.35
588601,0.868152,-0.28304,0.608048,-312.690002,60.549999,134.119995,21.44
588612,0.844728,-0.32696,0.554368,-305.269989,56.209999,133.419998,21.34
588624,0.804712,-0.517768,0.52704,-282.309998,51.450001,129.009995,21.34
588635,0.742248,-0.61488,0.477752,-252.139999,44.380001,118.160004,21.37
588648,0.70272,-0.73932,0.40504,-188.440002,36.82,104.720001,21.37
588660,0.637328,-0.874008,0.33184,-117.949997,24.5,79.099998,21.35
588671,0.628544,-1.118496,0.259128,-42.490002,12.04,54.459999,21.37
588683,0.626104,-1.130696,0.216672,27.440001,0.63,33.880001,21.37
588694,0.628544,-1.226344,0.272792,82.110001,-9.03,7.14,21.36
588705,0.647088,-1.155096,0.372832,105.139999,-14.91,-18.9,21.36
588717,0.649528,-1.199016,0.498248,118.860001,-16.309999,-45.009998,21.36
588728,0.612928,-1.1468,0.629032,129.149994,-21.700001,-68.18,21.37
588740,0.647088,-1.136552,0.670024,144.410004,-25.48,-89.459999,21.37
588752,0.650016,-1.066768,0.662704,183.889999,-35.07,-110.949997,21.39
588764,0.701744,-0.854488,0.647088,222.039993,-40.18,-127.610001,21.33
588775,0.721264,-0.864248,0.45384,279.51001,-48.93,-142.660004,21.33
588787,0.7564,-0.706624,0.298168,336.209991,-64.120003,-148.119995,21.36
588799,0.728584,-0.464576,0.300608,371.910004,-79.870003,-144.270004,21.33
588810,0.738832,-0.142496,0.403576,382.829987,-89.529999,-134.119995,21.33
588821,0.713456,0.264984,0.541192,342.929993,-91.419998,-116.410004,21.35
588832,0.739808,0.631472,0.545096,231.979996,-76.860001,-94.43,21.35
588844,0.756888,0.476288,0.433832,131.460007,-53.759998,-73.5,21.41
588855,0.719312,0.5002,0.296216,54.32,-36.610001,-51.52,21.37
588867,0.784704,0.47824,0.078568,-6.37,-17.99,-30.450001,21.37
588879,0.831552,0.552416,0.042456,-59.639999,-1.61,-8.54,21.41
588891,0.866688,0.620248,0.095648,-114.169998,16.1,14.7,21.41
588902,0.864248,0.557784,0.179096,-161.559998,32.759998,31.290001,21.42
588913,0.825208,0.385032,0.265472,-192.360001,44.52,50.470001,21.38
588924,0.801296,0.30988,0.363072,-211.539993,50.75,68.110001,21.38
588935,0.80276,0.16104,0.424072,-227.990005,53.689999,82.529999,21.39
588946,0.832528,0.120048,0.466528,-234.990005,53.060001,97.019997,21.39
588958,0.86132,0.094672,0.488,-244.649994,53.060001,106.120003,21.34
588970,0.898896,-0.018056,0.506544,-252.699997,57.889999,119.349998,21.39
588981,0.854488,-0.17812,0.586088,-252.350006,56.84,126.139999,21.39
588993,0.818376,-0.255712,0.60512,-250.179993,52.43,127.889999,21.38
589004,0.763232,-0.363072,0.60024,-245.419998,46.41,127.400002,21.36
589016,0.781776,-0.506056,0.526064,-220.919998,45.919998,120.050003,21.36
589027,0.712968,-0.653432,0.462136,-177.169998,40.25,110.25,21.37
589039,0.6832,-0.788608,0.249856,-120.050003,31.639999,95.199997,21.37
589050,0.63928,-0.959408,0.3294,-57.82,21.07,77.489998,21.39
589062,0.621224,-1.038464,0.35136,-12.6,8.61,56.98,21.34
589073,0.60756,-1.131184,0.427488,30.1,-1.33,34.02,21.34
589084,0.60756,-1.145824,0.496784,53.41,-8.4,11.27,21.35
589095,0.645624,-1.080432,0.539728,54.950001,-9.66,-5.04,21.35
589107,0.633912,-1.035536,0.55388,49.91,-11.69,-24.639999,21.36
589119,0.66856,-0.884256,0.550464,48.299999,-12.32,-41.439999,21.34
589130,0.675392,-0.786656,0.538264,60.200001,-12.32,-56.07,21.34
589142,0.670024,-0.813008,0.52948,101.989998,-17.5,-73.989998,21.36
589154,0.693936,-0.75396,0.548024,151.410004,-27.440001,-107.029999,21.33
589165,0.726144,-0.759816,0.558272,213.990005,-35.98,-103.459999,21.33
589177,0.766648,-0.756888,0.5368,283.5,-46.619999,-117.18,21.37
589188,0.752496,-0.640744,0.520696,350.140015,-58.869999,-123.900002,21.37
589199,0.777872,-0.548024,0.427976,399.350006,-69.300003,-125.510002,21.34
589211,0.769576,-0.38796,0.4148,444.640015,-76.650002,-121.379997,21.37
589223,0.7198,-0.238632,0.405528,469.350006,-81.760002,-112.489998,21.37
589234,0.713456,0.062952,0.421144,452.410004,-81.690002,-98.349998,21.36
589246,0.730536,0.252296,0.447496,395.079987,-70.629997,-82.18,21.36
589257,0.721264,0.550464,0.398208,278.459991,-52.360001,-63.07,21.41
589269,0.874008,0.704184,0.31964,108.290001,-21.07,-39.48,21.37
589280,0.749568,0.516304,0.103944,-32.689999,4.55,-17.15,21.37
589292,0.731512,0.38308,-0.050752,-131.880005,27.93,9.59,21.36
589303,0.77592,0.45628,0.0488,-213.149994,47.18,36.119999,21.35
589314,0.7808,0.479216,0.363072,-282.23999,63.630001,56.279999,21.35
589326,0.793976,0.378688,0.462624,-327.809998,75.809998,77.349998,21.36
589338,0.760792,0.169336,0.646112,-354.130005,76.300003,90.720001,21.36
589349,0.72956,0.095648,0.784216,-370.51001,67.199997,104.93,21.36
589361,0.829112,0.04148,0.83692,-384.859985,62.860001,110.25,21.34
589372,0.851072,-0.069296,0.783728,-388.920013,56.77,117.040001,21.34
589384,0.877424,-0.284504,0.691008,-366.450012,52.5,116.830002,21.34
589396,0.827648,-0.260104,0.613904,-332.079987,41.720001,112.07,21.34
589407,0.8296,-0.32208,0.505568,-291.200012,38.639999,108.57,21.35
589418,0.726632,-0.552416,0.382592,-215.880005,33.669998,94.010002,21.35
589430,0.635376,-0.715408,0.270352,-119.279999,20.23,77.209999,21.35
589442,0.60756,-0.823256,0.218136,-19.809999,4.97,58.029999,21.37
589453,0.617808,-0.846192,0.262056,50.889999,-2.66,40.459999,21.36
589465,0.616832,-0.896456,0.37576,88.620003,-5.39,23.870001,21.36
589476,0.606584,-0.915976,0.50752,95.690002,-5.67,8.05,21.34
589488,0.62464,-0.932568,0.557296,82.040001,-0.77,-5.32,21.34
589499,0.628544,-0.966728,0.542168,67.760002,5.11,-16.73,21.39
589510,0.641232,-0.95404,0.501176,56.84,11.27,-23.66,21.37
589522,0.63196,-0.9272,0.483608,53.900002,15.33,-30.870001,21.37
589533,0.626592,-0.88816,0.48312,61.32,15.68,-39.549999,21.44
589545,0.654408,-0.723216,0.503616,65.870003,17.780001,-44.799999,21.44
589556,0.624152,-0.6222,0.54656,89.18,17.99,-46.34,21.36
589568,0.686128,-0.604632,0.545584,78.470001,22.33,-48.299999,21.34
589579,0.673928,-0.609512,0.577792,92.120003,23.379999,-48.580002,21.34
589591,0.70272,-0.61976,0.604144,110.809998,24.57,-48.860001,21.37
589602,0.719312,-0.631472,0.587064,136.710007,27.16,-51.799999,21.34
589614,0.745176,-0.557296,0.488488,149.800003,31.709999,-52.009998,21.34
589625,0.7686,-0.489464,0.367952,158.619995,39.27,-50.610001,21.37
589636,0.749568,-0.424072,0.279624,165.690002,48.720001,-50.540001,21.37
589648,0.718336,-0.221552,0.303048,153.300003,55.299999,-48.299999,21.39
589660,0.719312,-0.09272,0.395768,121.309998,66.290001,-44.52,21.36
589671,0.722728,-0.050264,0.483608,82.809998,78.82,-39.34,21.36
589683,0.708088,-0.141032,0.503128,65.870003,91.0,-36.82,21.37
589694,0.651968,-0.19032,0.508496,52.709999,98.980003,-33.459999,21.36
589706,0.609024,-0.186904,0.48068,40.459999,105.769997,-30.940001,21.36
589717,0.549976,-0.24888,0.504104,31.99,114.379997,-28.42,21.41
589729,0.49532,-0.179584,0.671488,26.67,112.769997,-23.1,21.41
589740,0.496784,-0.012688,0.801784,22.120001,113.540001,-19.18,21.36
589751,0.49776,0.069784,0.866688,17.15,112.629997,-15.54,21.32
589762,0.47336,0.049776,0.933544,16.870001,110.739998,-14.91,21.32
589774,0.4514,0.037088,1.003816,16.1,106.82,-13.02,21.38
589785,0.436272,0.001952,1.034072,15.75,102.129997,-12.74,21.38
589797,0.398696,-0.005368,1.056032,15.96,94.5,-11.34,21.36
589808,0.374296,0.047336,1.034072,10.22,86.029999,-8.75,21.34
589819,0.366,0.023912,0.991616,2.38,81.269997,-6.23,21.34
589830,0.332328,0.032208,0.979904,-2.59,74.269997,-3.36,21.34
589842,0.339648,0.074664,1.026264,-10.57,66.43,1.12,21.34
589854,0.373808,0.072712,1.094584,-21.0,59.919998,3.78,21.37
589865,0.389424,0.028792,1.162904,-26.25,52.009998,5.25,21.38
589877,0.388448,0.010248,1.205848,-29.33,41.02,6.37,21.38
589888,0.3904,-0.0244,1.1956,-30.59,33.389999,7.0,21.34
589899,0.381616,-0.099552,1.153632,-27.51,25.969999,5.46,21.34
589911,0.36356,-0.141032,1.11264,-0.63,17.57,3.01,21.4
589922,0.366,-0.169824,1.069696,-9.94,10.01,0.91,21.34
589934,0.374784,-0.188368,1.031632,-2.31,4.76,-0.63,21.34
589946,0.383568,-0.164944,1.010648,1.89,0.0,-1.4,21.37
589957,0.392352,-0.135176,0.994056,1.61,-3.43,-1.12,21.31
589969,0.391864,-0.14396,0.970632,0.77,-6.02,-1.54,21.31
589980,0.396744,-0.165432,0.94916,1.82,-7.21,-1.75,21.33
589992,0.391864,-0.172264,0.935984,5.81,-9.8,-2.1,21.33
590003,0.4026,-0.11468,0.946232,5.67,-11.97,-0.49,21.38
590015,0.421632,-0.101992,0.947208,0.77,-10.99,0.77,21.37
590026,0.418216,-0.136152,0.93208,-1.96,-9.73,1.61,21.37
590038,0.410896,-0.154696,0.920368,-3.01,-9.66,2.38,21.38
590050,0.411384,-0.152744,0.926224,-6.37,-9.24,3.08,21.37
590061,0.423096,-0.18544,0.934032,-9.38,-8.61,3.64,21.37
590072,0.412848,-0.22204,0.922808,-7.42,-8.19,3.29,21.36
590084,0.40748,-0.236192,0.905728,-2.38,-7.77,2.59,21.36
590096,0.403088,-0.22692,0.882792,4.2,-7.21,1.47,21.37
590107,0.398208,-0.206912,0.8784,9.31,-6.79,1.05,21.33
590119,0.402112,-0.171776,0.895968,11.2,-6.37,1.19,21.33
590130,0.404552,-0.147864,0.912072,8.68,-5.53,1.75,21.36
590141,0.407968,-0.145912,0.930616,2.17,-4.76,2.59,21.36
590153,0.407968,-0.155184,0.935496,-3.99,-3.92,3.29,21.36
590164,0.401624,-0.179096,0.929152,-8.26,-3.22,3.64,21.37
590176,0.39284,-0.19032,0.911584,-10.92,-2.8,3.85,21.37
590188,0.38308,-0.225456,0.905728,-10.36,-2.38,3.36,21.37
590199,0.38064,-0.242048,0.906216,-6.09,-2.59,2.52,21.33
590211,0.38308,-0.237168,0.91988,-0.07,-3.01,1.61,21.33
590222,0.395768,-0.2196,0.939888,4.06,-3.64,0.63,21.35
590234,0.403088,-0.20008,0.951112,5.74,-4.06,0.0,21.35
590245,0.408944,-0.177144,0.951112,5.11,-4.27,-0.35,21.41
590257,0.40992,-0.16592,0.933544,2.8,-3.71,-0.28,21.35
590269,0.40504,-0.16104,0.917928,-0.14,-3.36,0.14,21.35
590281,0.407968,-0.171776,0.908168,-3.85,-2.66,0.77,21.4
590292,0.40748,-0.202032,0.89548,-4.97,-1.61,0.49,21.38
590304,0.393816,-0.216672,0.910608,-2.8,-2.45,0.35,21.38
590315,0.399672,-0.20252,0.925248,-1.12,-3.01,-0.28,21.37
590327,0.399184,-0.206424,0.933056,0.7,-3.01,-0.7,21.37
590338,0.399184,-0.203496,0.942328,2.87,-3.5,-1.26,21.36
590350,0.399184,-0.186416,0.94428,3.71,-3.57,-1.26,21.34
590361,0.40748,-0.181536,0.936472,3.85,-3.5,-1.19,21.34
590373,0.403576,-0.175192,0.923784,2.73,-3.29,-0.84,21.34
590384,0.398208,-0.175192,0.9028,1.68,-2.52,-0.42,21.34
590396,0.3904,-0.17568,0.899872,0.63,-2.24,0.0,21.36
590407,0.392352,-0.193736,0.902312,0.84,-2.24,0.21,21.37
590418,0.399184,-0.196664,0.914512,1.19,-2.24,0.42,21.37
590430,0.403088,-0.194712,0.911584,1.47,-1.75,0.28,21.37
590441,0.400648,-0.193736,0.911096,2.73,-1.33,0.21,21.35
590453,0.398696,-0.185928,0.91012,3.71,-1.33,-0.07,21.35
590464,0.394792,-0.171776,0.925736,2.31,-1.47,0.14,21.34
590475,0.397232,-0.177632,0.930616,1.75,-1.89,0.0,21.34
590487,0.401624,-0.162504,0.933056,-0.35,-2.1,0.49,21.37
590498,0.4026,-0.164456,0.928664,-3.15,-1.75,0.84,21.36
590510,0.400648,-0.183976,0.92476,-4.62,-1.47,1.19,21.36
590521,0.394792,-0.204472,0.926224,-4.48,-1.54,0.91,21.4
590532,0.390888,-0.22204,0.921832,-1.75,-1.96,0.7,21.4
590544,0.390888,-0.225944,0.9272,1.89,-2.94,-0.07,21.36
590555,0.39772,-0.2074,0.928664,4.76,-3.71,-0.77,21.34
590567,0.407968,-0.182512,0.928664,5.46,-3.85,-0.91,21.34
590579,0.414312,-0.164456,0.924272,3.99,-3.5,-0.63,21.39
590590,0.41236,-0.161528,0.9272,0.56,-3.01,-0.07,21.37
590602,0.408456,-0.172752,0.931104,-2.59,-2.59,0.63,21.37
590614,0.400648,-0.197152,0.935008,-4.27,-3.08,0.7,21.36
590625,0.399672,-0.215696,0.93208,-2.59,-3.92,0.07,21.36
590637,0.401136,-0.220088,0.91988,0.7,-4.55,-0.49,21.37
590649,0.402112,-0.203496,0.908656,3.78,-4.83,-1.12,21.34
590660,0.409432,-0.189344,0.91012,4.41,-4.48,-1.12,21.34
590672,0.410408,-0.171776,0.914512,3.78,-3.99,-0.56,21.36
590683,0.413824,-0.163968,0.914024,1.68,-3.43,0.42,21.36
590694,0.40504,-0.170312,0.920368,-0.14,-3.01,1.19,21.34
590706,0.39772,-0.181536,0.93208,-1.26,-3.64,1.47,21.36
590717,0.396256,-0.182512,0.961848,-1.47,-4.83,1.47,21.36
590729,0.39284,-0.179096,0.984296,-2.59,-7.21,1.26,21.37
590740,0.3782,-0.178608,0.974536,-3.36,-9.31,1.12,21.36
590752,0.362584,-0.157624,0.929152,-5.46,-11.34,2.87,21.36
590763,0.346968,-0.159576,0.909144,-5.81,-14.42,4.62,21.38
590775,0.366,-0.122488,0.909144,-11.2,-16.799999,7.42,21.38
590787,0.3782,-0.113704,0.913536,-17.08,-17.780001,8.96,21.36
590798,0.373808,-0.115656,0.884744,-27.65,-20.02,11.48,21.35
590810,0.383568,-0.138592,0.86864,-31.99,-23.1,13.09,21.35
590823,0.404064,-0.034648,0.906704,-43.259998,-30.309999,16.450001,21.41
590834,0.439688,0.065392,1.032608,-67.339996,-37.029999,21.84,21.37
590846,0.479216,0.04636,1.091656,-100.239998,-41.93,24.290001,21.37
590857,0.499224,0.054656,1.059936,-147.630005,-46.41,29.190001,21.33
590868,0.518744,-0.091256,1.082872,-172.899994,-48.369999,30.73,21.33
590880,0.50752,-0.432368,1.130208,-160.929993,-56.98,24.99,21.33
590892,0.487024,-0.515328,1.20536,-130.690002,-72.379997,20.58,21.38
590904,0.515328,-0.318664,1.196576,-117.18,-88.129997,19.67,21.38
590915,0.545584,-0.25132,1.171688,-111.860001,-94.290001,21.139999,21.35
590927,0.536312,-0.327936,1.106296,-100.589996,-100.449997,20.719999,21.39
590939,0.555344,-0.302072,1.060424,-97.650002,-104.089996,22.33,21.39
590950,0.553392,-0.369904,0.969168,-95.269997,-101.779999,22.26,21.4
590962,0.53924,-0.357704,0.884256,-98.349998,-103.32,23.030001,21.4
590974,0.550464,-0.53436,0.793976,-92.190002,-99.889999,20.790001,21.39
590986,0.51484,-0.465064,0.718336,-83.790001,-101.080002,21.35,21.35
590997,0.552416,-0.442128,0.66856,-83.089996,-96.32,25.83,21.35
591011,0.550464,-0.540216,0.586088,-74.970001,-89.110001,26.25,21.38
591022,0.5246,-0.59048,0.49532,-67.690002,-84.980003,26.74,21.36
591033,0.537776,-0.655872,0.425536,-59.709999,-80.57,25.48,21.36
591045,0.537288,-0.72956,0.3538,-51.240002,-75.879997,21.700001,21.34
591056,0.542656,-0.752984,0.325008,-44.66,-71.260002,16.870001,21.34
591069,0.538752,-0.862784,0.294264,-32.900002,-64.120003,10.15,21.38
591080,0.523136,-0.894016,0.276208,-19.18,-61.040001,0.91,21.36
591092,0.537288,-0.88816,0.246928,-5.11,-55.860001,-8.68,21.36
591103,0.552416,-0.91256,0.184952,26.67,-51.799999,-21.139999,21.42
591114,0.571448,-0.743712,0.180072,46.130001,-49.0,-32.060001,21.39
591126,0.584136,-0.770552,0.232776,70.980003,-43.470001,-44.73,21.39
591137,0.565104,-0.8418,0.298656,110.18,-43.82,-61.25,21.37
591149,0.597312,-0.811544,0.374784,158.899994,-46.619999,-76.160004,21.37
591160,0.628056,-0.796416,0.462624,210.419998,-49.84,-88.830002,21.4
591172,0.630496,-0.80032,0.50264,266.350006,-54.810001,-98.489998,21.4
591183,0.66612,-0.86132,0.47824,326.549988,-62.580002,-108.57,21.4
591194,0.661728,-0.847168,0.465064,376.529999,-70.279999,-112.839996,21.4
591206,0.650504,-0.629032,0.49532,400.679993,-78.470001,-112.139999,21.38
591218,0.671,-0.428952,0.51972,405.579987,-81.339996,-106.889999,21.38
591229,0.671488,-0.171776,0.54656,388.98999,-84.349998,-101.709999,21.37
591240,0.71248,0.013664,0.569008,352.170013,-79.589996,-92.120003,21.37
591252,0.697352,0.133712,0.5368,308.630005,-72.800003,-81.480003,21.39
591264,0.718336,0.203008,0.467016,259.769989,-64.889999,-70.910004,21.37
591275,0.732488,0.177632,0.381616,219.100006,-56.630001,-62.23,21.37
591287,0.715408,0.252784,0.271328,179.339996,-49.419998,-50.049999,21.37
591298,0.750056,0.434808,0.183488,115.919998,-39.759998,-34.509998,21.37
591310,0.760792,0.526064,0.20252,41.580002,-21.42,-19.6,21.39
591322,0.772992,0.542168,0.239608,-36.610001,0.07,-4.62,21.34
591333,0.75152,0.532896,0.28792,-122.290001,17.360001,11.48,21.34
591344,0.7442,0.43188,0.344528,-189.139999,37.869999,28.07,21.35
591356,0.727608,0.391864,0.364536,-253.820007,53.619999,40.459999,21.36
591367,0.76128,0.254736,0.376248,-305.690002,64.959999,55.509998,21.36
591378,0.766648,0.145424,0.421632,-344.049988,71.75,68.25,21.35
591390,0.782752,0.045384,0.489464,-375.130005,76.160004,80.57,21.35
591401,0.76616,-0.03172,0.596336,-390.459991,76.510002,93.239998,21.4
591413,0.736392,-0.068808,0.753472,-405.019989,71.190002,101.220001,21.39
591424,0.757376,-0.066856,0.801784,-419.579987,66.849998,106.400002,21.39
591435,0.750544,-0.115168,0.786168,-433.160004,59.779999,110.879997,21.36
591447,0.759328,-0.325008,0.716384,-417.269989,56.139999,109.550003,21.36
591458,0.71736,-0.53192,0.650016,-372.959991,46.759998,102.690002,21.4
591470,0.729072,-0.608048,0.50508,-305.619995,38.849998,92.260002,21.34
591481,0.691496,-0.691984,0.40504,-220.779999,29.190001,80.709999,21.34
591492,0.63196,-0.722728,0.318176,-148.539993,16.940001,65.029999,21.4
591504,0.627568,-0.81008,0.25864,-63.84,5.39,48.23,21.4
591515,0.60512,-1.003816,0.258152,12.53,-5.53,28.91,21.32
591528,0.61488,-1.040416,0.338672,67.900002,-13.51,9.17,21.38
591540,0.604632,-1.048712,0.458232,77.0,-15.4,-8.61,21.38
591551,0.589016,-1.05164,0.564616,69.580002,-17.57,-26.110001,21.39
591563,0.600728,-0.88816,0.60756,52.080002,-17.08,-39.34,21.36
591574,0.62952,-0.850584,0.572424,50.470001,-15.89,-51.450001,21.36
591586,0.645136,-0.73688,0.51972,73.639999,-20.09,-62.369999,21.36
591597,0.695888,-0.677344,0.49044,115.43,-24.92,-75.110001,21.36
591609,0.728584,-0.661728,0.517768,173.949997,-32.41,-88.760002,21.34
591621,0.734928,-0.648552,0.57096,256.339996,-43.540001,-99.75,21.42
591632,0.781776,-0.61976,0.579744,305.970001,-50.68,-109.410004,21.42
591644,0.77592,-0.596336,0.599752,365.399994,-60.34,-111.580002,21.38
591656,0.770064,-0.467992,0.569008,412.299988,-65.660004,-110.459999,21.37
591667,0.777872,-0.459208,0.520208,448.070007,-67.269997,-104.160004,21.37
591679,0.737368,-0.390888,0.460672,476.630005,-67.129997,-95.480003,21.39
591691,0.691008,-0.182024,0.404064,465.640015,-66.779999,-82.949997,21.39
591702,0.715408,0.076616,0.321104,425.600006,-59.43,-67.410004,21.33
591714,0.704184,0.516792,0.333792,286.089996,-45.220001,-47.599998,21.35
591725,0.791048,0.650504,0.267912,107.730003,-11.69,-25.83,21.35
591736,0.722728,0.487512,0.155672,-40.810001,17.57,-5.32,21.4
591748,0.686616,0.384544,0.056608,-145.110001,37.240002,12.32,21.35
591759,0.75152,0.31476,0.115656,-232.889999,56.349998,34.02,21.35
591770,0.738344,0.2928,0.31232,-304.920013,70.769997,56.98,21.34
591782,0.698328,0.132736,0.535824,-348.670013,78.120003,73.080002,21.34
591793,0.721752,-0.000488,0.694424,-390.880005,77.699997,86.870003,21.34
591805,0.677832,-0.12932,0.831064,-410.130005,67.620003,96.18,21.39
591815,0.743224,-0.192272,0.898896,-412.649994,60.48,98.209999,21.39
591827,0.748592,-0.2806,0.89548,-407.119995,49.630001,100.589996,21.38
591838,0.78812,-0.264008,0.81496,-397.880005,40.950001,101.5,21.38
591850,0.803248,-0.33428,0.733952,-369.179993,37.169998,100.239998,21.33
591862,0.789096,-0.418704,0.60268,-315.279999,34.93,91.980003,21.36
591873,0.720776,-0.460672,0.488488,-242.199997,29.610001,84.980003,21.36
591884,0.651968,-0.615856,0.366976,-153.929993,22.469999,73.57,21.36
591896,0.584136,-0.67588,0.286456,-81.550003,9.87,59.43,21.36
591907,0.585112,-0.795928,0.243024,-1.12,-1.05,42.349998,21.34
591919,0.577792,-0.92964,0.286944,60.34,-10.01,25.059999,21.34
591931,0.596336,-0.943304,0.394792,88.620003,-13.09,8.47,21.34
591942,0.585112,-0.95648,0.508008,87.220001,-13.79,-7.56,21.37
591954,0.59292,-0.84424,0.603168,66.779999,-13.37,-20.299999,21.38
591965,0.609024,-0.83204,0.626104,49.98,-7.0,-30.59,21.38
591977,0.600728,-0.788608,0.62464,59.779999,-9.8,-42.560001,21.34
591989,0.631472,-0.67832,0.627568,82.389999,-13.65,-55.299999,21.34
592001,0.660752,-0.793488,0.61,130.059998,-17.01,-71.610001,21.37
592012,0.669048,-0.898896,0.600728,212.520004,-28.98,-91.07,21.36
592024,0.715896,-0.803736,0.60024,287.48999,-43.540001,-101.779999,21.36
592036,0.777872,-0.712968,0.605608,343.630005,-49.91,-104.93,21.35
592047,0.755424,-0.668072,0.61976,385.070007,-54.599998,-108.290001,21.36
592059,0.69052,-0.660264,0.611464,423.01001,-60.689999,-107.519997,21.36
592070,0.643672,-0.499712,0.566568,434.769989,-66.290001,-96.739998,21.39
592082,0.674416,-0.237656,0.543144,422.519989,-66.360001,-84.0,21.39
592093,0.70028,0.038064,0.509472,382.549988,-60.689999,-74.129997,21.4
592104,0.74176,0.244976,0.470432,309.399994,-48.16,-61.18,21.33
592116,0.7564,0.509472,0.446032,197.889999,-32.619999,-45.57,21.33
592127,0.744688,0.472384,0.406992,80.220001,-14.35,-32.48,21.37
592139,0.73444,0.431392,0.330864,-14.98,5.95,-15.26,21.37
592150,0.734928,0.254248,0.22204,-110.809998,26.459999,1.68,21.34
592161,0.709552,0.19764,0.272792,-185.779999,39.689999,24.290001,21.33
592172,0.671976,0.240096,0.356728,-260.119995,49.139999,38.43,21.33
592183,0.717848,0.281576,0.467016,-335.579987,58.799999,57.959999,21.39
592195,0.68808,0.03416,0.65148,-373.869995,63.560001,73.150002,21.39
592206,0.70516,-0.069784,0.802272,-404.390015,60.900002,86.029999,21.34
592218,0.736392,-0.22936,0.895968,-414.75,59.290001,93.870003,21.35
592229,0.76128,-0.269376,0.9272,-415.309998,53.34,96.529999,21.35
592240,0.766648,-0.295728,0.882304,-409.98999,45.43,96.739998,21.37
592251,0.792024,-0.201544,0.799344,-396.059998,40.810001,99.470001,21.38
592263,0.78324,-0.335744,0.66368,-353.570007,36.470001,93.519997,21.38
592274,0.767624,-0.216672,0.582184,-308.839996,34.580002,91.419998,21.37
592285,0.699304,-0.416752,0.447008,-224.979996,30.24,82.669998,21.37
592296,0.592432,-0.549976,0.347944,-119.419998,17.780001,69.860001,21.35
592308,0.571448,-0.764208,0.289384,-17.360001,1.26,57.959999,21.37
592319,0.577792,-0.881816,0.321104,53.130001,-13.72,39.900002,21.37
592331,0.595848,-0.952576,0.40748,78.82,-18.620001,28.559999,21.36
592342,0.56852,-1.010648,0.557296,69.019997,-19.879999,15.05,21.36
592353,0.573888,-0.986736,0.652456,32.619999,-15.47,5.04,21.4
592365,0.562664,-1.066768,0.630984,10.22,-12.88,-8.96,21.36
592376,0.577304,-0.909632,0.579744,-13.09,-10.85,-18.76,21.36
592388,0.606096,-0.84424,0.452864,-17.92,-9.03,-30.030001,21.36
592399,0.626104,-0.739808,0.354288,10.22,-10.78,-42.91,21.36
592412,0.666608,-0.565592,0.31476,66.220001,-14.56,-57.400002,21.35
592423,0.622688,-0.636352,0.376248,125.300003,-21.49,-73.150002,21.37
592435,0.654896,-0.711992,0.53192,225.820007,-37.240002,-90.93,21.37
592447,0.692472,-0.711504,0.708576,338.450012,-52.290001,-108.5,21.33
592459,0.775432,-0.764208,0.794464,413.070007,-62.650002,-124.459999,21.32
592470,0.780312,-0.852048,0.78324,467.809998,-70.559998,-136.429993,21.32
592482,0.793,-0.749568,0.741272,497.769989,-73.5,-133.910004,21.37
592493,0.701256,-0.619272,0.621224,486.920013,-75.110001,-126.769997,21.37
592505,0.652944,-0.506056,0.413824,453.600006,-70.139999,-113.540001,21.38
592516,0.615368,-0.060024,0.36356,379.959991,-64.190002,-93.660004,21.39
592528,0.625128,0.464088,0.29036,220.289993,-42.630001,-70.699997,21.39
592539,0.674904,0.578768,0.189832,55.439999,-21.84,-41.23,21.4
592551,0.664656,0.578768,0.156648,-83.440002,1.47,-17.15,21.32
592562,0.729072,0.598288,0.25864,-202.300003,27.02,0.42,21.32
592573,0.686616,0.386984,0.389912,-278.73999,44.66,23.940001,21.39
592585,0.677344,0.203984,0.60024,-312.130005,51.310001,36.470001,21.39
592596,0.645136,0.058072,0.757864,-321.230011,50.68,50.189999,21.38
592607,0.66612,-0.0366,0.797392,-319.130005,48.650002,54.740002,21.34
592618,0.72468,-0.159576,0.714432,-299.040009,45.639999,56.419998,21.34
592629,0.759816,-0.167384,0.670024,-262.149994,32.689999,58.310001,21.39
592641,0.819352,0.015616,0.640744,-244.440002,23.940001,63.279999,21.39
592653,0.825696,-0.140544,0.60756,-224.070007,26.530001,66.639999,21.37
592664,0.77104,-0.403088,0.650016,-185.360001,25.059999,62.369999,21.39
592676,0.709064,-0.44164,0.676368,-142.029999,17.709999,57.400002,21.39
592687,0.695888,-0.47092,0.6466,-101.43,13.44,50.68,21.35
592698,0.712968,-0.499712,0.558272,-66.290001,10.5,42.139999,21.35
592710,0.748104,-0.26596,0.47336,-51.099998,10.01,41.299999,21.33
592721,0.73444,-0.404552,0.44164,-43.470001,13.51,35.349998,21.41
592733,0.693936,-0.62708,0.486048,-23.940001,15.54,28.91,21.41
592744,0.638304,-0.72224,0.549488,-1.89,12.6,25.200001,21.43
592756,0.628056,-0.77836,0.610488,11.69,10.43,19.110001,21.36
592767,0.61732,-0.73444,0.672952,15.47,8.4,15.68,21.36
592778,0.593896,-0.703208,0.721752,15.89,6.02,9.66,21.35
592790,0.603168,-0.670512,0.737856,14.0,4.76,3.85,21.35
592801,0.637816,-0.615368,0.609024,12.32,6.93,-0.35,21.36
592813,0.702232,-0.378688,0.472872,-15.33,7.77,2.87,21.39
592825,0.743712,-0.281088,0.432368,-18.9,17.5,7.98,21.39
592836,0.682224,-0.458232,0.486048,-22.26,25.200001,5.46,21.35
592847,0.62708,-0.616344,0.589016,-8.96,24.5,2.66,21.35
592859,0.591456,-0.679784,0.718824,17.15,18.200001,-1.19,21.32
592871,0.59292,-0.671,0.819352,45.639999,9.73,-6.23,21.32
592882,0.6222,-0.693936,0.847656,73.150002,4.62,-11.34,21.32
592894,0.64172,-0.65636,0.798368,94.989998,1.61,-16.799999,21.38
592905,0.670512,-0.4514,0.667584,103.529999,-0.07,-16.24,21.3
592917,0.743712,-0.295728,0.467016,100.519997,6.51,-14.56,21.3
592928,0.753472,-0.219112,0.382592,85.75,13.72,-9.24,21.36
592940,0.740784,-0.247904,0.3782,66.150002,24.08,-6.23,21.36
592951,0.69784,-0.34892,0.472384,47.389999,32.689999,-0.63,21.4
592963,0.663192,-0.452376,0.552904,35.419998,38.290001,3.71,21.34
592974,0.643184,-0.50508,0.623664,33.32,41.16,7.07,21.34
592985,0.648552,-0.511424,0.649528,35.139999,43.330002,10.92,21.37
592997,0.680272,-0.494832,0.592432,53.34,49.0,10.78,21.37
593008,0.659288,-0.384544,0.587552,67.129997,51.52,11.97,21.31
593019,0.665632,-0.325496,0.601704,70.0,57.049999,11.76,21.36
593030,0.626104,-0.347456,0.603656,71.400002,63.84,9.1,21.36
593041,0.601704,-0.362584,0.66612,71.190002,66.849998,5.32,21.37
593052,0.586576,-0.333792,0.742736,65.169998,69.089996,3.5,21.37
593064,0.571448,-0.346968,0.83936,52.849998,69.93,5.88,21.37
593076,0.539728,-0.357216,0.930128,40.599998,66.639999,3.22,21.34
593087,0.553392,-0.342088,0.948184,22.540001,65.169998,7.14,21.34
593098,0.54168,-0.299144,0.946232,7.28,63.91,8.26,21.37
593109,0.526552,-0.338672,0.890112,4.62,63.98,6.72,21.37
593120,0.51484,-0.393816,0.835456,13.02,64.959999,5.11,21.35
593132,0.448472,-0.40504,0.75396,38.849998,64.190002,-2.52,21.36
593144,0.378688,-0.354776,0.683688,54.880001,62.02,-4.97,21.36
593155,0.326472,-0.234728,0.671,62.16,60.759998,-7.14,21.34
593167,0.285968,-0.072712,0.725168,52.779999,58.380001,-2.1,21.34
593179,0.305488,-0.007808,0.838384,28.139999,56.07,3.57,21.34
593190,0.330864,-0.098088,0.975024,5.18,51.939999,7.0,21.34
593202,0.367952,-0.154208,1.074088,-10.15,47.18,9.45,21.34
593213,0.38064,-0.164944,1.14436,-23.940001,39.689999,10.92,21.39
593225,0.38308,-0.244488,1.147776,-29.4,33.25,8.33,21.34
593236,0.367464,-0.315248,1.128256,-20.09,24.219999,4.83,21.34
593248,0.366976,-0.337208,1.0858,-6.09,15.47,-0.07,21.38
593259,0.369416,-0.310368,1.029192,3.78,9.38,-4.41,21.3
593271,0.349896,-0.288408,0.986248,10.29,3.36,-8.19,21.3
593282,0.356728,-0.252296,0.950136,10.36,-1.47,-9.03,21.36
593294,0.36112,-0.236192,0.925248,5.32,-4.62,-8.05,21.36
593305,0.366488,-0.252784,0.909144,2.8,-8.4,-7.07,21.35
593316,0.384544,-0.253272,0.892552,0.35,-10.08,-6.44,21.39
593328,0.396744,-0.26108,0.883768,-0.77,-10.29,-5.46,21.39
593339,0.40016,-0.26108,0.882792,0.63,-10.5,-5.25,21.38
593351,0.398208,-0.262544,0.877424,2.66,-10.85,-5.25,21.38
593362,0.408944,-0.266448,0.88328,4.97,-11.76,-5.25,21.36
593374,0.413336,-0.242536,0.88572,5.53,-12.39,-4.48,21.38
593385,0.427488,-0.240096,0.878888,4.27,-11.76,-3.78,21.38
593397,0.4392,-0.25132,0.872056,4.34,-10.78,-3.22,21.37
593408,0.437736,-0.253272,0.867664,3.36,-10.01,-2.17,21.36
593419,0.4392,-0.272792,0.87108,2.94,-9.31,-1.82,21.36
593432,0.429928,-0.269864,0.860832,5.25,-8.26,-2.17,21.4
593443,0.42456,-0.257664,0.84424,6.93,-7.63,-1.54,21.4
593455,0.427976,-0.231312,0.844728,4.76,-6.58,-0.35,21.35
593466,0.425048,-0.22936,0.854,-0.07,-4.62,0.91,21.41
593478,0.428952,-0.271328,0.868152,-3.22,-2.52,1.75,21.41
593489,0.421144,-0.286456,0.891088,-3.99,-1.82,2.24,21.39
593501,0.415776,-0.282064,0.894992,-4.83,-1.68,2.66,21.39
593512,0.396744,-0.31232,0.883768,-3.64,-2.03,2.1,21.36
593524,0.406504,-0.324032,0.88572,-0.21,-2.66,1.54,21.37
593537,0.415288,-0.324032,0.881328,5.32,-1.75,0.49,21.37
593548,0.418216,-0.323544,0.87352,9.24,-1.12,0.14,21.34
593559,0.417728,-0.289384,0.88328,10.36,-0.98,0.28,21.33
593571,0.421632,-0.275232,0.896944,8.82,-0.77,0.84,21.33
593582,0.41724,-0.272792,0.908168,5.88,-0.77,0.63,21.41
593594,0.41968,-0.274256,0.929152,2.66,-1.47,0.49,21.41
593605,0.41968,-0.28548,0.940376,-0.35,-2.45,0.0,21.32
593616,0.422608,-0.288408,0.937448,-2.45,-3.08,-0.28,21.35
593628,0.425536,-0.296704,0.919392,-3.36,-2.8,-0.91,21.35
593639,0.416264,-0.311344,0.892552,-1.33,-2.59,-1.47,21.35
593651,0.405528,-0.294264,0.88816,0.21,-3.08,-1.19,21.38
593663,0.406992,-0.289872,0.894504,0.84,-3.71,-0.98,21.38
593675,0.409432,-0.296704,0.90768,2.31,-4.34,-1.33,21.4
593687,0.415288,-0.292312,0.91256,4.2,-5.11,-1.47,21.4
593698,0.426512,-0.282064,0.909144,6.09,-5.32,-1.54,21.36
593710,0.438224,-0.251808,0.89792,4.9,-4.55,-0.77,21.41
593721,0.43188,-0.255712,0.890112,2.45,-3.22,-0.21,21.41
593733,0.423584,-0.265472,0.876936,2.1,-2.31,0.0,21.36
593745,0.415288,-0.257664,0.870104,1.54,-2.03,0.56,21.38
593756,0.414312,-0.271816,0.881328,0.21,-2.87,0.84,21.38
593768,0.423584,-0.28792,0.891088,-0.21,-2.94,0.35,21.39
593780,0.426512,-0.304024,0.892064,0.7,-2.94,-0.49,21.39
593791,0.432368,-0.294264,0.894504,1.12,-2.52,-0.7,21.37
593802,0.425048,-0.282552,0.89792,0.77,-2.52,-0.91,21.41
593814,0.418704,-0.282064,0.89792,0.49,-2.66,-0.91,21.41
593826,0.413336,-0.283528,0.899384,1.54,-3.08,-1.47,21.34
593837,0.412848,-0.273768,0.903776,1.12,-4.2,-1.26,21.37
593849,0.42456,-0.271328,0.90524,1.12,-4.48,-1.61,21.37
593861,0.421632,-0.266448,0.89792,1.33,-4.27,-1.68,21.37
593872,0.416752,-0.269376,0.878888,2.52,-4.13,-1.68,21.37
593884,0.421144,-0.256688,0.876936,2.1,-4.34,-0.91,21.34
593896,0.42456,-0.259616,0.887184,0.35,-4.06,-0.35,21.35
593907,0.433832,-0.27084,0.899872,-1.26,-3.92,0.21,21.35
593918,0.432856,-0.279624,0.901824,-1.4,-3.92,0.07,21.37
593930,0.432856,-0.285968,0.896944,-0.35,-4.27,-0.28,21.37
593942,0.438224,-0.28792,0.895968,0.56,-4.2,-0.7,21.34
593954,0.43188,-0.282552,0.889624,1.68,-4.13,-1.05,21.4
593965,0.43188,-0.281088,0.879376,2.8,-3.85,-1.05,21.4
593976,0.428952,-0.267912,0.868152,2.66,-3.64,-0.77,21.37
593988,0.423584,-0.260592,0.872544,1.33,-3.64,-0.14,21.36
593999,0.426024,-0.260592,0.877424,0.28,-3.22,0.49,21.36
594011,0.429928,-0.264984,0.879864,-0.49,-2.45,0.91,21.39
594024,0.427,-0.271816,0.882304,0.07,-1.82,0.98,21.35
594035,0.424072,-0.27084,0.889624,-0.14,-2.31,1.33,21.35
594047,0.426024,-0.278648,0.900848,-0.56,-2.66,1.12,21.41
594058,0.428464,-0.296216,0.903776,0.14,-3.29,0.56,21.41
594069,0.428464,-0.301584,0.903288,1.68,-4.06,-0.35,21.39
594081,0.430904,-0.291336,0.89548,3.15,-4.76,-0.84,21.37
594093,0.43676,-0.272792,0.887184,2.66,-4.48,-0.49,21.37
594104,0.436272,-0.266936,0.88084,1.33,-3.64,-0.42,21.35
594115,0.427488,-0.26352,0.877424,0.14,-3.22,0.14,21.35
594127,0.427488,-0.268888,0.879376,-0.42,-3.36,0.56,21.37
594138,0.426024,-0.282064,0.88084,0.35,-3.57,0.35,21.39
594150,0.427976,-0.28548,0.88572,1.4,-4.34,0.35,21.39
594161,0.437736,-0.282064,0.890112,2.1,-4.2,0.28,21.37
594173,0.440664,-0.26352,0.894992,0.98,-3.22,0.77,21.37
594184,0.43188,-0.268888,0.896944,-0.07,-2.66,0.98,21.33
594196,0.42456,-0.279624,0.894504,0.14,-3.15,1.26,21.39
594207,0.421632,-0.291824,0.88816,1.33,-3.57,0.84,21.39
594218,0.41724,-0.297192,0.88328,3.22,-4.41,0.14,21.36
594230,0.421144,-0.285968,0.880352,4.34,-4.76,-0.42,21.37
594242,0.423096,-0.274744,0.8784,4.55,-4.69,-0.84,21.37
594253,0.430416,-0.249368,0.881816,2.59,-4.13,0.0,21.35
594265,0.430416,-0.257176,0.892552,-0.42,-3.78,0.35,21.35
594276,0.422608,-0.276208,0.903776,-1.96,-4.13,0.35,21.36
594288,0.421632,-0.289384,0.917928,-1.68,-5.32,0.14,21.33
594299,0.413824,-0.293776,0.927688,-0.49,-7.0,-0.35,21.33
594311,0.408944,-0.282064,0.930616,0.98,-8.75,-0.77,21.36
594323,0.409432,-0.260592,0.933544,1.96,-10.78,-1.19,21.39
594334,0.416264,-0.225944,0.92476,0.07,-11.9,-0.7,21.39
594346,0.413336,-0.223504,0.915488,-4.34,-12.46,0.84,21.36
594358,0.393816,-0.225944,0.881816,-8.89,-13.65,3.15,21.36
594369,0.375272,-0.24644,0.86376,-10.78,-15.12,6.02,21.37
594381,0.381128,-0.240584,0.854976,-12.81,-16.799999,7.35,21.37
594393,0.394304,-0.16836,0.83692,-22.4,-17.15,11.13,21.37
594404,0.4148,-0.145912,0.83692,-38.990002,-16.799999,14.77,21.38
594416,0.427488,-0.057584,0.797392,-69.160004,-15.96,22.26,21.35
594428,0.43188,-0.005368,0.6832,-108.220001,-11.9,31.85,21.35
594439,0.421632,-0.05856,0.613416,-134.259995,-5.39,39.34,21.38
594450,0.404064,-0.155184,0.620248,-153.229996,-3.85,43.75,21.38
594461,0.43676,-0.286944,0.704672,-161.979996,-6.79,46.970001,21.44
594473,0.469944,-0.442128,0.838384,-164.710007,-9.17,44.240002,21.38
594485,0.5002,-0.640744,0.935984,-152.669998,-12.95,38.5,21.38
594496,0.467016,-0.785192,1.037488,-113.540001,-21.84,28.629999,21.34
594508,0.450424,-0.647576,1.035536,-70.419998,-37.59,22.4,21.34
594520,0.511912,-0.425048,0.995032,-53.130001,-48.860001,23.379999,21.36
594531,0.497272,-0.266936,0.979904,-61.110001,-49.139999,23.030001,21.39
594543,0.455792,-0.371368,1.0492,-75.739998,-52.5,24.43,21.39
594554,0.504592,-0.488,0.964776,-84.910004,-51.029999,21.49,21.38
594566,0.466528,-0.682224,0.931104,-84.699997,-53.27,19.809999,21.37
594577,0.445544,-0.707112,0.919392,-76.650002,-59.5,15.12,21.37
594589,0.460184,-0.623664,0.854488,-73.919998,-61.740002,12.95,21.38
594600,0.479216,-0.650504,0.7076,-68.529999,-59.220001,6.93,21.38
594612,0.47824,-0.694912,0.591944,-58.73,-56.139999,0.14,21.36
594624,0.49532,-0.728096,0.443104,-45.009998,-51.799999,-6.93,21.37
594636,0.498248,-0.770064,0.369416,-27.23,-49.139999,-14.7,21.37
594648,0.512888,-0.698328,0.328424,-8.89,-45.57,-23.799999,21.38
594659,0.539728,-0.80764,0.311344,14.28,-40.110001,-31.01,21.36
594671,0.531432,-0.887672,0.347456,49.349998,-39.970001,-42.07,21.36
594682,0.522648,-0.8906,0.428464,87.709999,-44.52,-50.610001,21.42
594694,0.552904,-0.876448,0.50264,123.830002,-45.849998,-65.379997,21.42
594706,0.517768,-0.917928,0.646112,161.210007,-52.709999,-78.610001,21.38
594717,0.508496,-0.928176,0.671488,207.410004,-56.630001,-96.669998,21.37
594729,0.558272,-0.754936,0.71004,244.229996,-61.810001,-98.349998,21.37
594740,0.59048,-0.773968,0.680272,288.820007,-63.0,-105.769997,21.36
594752,0.582672,-0.708576,0.625616,329.48999,-68.599998,-105.209999,21.36
594764,0.600728,-0.591944,0.584624,364.769989,-72.099998,-99.959999,21.36
594776,0.606096,-0.467504,0.550952,387.23999,-75.459999,-93.660004,21.38
594787,0.632448,-0.226432,0.594384,378.140015,-74.129997,-83.510002,21.38
594799,0.642696,-0.066856,0.632448,352.869995,-68.529999,-77.07,21.35
594811,0.6588,0.092232,0.61732,317.660004,-60.759998,-67.900002,21.37
594822,0.702232,0.201056,0.589504,273.700012,-50.959999,-61.389999,21.37
594834,0.69296,0.24644,0.530456,224.559998,-41.650002,-51.869999,21.34
594845,0.693448,0.34404,0.432368,155.820007,-27.51,-41.650002,21.37
594857,0.718824,0.264008,0.333304,90.019997,-10.5,-29.540001,21.37
594868,0.670512,0.446032,0.327448,5.74,2.52,-11.2,21.35
594880,0.673928,0.564128,0.4026,-93.660004,20.65,7.91,21.35
594891,0.645136,0.518744,0.51484,-161.770004,37.73,24.57,21.37
594902,0.632448,0.504592,0.613416,-235.759995,49.84,42.139999,21.38
594913,0.647088,0.369904,0.654896,-289.519989,61.740002,56.630001,21.38
594924,0.632448,0.140056,0.684176,-326.130005,64.470001,69.860001,21.35
594936,0.68076,0.11224,0.718824,-358.190002,65.589996,83.440002,21.35
594947,0.681736,-0.024888,0.761768,-393.470001,63.77,91.629997,21.39
594959,0.636352,-0.155672,0.847168,-384.929993,56.349998,98.0,21.36
594971,0.65148,-0.22204,0.882304,-385.209991,47.040001,99.540001,21.36
594982,0.64904,-0.297192,0.872056,-381.5,40.669998,99.610001,21.39
594994,0.628056,-0.373808,0.792512,-368.549988,35.07,96.18,21.39
595005,0.640256,-0.573888,0.674416,-331.380005,32.27,88.199997,21.37
595016,0.62708,-0.598288,0.561688,-281.890015,27.370001,79.800003,21.34
595027,0.580232,-0.695888,0.489464,-211.960007,20.860001,71.959999,21.34
595039,0.538264,-0.648552,0.440664,-139.649994,11.97,60.619999,21.41
595050,0.508984,-0.802272,0.39284,-65.309998,4.48,45.150002,21.33
595062,0.486536,-0.933056,0.382592,3.57,-6.3,27.860001,21.33
595074,0.530456,-0.96624,0.395768,48.860001,-9.73,12.53,21.38
595085,0.499224,-1.00772,0.453352,71.889999,-12.32,-3.85,21.38
595097,0.506056,-0.987712,0.546072,80.639999,-14.07,-20.02,21.37
595109,0.508984,-0.915976,0.610976,79.379997,-13.16,-34.790001,21.41
595120,0.53192,-0.935984,0.586088,95.690002,-11.97,-48.09,21.41
595132,0.547536,-0.830088,0.581696,127.120003,-17.15,-62.790001,21.36
595143,0.570472,-0.69784,0.626104,150.5,-19.110001,-75.040001,21.36
595154,0.592432,-0.845216,0.64904,203.070007,-23.1,-90.580002,21.37
595166,0.604632,-0.84424,0.681736,266.769989,-34.16,-105.769997,21.37
595178,0.605608,-0.696864,0.71736,318.640015,-44.52,-111.650002,21.37
595190,0.640256,-0.609512,0.733464,360.709991,-52.709999,-112.07,21.38
595201,0.620736,-0.53924,0.719312,400.609985,-59.360001,-112.559998,21.32
595213,0.59048,-0.413824,0.672464,431.200012,-65.519997,-106.470001,21.32
595225,0.598776,-0.14884,0.650504,420.279999,-65.730003,-93.800003,21.41
595237,0.645136,0.083936,0.60512,368.130005,-59.009998,-81.199997,21.41
595248,0.653432,0.299632,0.584624,298.269989,-47.040001,-68.389999,21.36
595260,0.633424,0.320616,0.54412,227.360001,-35.98,-57.259998,21.39
595272,0.652456,0.515328,0.503128,127.610001,-23.799999,-41.02,21.39
595283,0.679784,0.612928,0.418704,19.389999,-4.2,-22.959999,21.43
595294,0.634888,0.357704,0.347456,-37.799999,13.37,-9.24,21.34
595306,0.64416,0.427,0.382104,-100.519997,27.719999,6.72,21.34
595318,0.631472,0.46604,0.493368,-171.429993,38.150002,23.940001,21.4
595330,0.640744,0.499712,0.584136,-218.679993,48.720001,37.869999,21.4
595341,0.630496,0.3294,0.647088,-271.040009,54.740002,53.48,21.37
595352,0.61488,0.17324,0.735416,-313.529999,55.439999,64.400002,21.36
595364,0.612928,0.006344,0.803736,-344.470001,54.599998,74.480003,21.36
595375,0.60512,-0.167384,0.848144,-356.649994,50.470001,81.269997,21.38
595387,0.599752,-0.3416,0.884744,-351.329987,41.439999,83.230003,21.39
595398,0.63196,-0.450424,0.859856,-335.790009,31.639999,84.0,21.39
595409,0.674904,-0.3782,0.863272,-329.209991,23.870001,82.599998,21.38
595421,0.687592,-0.428464,0.789096,-319.829987,23.59,80.919998,21.38
595433,0.647088,-0.564616,0.752984,-290.290009,18.48,73.080002,21.34
595444,0.64172,-0.493856,0.723704,-259.140015,13.79,65.660004,21.39
595456,0.628544,-0.604144,0.608048,-223.300003,14.91,55.720001,21.39
595467,0.55632,-0.745176,0.554856,-151.410004,8.12,44.029999,21.4
595478,0.537288,-0.708088,0.504592,-74.900002,-4.27,31.99,21.4
595489,0.56852,-0.746152,0.428952,-7.7,-11.13,22.33,21.37
595501,0.571936,-0.821304,0.409432,46.34,-17.08,7.91,21.37
595512,0.564616,-0.884744,0.44408,83.510002,-19.459999,-5.04,21.37
595524,0.55876,-0.887184,0.50752,104.720001,-22.049999,-18.9,21.39
595535,0.567544,-0.830576,0.586088,117.389999,-23.52,-31.219999,21.39
595546,0.571448,-0.709064,0.661728,124.110001,-22.889999,-40.669998,21.39
595558,0.5734,-0.728584,0.686616,149.589996,-24.08,-51.799999,21.36
595569,0.570472,-0.611464,0.7564,186.690002,-30.379999,-64.260002,21.36
595581,0.59536,-0.59536,0.8174,229.529999,-34.93,-74.690002,21.39
595592,0.622688,-0.68808,0.798368,290.359985,-42.0,-86.660004,21.41
595604,0.655384,-0.630496,0.761768,346.570007,-50.82,-93.169998,21.41
595615,0.682224,-0.513376,0.700768,390.25,-58.169998,-94.010002,21.37
595627,0.671,-0.472872,0.658312,426.230011,-62.09,-93.099998,21.37
595639,0.628544,-0.436272,0.620736,451.220001,-68.25,-88.129997,21.34
595650,0.600728,-0.206912,0.66612,450.309998,-71.120003,-77.349998,21.39
595662,0.602192,-0.001952,0.683688,424.970001,-66.779999,-68.529999,21.39
595673,0.618296,0.247904,0.6588,364.769989,-58.939999,-55.23,21.36
595685,0.660752,0.526552,0.579744,236.529999,-41.580002,-42.91,21.33
595696,0.732488,0.682712,0.465552,96.739998,-19.110001,-28.139999,21.33
595708,0.660264,0.455792,0.372832,17.290001,-1.82,-12.46,21.38
595719,0.669536,0.36112,0.340624,-48.09,15.61,-1.89,21.38
595731,0.660752,0.327936,0.351848,-105.910004,28.0,9.31,21.36
595743,0.648552,0.257664,0.426512,-102.339996,33.529999,20.23,21.37
595754,0.619272,0.30012,0.58316,-106.400002,33.880001,27.790001,21.37
595765,0.62464,0.427976,0.70516,-142.729996,33.880001,37.029999,21.37
595777,0.663192,0.427976,0.762256,-188.720001,40.040001,46.759998,21.37
595788,0.640256,0.238144,0.787632,-224.350006,43.68,53.549999,21.35
595799,0.651968,0.278648,0.62708,-278.73999,43.889999,61.389999,21.33
595810,0.6832,0.001952,0.694424,-314.299988,49.07,70.489998,21.33
595822,0.670512,-0.265472,0.689056,-321.019989,45.43,73.080002,21.39
595833,0.648552,-0.411872,0.722728,-324.940002,18.76,75.879997,21.39
595844,0.638304,-0.406992,0.893528,-330.190002,23.450001,79.660004,21.38
595855,0.671488,-0.379176,0.985272,-343.839996,17.01,82.599998,21.36
595867,0.69052,-0.429928,0.99308,-354.690002,15.19,80.919998,21.36
595878,0.674904,-0.542168,0.906216,-348.25,13.86,72.870003,21.39
595890,0.669048,-0.528992,0.772016,-325.98999,10.43,66.360001,21.39
595901,0.669048,-0.613416,0.64172,-271.880005,6.58,54.110001,21.39
595913,0.652456,-0.5368,0.525088,-229.600006,1.68,43.68,21.35
595924,0.626104,-0.593408,0.443592,-155.470001,-1.68,31.57,21.35
595936,0.565104,-0.715408,0.385032,-67.269997,-12.95,18.83,21.38
595947,0.565592,-0.831552,0.314272,24.15,-23.450001,6.16,21.32
595959,0.604632,-0.855464,0.30012,108.080002,-30.59,-10.99,21.32
595971,0.594872,-0.77104,0.385032,155.820007,-33.529999,-24.57,21.37
595982,0.629032,-0.874008,0.455792,202.580002,-34.09,-40.459999,21.37
595994,0.603168,-0.66368,0.586576,234.429993,-38.5,-52.849998,21.38
596005,0.643672,-0.667584,0.689544,257.040009,-33.740002,-64.120003,21.37
596017,0.592432,-0.679784,0.801784,289.519989,-38.290001,-78.120003,21.37
596029,0.606096,-0.592432,0.827648,325.5,-44.029999,-86.800003,21.39
596040,0.634888,-0.676368,0.797392,383.600006,-52.080002,-95.690002,21.38
596052,0.670024,-0.438712,0.716384,422.450012,-62.09,-95.129997,21.38
596064,0.725168,-0.293776,0.650992,442.190002,-64.889999,-92.400002,21.4
596075,0.73688,-0.283528,0.620736,445.899994,-64.190002,-89.459999,21.4
596087,0.689056,-0.210816,0.625616,436.869995,-63.630001,-85.260002,21.37
596098,0.617808,-0.167872,0.62464,420.0,-62.650002,-79.099998,21.36
596110,0.609512,-0.099064,0.594872,397.880005,-56.419998,-69.720001,21.36
596121,0.59292,0.097112,0.537776,362.529999,-53.27,-58.450001,21.38
596133,0.616832,0.478728,0.430416,270.339996,-60.200001,-40.880001,21.33
596144,0.828136,0.654408,0.32696,150.710007,-27.860001,-36.259998,21.33
596156,0.70516,0.604632,0.251808,43.610001,-9.59,-23.59,21.34
596167,0.679296,0.721264,0.242048,-84.559998,7.0,-9.31,21.34
596179,0.726632,0.599264,0.257176,-189.070007,33.110001,6.09,21.39
596190,0.616344,0.432368,0.415776,-243.25,46.34,23.940001,21.3
596202,0.618296,0.513864,0.545096,-304.01001,52.709999,39.41,21.3
596213,0.647576,0.458232,0.640744,-354.899994,57.330002,53.619999,21.35
596225,0.65148,0.327936,0.725656,-393.959991,58.52,62.439999,21.35
596236,0.662704,0.165432,0.741272,-425.320007,58.380001,71.540001,21.38
596248,0.678808,-0.008784,0.720288,-441.070007,55.860001,77.139999,21.37
596259,0.68564,-0.30012,0.715408,-437.01001,48.790001,79.309998,21.37
596270,0.684664,-0.383568,0.72468,-424.829987,37.59,82.459999,21.37
596282,0.67832,-0.421144,0.815936,-407.890015,24.780001,84.910004,21.35
596294,0.717848,-0.344528,0.895968,-390.529999,16.1,85.68,21.35
596305,0.757376,-0.234728,0.859368,-380.660004,16.799999,86.029999,21.39
596316,0.764696,-0.438712,0.793976,-354.76001,23.379999,81.970001,21.39
596328,0.698328,-0.39528,0.694424,-312.269989,22.049999,75.949997,21.38
596340,0.657824,-0.457256,0.552416,-237.789993,22.68,72.169998,21.35
596351,0.586576,-0.5734,0.410408,-170.169998,15.54,59.290001,21.35
596363,0.545096,-0.651968,0.301096,-77.769997,2.45,46.900002,21.36
596374,0.571448,-0.771528,0.237168,1.54,-8.54,33.25,21.36
596386,0.58072,-0.887672,0.300608,53.34,-13.51,22.120001,21.37
596397,0.56852,-0.969168,0.441152,71.959999,-15.05,9.38,21.35
596409,0.553392,-0.967216,0.56852,54.740002,-13.51,-0.77,21.35
596420,0.542168,-0.973072,0.61976,24.219999,-10.29,-11.2,21.4
596432,0.560712,-0.919392,0.576816,-2.8,-5.6,-20.02,21.37
596444,0.57828,-0.856928,0.480192,-2.24,-2.59,-27.719999,21.37
596455,0.595848,-0.606584,0.425048,19.950001,-1.47,-37.240002,21.4
596467,0.593896,-0.589992,0.40748,78.120003,-1.12,-52.009998,21.4
596478,0.55388,-0.523624,0.501176,161.979996,-12.39,-64.82,21.36
596490,0.613904,-0.515816,0.60756,259.559998,-21.42,-81.620003,21.36
596502,0.688568,-0.860832,0.704672,399.279999,-38.150002,-105.489998,21.36
596513,0.744688,-0.831064,0.8784,510.579987,-59.5,-127.82,21.36
596525,0.794464,-0.808616,0.959408,567.48999,-66.57,-137.619995,21.35
596536,0.761768,-0.82472,1.003328,590.869995,-72.099998,-138.320007,21.35
596548,0.624152,-0.765184,0.90768,572.669983,-80.290001,-137.690002,21.37
596560,0.546072,-0.508496,0.804712,511.0,-83.440002,-128.240005,21.37
596571,0.516792,-0.332328,0.425048,441.140015,-74.830002,-114.519997,21.38
596583,0.534848,0.070272,0.073688,345.309998,-59.150002,-86.870003,21.37
596594,0.567056,0.67832,0.081008,208.740005,-46.970001,-59.360001,21.37
596606,0.684664,1.095072,0.110776,73.639999,-26.809999,-31.219999,21.39
596617,0.817888,0.955016,0.16592,-80.220001,13.51,-15.68,21.39
596628,0.731512,0.55876,0.351848,-174.649994,34.650002,-3.85,21.39
596640,0.593408,0.427,0.550952,-213.990005,40.599998,4.27,21.34
596651,0.655384,0.361608,0.659288,-219.940002,44.450001,8.05,21.34
596662,0.656848,0.351848,0.738832,-205.169998,42.91,12.74,21.37
596673,0.669536,0.282064,0.737368,-163.800003,38.009998,16.17,21.37
596685,0.71492,0.128344,0.689544,-130.199997,31.780001,14.35,21.37
596696,0.704184,0.044896,0.680272,-74.410004,21.0,12.88,21.39
596708,0.690032,0.000976,0.718824,-27.790001,9.38,10.92,21.39
596719,0.732,0.006344,0.772016,2.94,5.74,10.85,21.4
596730,0.752496,0.027328,0.800808,11.83,8.19,10.85,21.39
596741,0.6832,0.066856,0.805688,-0.98,7.7,10.92,21.39
596753,0.665632,-0.009272,0.784216,-12.18,6.72,10.01,21.36
596764,0.669048,-0.01464,0.759816,-28.98,3.64,9.73,21.36
596775,0.68076,-0.032208,0.708576,-46.48,9.03,13.02,21.37
596787,0.69784,-0.016104,0.650992,-60.130001,12.67,15.26,21.4
596799,0.704184,0.060024,0.642696,-79.309998,14.56,18.969999,21.4
596810,0.683688,0.019032,0.682712,-101.849998,17.5,21.209999,21.37
596821,0.681248,-0.024888,0.73688,-124.529999,21.700001,23.52,21.37
596833,0.630984,-0.127856,0.813984,-142.240005,24.639999,26.389999,21.37
596845,0.61976,-0.214232,0.879864,-156.380005,24.639999,27.02,21.32
596856,0.611952,-0.228872,0.915,-164.990005,22.610001,28.77,21.32
596868,0.622688,-0.280112,0.904264,-161.490005,19.459999,27.790001,21.42
596880,0.670024,-0.342576,0.801296,-138.110001,16.940001,23.24,21.4
596891,0.71004,-0.34648,0.711504,-103.529999,14.56,20.370001,21.4
596903,0.719312,-0.204472,0.65392,-79.029999,11.9,20.58,21.36
596914,0.742248,-0.042944,0.63684,-78.260002,12.67,23.870001,21.36
596925,0.731024,-0.033184,0.670024,-86.309998,17.290001,24.57,21.35
596937,0.686616,-0.155672,0.723704,-91.839996,20.719999,22.75,21.34
596948,0.658312,-0.264496,0.791048,-87.709999,18.9,21.42,21.34
596960,0.68076,-0.372344,0.765184,-69.089996,19.040001,19.32,21.36
596972,0.684176,-0.399184,0.733952,-42.84,16.870001,17.360001,21.36
596983,0.683688,-0.363072,0.660752,-11.76,16.450001,11.9,21.37
596995,0.670512,-0.26352,0.589504,11.06,17.01,10.78,21.32
597006,0.681736,-0.174216,0.571448,10.57,18.27,11.41,21.32
597017,0.684176,-0.128832,0.600728,-1.82,24.780001,12.67,21.39
597029,0.650992,-0.161528,0.682224,-25.41,29.4,17.43,21.37
597041,0.654408,-0.30988,0.703696,-40.950001,33.389999,21.209999,21.37
597052,0.642696,-0.458232,0.616344,-41.23,37.869999,19.18,21.38
597064,0.584136,-0.55876,0.5368,-27.860001,42.279999,16.1,21.38
597076,0.571448,-0.661728,0.422608,-2.87,47.459999,17.99,21.37
597088,0.508496,-0.587064,0.31232,27.440001,51.450001,8.19,21.37
597099,0.504592,-0.38552,0.401136,44.380001,56.279999,6.58,21.37
597110,0.498736,-0.11712,0.526552,37.52,61.599998,12.32,21.4
597121,0.535336,-0.047336,0.735416,7.42,66.220001,19.459999,21.4
597133,0.526064,-0.145912,0.91012,-16.59,66.5,21.700001,21.35
597144,0.52216,-0.284016,1.012112,-34.720001,64.470001,22.82,21.32
597155,0.50996,-0.380152,1.05408,-41.650002,59.919998,22.049999,21.32
597167,0.50264,-0.441152,1.053592,-38.57,53.830002,20.299999,21.35
597178,0.488976,-0.475312,0.955016,-28.84,50.189999,15.96,21.35
597189,0.43188,-0.572424,0.8662,-7.98,46.900002,6.02,21.35
597201,0.371368,-0.543144,0.808128,14.35,41.02,-0.98,21.4
597212,0.366488,-0.453352,0.819352,22.469999,35.77,-4.06,21.4
597223,0.383568,-0.360632,0.87108,21.98,31.57,-5.11,21.35
597235,0.411384,-0.347456,0.926224,10.99,29.82,-4.13,21.35
597247,0.435784,-0.360632,0.966728,-0.42,29.959999,-1.89,21.35
597259,0.432368,-0.335256,0.992104,-9.52,27.790001,-2.17,21.37
597270,0.430416,-0.349896,0.99064,-17.639999,24.709999,-3.08,21.37
597282,0.42212,-0.409432,0.946232,-15.68,23.030001,-5.53,21.39
597294,0.413824,-0.37332,0.934032,-9.1,20.51,-6.23,21.38
597305,0.401136,-0.3294,0.93696,-4.06,17.57,-7.63,21.38
597317,0.40748,-0.321592,0.952088,-3.08,14.56,-8.33,21.37
597329,0.413336,-0.307928,0.959408,-4.62,11.97,-6.65,21.37
597340,0.418704,-0.331352,0.957456,-7.77,9.45,-5.53,21.37
597352,0.430416,-0.364536,0.9516,-8.96,7.98,-3.64,21.39
597364,0.436272,-0.367952,0.941352,-12.95,7.35,-2.59,21.39
597376,0.406992,-0.37332,0.902312,-15.05,7.14,-1.33,21.37
597387,0.381616,-0.401136,0.8662,-5.53,5.04,-2.59,21.34
597399,0.370392,-0.366976,0.848632,1.26,2.87,-2.87,21.34
597411,0.383568,-0.357216,0.853512,8.05,2.66,-3.15,21.39
597423,0.389912,-0.33184,0.870592,10.99,2.03,-3.01,21.34
597434,0.398208,-0.310368,0.902312,11.06,0.7,-1.89,21.34
597446,0.420168,-0.286944,0.92232,6.58,-0.14,0.21,21.38
597457,0.416752,-0.288896,0.926224,1.61,-0.63,2.31,21.38
597469,0.414312,-0.34404,0.926712,-2.73,-1.68,2.73,21.34
597482,0.395768,-0.39284,0.908656,-0.28,-2.94,1.68,21.39
597493,0.39528,-0.392352,0.881328,3.22,-4.9,0.63,21.39
597505,0.398696,-0.369416,0.865712,4.13,-6.02,0.21,21.39
597516,0.412848,-0.371856,0.859368,4.48,-5.95,0.07,21.36
597528,0.415288,-0.38796,0.867176,6.44,-6.44,-1.05,21.36
597540,0.418216,-0.38308,0.867664,7.56,-6.65,-1.19,21.41
597551,0.41968,-0.35868,0.870592,6.02,-7.28,-1.12,21.41
597563,0.421144,-0.3416,0.869616,2.1,-6.79,-0.56,21.37
597574,0.420656,-0.340624,0.859368,-1.47,-5.88,0.14,21.37
597586,0.41236,-0.35624,0.848144,-1.4,-5.46,0.07,21.37
597597,0.414312,-0.362096,0.839848,-0.7,-5.04,0.42,21.4
597609,0.41724,-0.37332,0.839848,-0.77,-4.62,0.56,21.35
597621,0.41724,-0.37576,0.83692,-0.63,-4.13,0.98,21.35
597632,0.423096,-0.381616,0.846192,0.49,-3.78,0.91,21.38
597644,0.424072,-0.379176,0.855952,0.7,-3.92,1.05,21.38
597656,0.425536,-0.364048,0.8662,-2.31,-3.57,1.47,21.33
597667,0.424072,-0.37088,0.860344,-3.78,-2.45,1.68,21.41
597679,0.420656,-0.38308,0.849608,-3.36,-2.1,1.26,21.41
597691,0.41236,-0.383568,0.84668,-1.19,-2.1,0.49,21.35
597702,0.408944,-0.396256,0.84668,-0.21,-2.24,0.0,21.36
597714,0.40992,-0.384544,0.853512,1.33,-2.45,-0.21,21.36
597725,0.413336,-0.369904,0.859856,0.7,-2.17,0.21,21.36
597737,0.414312,-0.369904,0.870592,0.35,-2.17,0.42,21.36
597748,0.41236,-0.374784,0.874496,-0.21,-2.38,0.35,21.38
597760,0.410408,-0.372344,0.875472,-0.56,-2.38,0.07,21.35
597773,0.410896,-0.385032,0.872544,0.7,-3.01,-0.21,21.35
597784,0.414312,-0.382592,0.868152,1.89,-3.43,-0.42,21.38
597796,0.420656,-0.372832,0.861808,1.12,-3.29,-0.49,21.39
597807,0.413336,-0.3904,0.860344,1.47,-3.22,-0.77,21.39
597819,0.413336,-0.3782,0.854,2.52,-3.43,-1.12,21.37
597831,0.410408,-0.369904,0.845216,1.75,-3.08,-1.12,21.34
597843,0.409432,-0.381128,0.847656,2.1,-3.43,-1.33,21.34
597854,0.419192,-0.377224,0.857904,2.31,-3.22,-1.68,21.35
597866,0.41968,-0.378688,0.860832,3.01,-3.29,-1.82,21.35
597877,0.422608,-0.373808,0.862784,3.71,-3.43,-1.89,21.4
597889,0.418704,-0.367464,0.85644,3.64,-3.29,-1.82,21.34
597901,0.41968,-0.37576,0.866688,2.59,-3.5,-1.89,21.34
597912,0.41968,-0.366976,0.86132,1.68,-3.43,-1.75,21.35
597924,0.419192,-0.36844,0.856928,0.63,-3.15,-1.89,21.35
597935,0.4148,-0.350872,0.850584,-0.63,-3.08,-1.82,21.36
597947,0.413336,-0.36112,0.841312,-0.84,-2.52,-1.75,21.34
597958,0.412848,-0.370392,0.839848,-0.28,-2.45,-1.89,21.34
597970,0.418704,-0.377712,0.837896,0.07,-2.24,-2.24,21.37
597982,0.41724,-0.383568,0.839848,0.42,-1.82,-2.66,21.33
597993,0.41968,-0.391864,0.843752,1.96,-1.68,-3.29,21.33
598005,0.418216,-0.382592,0.845216,3.85,-1.47,-3.99,21.39
598016,0.416264,-0.35136,0.844728,3.08,-1.26,-3.36,21.39
598028,0.418704,-0.329888,0.840336,0.98,-0.84,-2.31,21.37
598039,0.425048,-0.327448,0.848144,-1.68,-0.14,-0.91,21.41
598052,0.42456,-0.349408,0.856928,-3.43,0.7,-0.14,21.41
598063,0.420168,-0.365024,0.862784,-3.22,0.77,0.07,21.4
598074,0.420656,-0.369904,0.876448,-2.1,0.14,0.14,21.36
598086,0.41968,-0.389424,0.879864,0.42,-0.49,-0.35,21.36
598097,0.423584,-0.386984,0.8784,2.73,-1.26,-0.77,21.38
598109,0.420168,-0.37576,0.877424,4.13,-1.82,-1.12,21.38
598121,0.420656,-0.354288,0.869128,3.29,-1.89,-0.77,21.36
598133,0.420656,-0.3538,0.861808,2.31,-1.89,-0.28,21.39
598144,0.413824,-0.34404,0.854488,1.26,-1.89,-0.07,21.39
598156,0.414312,-0.34648,0.85644,0.21,-2.24,0.35,21.37
598167,0.415288,-0.360144,0.862784,-0.28,-2.38,0.14,21.42
598179,0.415288,-0.369904,0.861808,-0.21,-2.73,-0.14,21.42
598191,0.415288,-0.372344,0.862784,0.35,-3.22,-0.35,21.4
598202,0.418704,-0.377224,0.861808,0.98,-3.36,-0.56,21.4
598214,0.417728,-0.384056,0.86376,1.96,-3.64,-1.12,21.39
598225,0.419192,-0.384056,0.86864,3.78,-4.13,-1.54,21.36
598237,0.425536,-0.367464,0.870104,3.71,-4.55,-1.4,21.36
598249,0.427488,-0.352824,0.865224,2.52,-4.55,-1.12,21.38
598260,0.429928,-0.3538,0.859368,1.54,-4.34,-0.7,21.38
598272,0.424072,-0.364536,0.857904,0.42,-3.92,-0.63,21.38
598283,0.424072,-0.369416,0.865224,0.56,-4.06,-0.7,21.39
598295,0.420656,-0.378688,0.862784,0.63,-3.78,-0.91,21.39
598306,0.4148,-0.38796,0.864248,2.73,-4.06,-1.61,21.39
598317,0.413824,-0.375272,0.870592,3.85,-4.48,-1.54,21.32
598329,0.41236,-0.359168,0.874008,3.36,-4.9,-1.26,21.32
598341,0.41236,-0.349896,0.876936,2.52,-5.67,-0.7,21.39
598352,0.41724,-0.34404,0.884744,0.98,-6.23,-0.14,21.39
598364,0.417728,-0.349408,0.903288,-0.49,-6.86,0.21,21.34
598375,0.412848,-0.361608,0.920368,-0.21,-8.26,-0.35,21.37
598387,0.408456,-0.377224,0.937448,0.49,-10.5,-1.05,21.37
598399,0.40016,-0.388448,0.941352,2.1,-13.02,-2.31,21.37
598410,0.38796,-0.398208,0.935008,3.29,-15.82,-2.73,21.36
598422,0.378688,-0.398208,0.929152,5.81,-19.879999,-3.29,21.36
598434,0.386496,-0.375272,0.918904,6.37,-22.959999,-3.64,21.36
598445,0.387472,-0.39528,0.912072,7.21,-25.129999,-4.13,21.36
598457,0.376248,-0.3782,0.927688,12.6,-28.84,-6.16,21.37
598468,0.377224,-0.330864,0.933544,16.52,-34.23,-6.93,21.38
598480,0.394792,-0.292312,0.889624,17.709999,-36.959999,-6.37,21.38
598491,0.377224,-0.245952,0.843752,18.969999,-39.689999,-4.34,21.39
598503,0.398208,-0.15372,0.80032,12.11,-43.75,-0.42,21.35
598515,0.469944,-0.086864,0.793976,-5.18,-42.560001,5.81,21.35
598526,0.50508,-0.090768,0.812032,-24.43,-41.509998,11.55,21.42
598538,0.54656,-0.15616,0.794952,-44.240002,-41.02,15.75,21.42
598549,0.575352,-0.152256,0.759816,-77.419998,-38.290001,21.0,21.37
598561,0.594872,-0.067344,0.719312,-122.849998,-35.0,33.599998,21.34
598572,0.638304,-0.319152,0.706624,-149.940002,-26.530001,36.119999,21.34
598584,0.621224,-0.6588,0.777872,-140.490005,-26.389999,29.959999,21.38
598596,0.569008,-0.811056,0.892552,-105.629997,-38.360001,24.08,21.38
598607,0.569496,-0.700768,1.0126,-72.519997,-52.919998,16.940001,21.41
598619,0.591944,-0.521184,1.130208,-61.599998,-61.32,17.219999,21.36
598631,0.58072,-0.415776,1.067256,-66.639999,-62.860001,17.57,21.36
598643,0.570472,-0.391864,0.899384,-73.639999,-59.990002,17.92,21.42
598654,0.557784,-0.505568,0.847168,-77.0,-56.700001,17.57,21.39
598666,0.542656,-0.555832,0.801296,-66.639999,-57.330002,13.37,21.39
598677,0.53192,-0.605608,0.740296,-55.580002,-58.73,10.92,21.41
598689,0.541192,-0.641232,0.692472,-45.080002,-57.68,9.66,21.41
598700,0.520696,-0.6344,0.667096,-37.869999,-57.540001,7.28,21.37
598712,0.528992,-0.674416,0.545584,-31.85,-54.110001,3.15,21.38
598723,0.520696,-0.684176,0.48068,-29.68,-51.029999,-0.63,21.38
598735,0.537288,-0.609512,0.404552,-27.719999,-45.709999,-3.43,21.34
598746,0.550464,-0.654896,0.333304,-18.34,-40.740002,-8.19,21.34
598758,0.549976,-0.610488,0.309392,-0.91,-37.310001,-14.14,21.34
598770,0.575352,-0.593408,0.274256,24.08,-32.48,-19.67,21.38
598781,0.58072,-0.658312,0.276696,70.139999,-30.030001,-29.4,21.38
598793,0.570472,-0.583648,0.35624,124.18,-35.139999,-39.830002,21.38
598804,0.631472,-0.450912,0.459208,168.910004,-34.720001,-45.360001,21.37
598815,0.62952,-0.565104,0.57828,216.369995,-36.049999,-59.5,21.37
598827,0.615856,-0.674904,0.755424,266.839996,-42.560001,-74.550003,21.34
598839,0.579744,-0.894992,0.818376,327.529999,-48.439999,-93.870003,21.38
598850,0.653432,-0.808128,0.868152,375.410004,-57.75,-95.410004,21.38
598862,0.630496,-0.984296,0.664168,431.200012,-59.290001,-104.650002,21.37
598873,0.550464,-0.723704,0.571448,455.559998,-71.82,-100.730003,21.37
598885,0.610488,-0.213256,0.610976,425.670013,-75.25,-89.389999,21.37
598897,0.664168,0.018056,0.634888,364.700012,-62.23,-78.82,21.39
598908,0.603168,0.111752,0.624152,299.880005,-51.869999,-68.739998,21.39
598920,0.594872,0.186904,0.563152,228.339996,-44.240002,-59.919998,21.39
598931,0.638792,0.302072,0.459696,162.960007,-31.360001,-48.93,21.39
598943,0.674416,0.15616,0.298168,94.919998,-14.0,-36.959999,21.38
598954,0.616344,0.155672,0.293776,33.599998,-6.16,-24.780001,21.37
598965,0.631472,0.427,0.411872,-44.029999,4.34,-6.79,21.37
598977,0.659776,0.533872,0.5124,-119.559998,18.549999,6.37,21.41
598988,0.647088,0.560712,0.609024,-193.479996,30.59,19.74,21.36
599000,0.670512,0.401136,0.693448,-238.699997,42.419998,34.720001,21.36
599011,0.64416,0.23424,0.71736,-256.269989,45.5,42.560001,21.4
599022,0.658312,0.157136,0.711504,-274.540009,43.049999,50.049999,21.4
599033,0.71736,0.067832,0.715896,-281.679993,42.77,59.639999,21.34
599045,0.691496,-0.061488,0.757376,-284.480011,39.830002,63.700001,21.39
599056,0.704672,-0.112728,0.812032,-284.76001,35.07,68.459999,21.39
599068,0.70272,-0.17324,0.843264,-278.529999,28.91,68.389999,21.42
599080,0.718824,-0.194224,0.792512,-276.5,25.76,68.949997,21.42
599091,0.731512,-0.407968,0.726632,-252.210007,24.360001,65.379997,21.38
599103,0.715896,-0.371856,0.701256,-224.910004,18.549999,63.07,21.38
599114,0.70272,-0.306952,0.67832,-206.5,17.780001,62.23,21.38
599126,0.656848,-0.316712,0.670024,-184.240005,17.99,60.900002,21.43
599137,0.63196,-0.488976,0.619272,-141.960007,16.59,53.060001,21.36
599149,0.603656,-0.56608,0.564128,-91.349998,11.2,42.560001,21.36
599160,0.595848,-0.681248,0.518256,-47.459999,4.97,30.59,21.41
599171,0.587552,-0.756888,0.51972,10.43,-2.59,15.82,21.41
599183,0.616832,-0.815448,0.496296,62.720001,-7.07,2.52,21.41
599195,0.605608,-0.6344,0.55876,99.75,-15.12,-11.76,21.38
599206,0.6344,-0.653432,0.64172,112.980003,-13.16,-24.15,21.38
599217,0.599264,-0.62952,0.730048,133.0,-17.290001,-37.52,21.37
599229,0.623176,-0.547048,0.794464,142.029999,-16.870001,-47.810001,21.37
599240,0.61244,-0.67344,0.796416,181.929993,-21.0,-60.830002,21.39
599252,0.613416,-0.60512,0.806664,230.300003,-32.549999,-75.529999,21.37
599263,0.697352,-0.506544,0.782752,274.890015,-37.939999,-84.839996,21.37
599275,0.730048,-0.611952,0.710528,335.230011,-42.560001,-96.669998,21.4
599287,0.708576,-0.5856,0.529968,401.450012,-56.209999,-102.690002,21.37
599299,0.696376,-0.592432,0.535824,458.850006,-65.449997,-102.410004,21.37
599311,0.655384,-0.182512,0.634888,479.98999,-73.360001,-94.360001,21.36
599322,0.642696,0.074176,0.751032,455.279999,-72.800003,-85.050003,21.36
599334,0.612928,0.194224,0.746152,409.149994,-66.290001,-77.910004,21.4
599346,0.629032,0.4514,0.66856,324.589996,-56.349998,-64.540001,21.36
599357,0.672464,0.457744,0.554856,231.279999,-41.650002,-51.099998,21.36
599369,0.694912,0.395768,0.427976,157.639999,-24.92,-42.630001,21.39
599380,0.670024,0.325008,0.197152,88.970001,-13.02,-32.060001,21.41
599391,0.665632,0.541192,0.181048,15.68,-1.61,-13.51,21.41
599402,0.687104,0.623176,0.299632,-87.080002,17.639999,4.97,21.38
599413,0.642696,0.562176,0.437248,-181.160004,32.200001,23.799999,21.38
599425,0.612928,0.572912,0.61732,-258.369995,46.27,36.68,21.39
599436,0.619272,0.506056,0.72224,-315.839996,52.849998,50.540001,21.39
599447,0.674904,0.432856,0.773968,-357.070007,56.560001,61.18,21.39
599458,0.736392,0.306464,0.735416,-388.429993,59.919998,71.470001,21.37
599469,0.72956,0.07564,0.789096,-416.640015,59.990002,79.169998,21.37
599480,0.720776,-0.052216,0.870104,-422.869995,53.27,84.279999,21.39
599492,0.681736,-0.022448,0.962336,-425.73999,40.599998,88.760002,21.34
599503,0.71248,-0.035624,0.949648,-426.649994,35.349998,87.5,21.34
599515,0.696376,-0.182512,0.850584,-408.799988,32.41,83.370003,21.35
599527,0.669536,-0.327936,0.789096,-368.549988,28.84,76.860001,21.35
599538,0.649528,-0.422608,0.672952,-308.630005,20.719999,68.040001,21.36
599550,0.628544,-0.494832,0.552904,-229.179993,12.04,60.41,21.36
599561,0.64172,-0.476288,0.46116,-165.479996,4.2,50.889999,21.36
599573,0.61732,-0.495808,0.37576,-81.339996,-3.85,37.310001,21.37
599584,0.621224,-0.703208,0.342088,4.27,-11.55,21.91,21.37
599595,0.5978,-0.781776,0.388936,82.669998,-19.809999,6.16,21.43
599607,0.606096,-0.776408,0.49288,133.0,-25.83,-5.67,21.37
599618,0.603656,-0.775432,0.616344,153.929993,-27.02,-21.209999,21.37
599630,0.596824,-0.68564,0.73688,156.660004,-28.77,-31.01,21.38
599641,0.62464,-0.488,0.799344,135.449997,-22.33,-37.380001,21.38
599653,0.613904,-0.537776,0.772504,135.449997,-19.809999,-45.849998,21.38
599664,0.6222,-0.481656,0.748104,155.610001,-24.92,-56.419998,21.38
599676,0.677832,-0.512888,0.733952,201.669998,-28.559999,-68.32,21.38
599687,0.689544,-0.538752,0.740784,254.029999,-38.080002,-82.25,21.36
599699,0.732,-0.482632,0.73688,314.929993,-42.77,-91.980003,21.37
599710,0.748104,-0.479216,0.724192,362.950012,-47.810001,-97.580002,21.37
599722,0.735416,-0.55876,0.584136,419.649994,-54.599998,-101.849998,21.42
599733,0.669536,-0.398208,0.596824,454.579987,-64.540001,-98.839996,21.42
599745,0.625128,-0.140544,0.70028,459.829987,-70.839996,-87.639999,21.42
599756,0.639768,0.052216,0.738344,437.429993,-66.150002,-76.720001,21.32
599767,0.64416,0.264496,0.702232,392.910004,-57.889999,-70.349998,21.32
599779,0.633912,0.423584,0.63928,330.190002,-52.779999,-60.970001,21.38
599790,0.679296,0.445544,0.535824,264.109985,-46.619999,-51.869999,21.38
599801,0.689544,0.391376,0.313784,212.660004,-37.310001,-41.509998,21.39
599813,0.725168,0.354776,0.128344,153.160004,-23.1,-31.15,21.36
599824,0.708576,0.549,0.145912,66.989998,-6.02,-20.51,21.36
599836,0.62952,0.61732,0.306464,-28.280001,5.88,-4.76,21.39
599847,0.646112,0.641232,0.43676,-112.839996,22.33,13.37,21.39
599858,0.630008,0.688568,0.530944,-193.059998,36.540001,24.57,21.39
599870,0.658312,0.597312,0.56364,-256.410004,47.599998,38.009998,21.42
599881,0.74176,0.381128,0.525088,-293.230011,57.259998,47.810001,21.42
599892,0.759328,0.399672,0.585112,-326.339996,57.119999,57.610001,21.4
599903,0.76128,0.289872,0.694912,-365.470001,57.049999,66.360001,21.34
599914,0.7198,0.279136,0.892064,-400.609985,54.25,70.07,21.34
599925,0.699304,0.110776,0.925736,-427.420013,52.150002,73.849998,21.38
599936,0.656848,-0.128832,0.997472,-426.160004,45.990002,76.510002,21.38
599948,0.643184,-0.111264,0.968192,-419.440002,35.139999,76.650002,21.37
599959,0.710528,-0.071736,0.853512,-408.450012,31.08,79.169998,21.36
599970,0.723216,0.079056,0.81008,-404.459991,30.1,78.68,21.36
599981,0.74176,0.002928,0.68076,-402.290009,38.220001,77.839996,21.4
599992,0.690032,-0.369416,0.558272,-354.619995,40.32,70.629997,21.4
600004,0.611952,-0.441152,0.53192,-274.470001,24.99,63.700001,21.41
600016,0.652456,-0.480192,0.462136,-193.899994,17.780001,52.57,21.36
600027,0.6222,-0.625128,0.394304,-102.129997,7.21,38.5,21.36
600038,0.620248,-0.637816,0.383568,-22.82,-4.2,26.74,21.4
600051,0.644648,-0.679784,0.405528,33.32,-7.56,14.14,21.4
600062,0.618784,-0.752496,0.475312,82.25,-10.85,-0.77,21.42
600073,0.60756,-0.711992,0.576816,114.730003,-16.030001,-14.14,21.39
600085,0.617808,-0.70028,0.623176,140.350006,-17.5,-23.940001,21.39
600096,0.62708,-0.517768,0.69052,155.960007,-18.9,-33.599998,21.4
600107,0.63928,-0.493856,0.75884,169.399994,-16.379999,-41.790001,21.4
600118,0.610488,-0.543144,0.799344,211.960007,-24.290001,-57.259998,21.39
600130,0.639768,-0.498736,0.81496,261.519989,-30.799999,-71.120003,21.39
600141,0.696864,-0.482632,0.832528,315.279999,-37.169998,-83.580002,21.39
600153,0.730536,-0.493368,0.77348,367.149994,-40.25,-92.190002,21.43
600164,0.762256,-0.549976,0.709064,419.089996,-46.060001,-94.989998,21.35
600175,0.703696,-0.5978,0.621712,475.859985,-56.0,-99.050003,21.35
600187,0.665144,-0.352336,0.608048,501.339996,-66.57,-94.290001,21.39
600198,0.61976,-0.0854,0.68076,499.869995,-74.199997,-84.629997,21.39
600210,0.638304,0.156648,0.713456,469.980011,-70.910004,-76.300003,21.37
600221,0.649528,0.383568,0.6954,403.690002,-63.139999,-66.709999,21.39
600233,0.645136,0.348432,0.59536,357.209991,-55.860001,-58.029999,21.39
600244,0.65392,0.305488,0.43676,303.23999,-50.82,-49.630001,21.41
600255,0.611464,0.369904,0.254248,244.160004,-51.73,-34.580002,21.41
600266,0.767624,0.705648,0.162992,124.459999,-25.200001,-27.440001,21.39
600278,0.693936,0.617808,0.130784,9.17,-4.48,-9.66,21.42
600289,0.650992,0.62708,0.240096,-75.110001,15.4,7.35,21.42
600300,0.650016,0.707112,0.421632,-181.789993,30.309999,25.200001,21.36
600312,0.621712,0.638304,0.589016,-259.910004,42.77,40.459999,21.36
600322,0.676368,0.650016,0.682224,-324.450012,52.290001,50.540001,21.37
600334,0.713456,0.584136,0.730536,-375.339996,57.470001,61.529999,21.34
600345,0.71736,0.45628,0.777872,-411.179993,59.290001,69.440002,21.34
600357,0.734928,0.33916,0.831552,-462.910004,59.779999,79.029999,21.38
600368,0.708576,0.249368,0.865224,-472.779999,56.77,84.349998,21.38
600381,0.6954,0.14884,0.855464,-480.339996,51.099998,89.739998,21.43
600393,0.666608,0.116632,0.906704,-469.350006,43.330002,94.57,21.42
600404,0.678808,0.165432,0.88328,-459.410004,39.27,95.900002,21.42
600415,0.71004,0.02928,0.765672,-442.609985,41.369999,97.160004,21.42
600426,0.655872,-0.123464,0.650504,-400.119995,37.66,92.610001,21.33
600438,0.68808,-0.220576,0.503616,-343.279999,32.41,86.870003,21.33
600449,0.666608,-0.4758,0.41236,-270.480011,27.299999,79.099998,21.36
600460,0.624152,-0.564128,0.366488,-180.740005,15.61,71.470001,21.36
600472,0.60024,-0.589992,0.400648,-107.589996,4.62,62.16,21.37
600483,0.60024,-0.7198,0.410408,-53.830002,0.07,51.310001,21.34
600494,0.559248,-0.792024,0.48312,-24.219999,3.36,54.950001,21.34
600505,0.565104,-0.899872,0.490928,-4.34,-12.46,23.24,21.38
600517,0.558272,-0.992592,0.584624,-6.23,-8.12,14.42,21.38
600529,0.569984,-0.879864,0.546072,-6.16,-8.82,2.87,21.39
600540,0.61488,-0.852536,0.492392,5.25,-5.74,-7.42,21.36
600552,0.581208,-0.862784,0.406016,44.450001,-8.96,-21.49,21.36
600564,0.601704,-0.630984,0.39284,104.650002,-17.43,-36.82,21.37
600575,0.61976,-0.386496,0.491416,169.539993,-22.540001,-49.349998,21.34
600587,0.58072,-0.620248,0.633424,254.449997,-29.889999,-66.919998,21.34
600598,0.58072,-0.687592,0.782264,358.329987,-48.509998,-90.230003,21.38
600610,0.638792,-0.593408,0.889624,444.359985,-64.120003,-108.639999,21.38
600622,0.724192,-0.562176,0.961848,512.400024,-73.220001,-123.410004,21.39
600633,0.770064,-0.545584,0.955992,569.169983,-82.32,-131.179993,21.35
600644,0.81984,-0.901336,0.57828,633.780029,-81.199997,-134.820007,21.35
600656,0.647088,-0.630008,0.593896,659.469971,-105.489998,-123.550003,21.39
600667,0.5856,-0.052216,0.696376,610.330017,-114.029999,-109.339996,21.39
600678,0.646112,0.278648,0.680272,500.640015,-100.660004,-92.190002,21.38
600690,0.610488,0.627568,0.55388,348.109985,-85.889999,-73.290001,21.39
600701,0.663192,0.826184,0.416264,143.289993,-59.5,-50.400002,21.39
600712,0.625128,0.532408,0.29524,-15.89,-25.76,-33.25,21.39
600723,0.62464,0.615368,0.215696,-112.489998,1.19,-16.52,21.39
600734,0.659776,0.555344,0.108336,-187.179993,16.940001,-2.8,21.41
600745,0.736392,0.611464,0.196176,-225.679993,33.25,5.88,21.37
600755,0.66856,0.637328,0.429928,-241.850006,40.389999,18.34,21.37
600767,0.672952,0.536312,0.618784,-247.729996,45.639999,25.76,21.37
600778,0.617808,0.465552,0.74176,-232.399994,44.799999,28.700001,21.37
600789,0.657336,0.421632,0.76616,-208.25,42.490002,31.639999,21.37
600801,0.684176,0.340624,0.749568,-181.860001,37.450001,32.34,21.37
600811,0.691008,0.219112,0.701256,-157.779999,30.799999,31.709999,21.37
600823,0.74176,0.06344,0.616832,-120.260002,28.35,31.360001,21.4
600834,0.765184,0.034648,0.63684,-90.860001,23.799999,31.92,21.4
600845,0.730536,0.025864,0.69296,-79.519997,22.610001,31.709999,21.36
600856,0.686616,-0.06344,0.764208,-72.239998,20.23,30.940001,21.35
600867,0.6588,-0.105896,0.799832,-69.089996,17.5,31.219999,21.35
600879,0.642696,-0.120536,0.828136,-72.589996,17.15,30.1,21.37
600890,0.65392,-0.068808,0.80276,-80.57,16.1,29.610001,21.37
600902,0.693936,0.005856,0.791536,-101.989998,20.299999,32.549999,21.39
600913,0.67344,-0.071736,0.73444,-113.82,23.379999,31.709999,21.34
600924,0.686128,-0.010736,0.72468,-127.050003,19.25,31.99,21.34
600936,0.715408,-0.022448,0.723704,-141.960007,22.4,34.23,21.37
600948,0.67344,-0.184464,0.770064,-145.809998,26.18,33.040001,21.36
600959,0.613416,-0.346968,0.831064,-135.309998,22.75,30.59,21.36
600970,0.59536,-0.376248,0.907192,-125.160004,17.43,29.33,21.37
600982,0.581208,-0.371856,0.945256,-111.510002,11.13,23.870001,21.37
600993,0.599752,-0.379664,0.938912,-96.040001,7.14,18.690001,21.41
601004,0.63928,-0.399184,0.75884,-68.25,5.88,14.0,21.36
601015,0.71492,-0.155672,0.677344,-66.57,2.31,16.1,21.36
601027,0.781288,0.01952,0.593408,-83.089996,6.3,23.66,21.38
601037,0.759328,-0.118584,0.555832,-92.610001,14.42,21.209999,21.38
601049,0.686128,-0.316712,0.621224,-86.730003,17.85,18.059999,21.39
601060,0.635864,-0.437736,0.734928,-71.75,16.17,13.37,21.36
601071,0.594384,-0.527528,0.85644,-46.689999,8.89,6.51,21.36
601082,0.604632,-0.574864,0.913048,-19.18,1.05,0.49,21.36
601093,0.640744,-0.503616,0.876936,11.48,-3.01,-4.55,21.36
601105,0.687592,-0.395768,0.714432,33.740002,-0.42,-6.23,21.37
601116,0.7076,-0.277184,0.53192,49.0,1.47,-5.46,21.37
601127,0.737856,-0.023424,0.441152,37.939999,5.04,-1.89,21.37
601138,0.751032,0.05856,0.419192,13.65,19.32,7.21,21.37
601149,0.68564,-0.0854,0.482632,-11.62,29.4,12.53,21.37
601160,0.646112,-0.349896,0.575352,-30.52,36.119999,16.24,21.35
601171,0.633424,-0.37332,0.657336,-39.759998,37.66,19.6,21.36
601182,0.628056,-0.423584,0.709552,-39.130001,38.779999,21.35,21.36
601194,0.635376,-0.427976,0.708576,-29.26,39.900002,22.26,21.4
601206,0.650016,-0.447984,0.650016,-10.5,42.560001,19.6,21.4
601217,0.64904,-0.54168,0.5856,38.639999,48.299999,7.35,21.39
601228,0.61732,-0.631472,0.530456,80.849998,49.98,4.97,21.37
601239,0.578768,-0.30256,0.48312,99.190002,52.779999,-7.14,21.37
601251,0.58804,-0.107848,0.50996,83.440002,61.529999,-5.95,21.39
601262,0.526064,0.032696,0.603168,46.130001,66.150002,1.12,21.39
601273,0.479216,0.001464,0.700768,3.99,72.940002,14.42,21.4
601284,0.411872,-0.184952,0.772992,-37.799999,77.349998,25.83,21.39
601296,0.337696,-0.282552,0.845704,-62.299999,75.739998,30.309999,21.39
601307,0.32452,-0.36112,0.879376,-71.190002,72.099998,30.379999,21.36
601319,0.32208,-0.486048,0.886696,-53.900002,71.120003,24.360001,21.36
601330,0.32696,-0.56364,0.898408,-26.809999,64.330002,15.61,21.38
601341,0.315248,-0.49532,0.942816,-0.42,55.439999,5.04,21.37
601353,0.333792,-0.346968,1.009672,8.19,44.869999,1.68,21.37
601364,0.35868,-0.339648,1.07848,8.12,39.27,-0.42,21.41
601375,0.370392,-0.351848,1.135088,7.7,29.959999,-2.94,21.41
601386,0.376248,-0.312808,1.159,4.13,21.209999,-4.55,21.38
601397,0.404552,-0.308416,1.162904,1.05,12.81,-5.6,21.35
601409,0.418704,-0.31476,1.130208,-0.77,6.65,-6.72,21.35
601420,0.426512,-0.33184,1.067744,-0.07,2.66,-8.61,21.38
601431,0.425048,-0.360144,1.016992,6.02,-2.17,-11.27,21.38
601442,0.425048,-0.352336,0.979416,12.25,-6.3,-12.95,21.36
601454,0.433344,-0.327936,0.958432,14.77,-8.54,-13.3,21.39
601465,0.44408,-0.313784,0.926712,15.05,-8.61,-13.37,21.39
601476,0.457744,-0.288408,0.894992,14.49,-8.89,-12.6,21.39
601487,0.465064,-0.261568,0.87352,11.55,-8.47,-10.36,21.39
601498,0.472872,-0.266448,0.864248,7.21,-6.86,-8.26,21.39
601510,0.462136,-0.280112,0.854,5.81,-4.9,-7.21,21.4
601521,0.458232,-0.295728,0.85156,4.69,-4.06,-5.25,21.4
601532,0.453352,-0.304024,0.847168,4.55,-3.15,-3.99,21.37
601543,0.445544,-0.30012,0.859856,5.11,-2.66,-2.31,21.37
601555,0.449448,-0.308904,0.864248,5.25,-1.54,-1.61,21.36
601566,0.44408,-0.318176,0.87108,6.37,-0.07,-1.82,21.34
601577,0.443592,-0.27816,0.874008,4.76,0.7,-0.91,21.34
601588,0.438712,-0.265472,0.882792,2.59,1.19,0.49,21.38
601599,0.433344,-0.267424,0.886696,-0.42,1.47,1.75,21.38
601610,0.433344,-0.296216,0.8906,-0.63,1.82,2.03,21.41
601621,0.421632,-0.323544,0.888648,1.75,1.61,0.98,21.37
601633,0.417728,-0.332816,0.886696,3.64,1.19,0.49,21.37
601644,0.416264,-0.32696,0.888648,4.76,0.49,-0.21,21.4
601655,0.426024,-0.330376,0.890112,5.46,0.07,-1.05,21.4
601666,0.423584,-0.3294,0.883768,6.58,-0.7,-1.61,21.36
601678,0.429928,-0.32208,0.88816,6.86,-1.61,-2.03,21.36
601689,0.430416,-0.317688,0.885232,7.63,-1.54,-2.94,21.36
601700,0.430416,-0.299632,0.879864,8.12,-2.1,-3.01,21.38
601712,0.42944,-0.282552,0.885232,6.72,-2.73,-2.73,21.38
601723,0.430416,-0.276208,0.886696,3.99,-3.36,-2.03,21.38
601734,0.440664,-0.279624,0.886208,0.91,-3.85,-1.4,21.34
601746,0.445056,-0.289384,0.884744,-0.91,-3.57,-0.91,21.34
601757,0.444568,-0.29036,0.880352,-2.17,-3.36,-0.91,21.36
601768,0.443104,-0.29768,0.88572,-2.8,-3.36,-0.84,21.36
601779,0.438224,-0.302072,0.88084,-2.59,-3.29,-0.84,21.39
601791,0.430416,-0.324032,0.879864,-0.35,-3.71,-1.33,21.38
601802,0.427488,-0.32696,0.878888,2.59,-4.62,-2.24,21.38
601814,0.424072,-0.315736,0.87352,5.88,-4.9,-3.08,21.39
601825,0.432856,-0.287432,0.865712,6.58,-5.18,-3.22,21.39
601836,0.438224,-0.265472,0.866688,5.18,-4.9,-3.15,21.39
601848,0.435784,-0.258152,0.865224,2.8,-4.69,-2.59,21.38
601859,0.438224,-0.26108,0.866688,0.7,-4.55,-1.75,21.38
601871,0.437736,-0.271328,0.87108,-0.63,-4.41,-1.26,21.35
601882,0.426024,-0.28548,0.8784,-0.91,-4.69,-1.54,21.39
601893,0.423584,-0.29524,0.874984,-0.56,-5.18,-1.33,21.39
601905,0.430416,-0.300608,0.873032,0.28,-5.32,-1.68,21.41
601916,0.430416,-0.309392,0.872544,1.75,-5.18,-1.89,21.41
601927,0.438712,-0.298656,0.87108,2.8,-4.83,-1.75,21.36
601939,0.439688,-0.289384,0.874008,4.13,-4.2,-1.89,21.37
601950,0.443592,-0.277184,0.87108,4.69,-3.99,-1.75,21.37
601962,0.440664,-0.265472,0.877912,2.8,-3.92,-1.05,21.43
601973,0.44408,-0.260592,0.873032,0.21,-3.5,-0.49,21.43
601985,0.445544,-0.274256,0.872544,-1.47,-2.8,0.35,21.4
601996,0.44164,-0.294264,0.877912,-3.15,-2.52,0.56,21.37
602008,0.438224,-0.314272,0.881816,-2.52,-2.52,-0.07,21.37
602019,0.437736,-0.319152,0.887672,-0.77,-2.87,-0.63,21.37
602031,0.435296,-0.314272,0.887672,0.42,-3.57,-1.12,21.36
602042,0.43676,-0.305488,0.890112,1.12,-4.06,-1.4,21.36
602053,0.441152,-0.285968,0.884256,0.63,-4.27,-1.19,21.4
602065,0.445544,-0.269376,0.8784,-1.75,-3.71,-0.49,21.4
602076,0.44652,-0.249368,0.876448,-5.53,-3.43,0.63,21.41
602088,0.445056,-0.267912,0.875472,-8.19,-2.87,1.47,21.32
602099,0.442128,-0.28548,0.877424,-9.38,-2.87,1.96,21.32
602110,0.433832,-0.314272,0.867176,-7.91,-2.73,1.47,21.39
602122,0.431392,-0.321592,0.856928,-4.97,-3.08,0.98,21.39
602133,0.436272,-0.323544,0.854488,-1.96,-3.22,0.7,21.4
602145,0.440176,-0.326472,0.86376,0.28,-3.01,0.28,21.37
602156,0.437248,-0.320128,0.874984,2.24,-2.8,-0.07,21.37
602167,0.44164,-0.311832,0.886696,3.78,-3.22,-0.63,21.37
602179,0.44164,-0.28792,0.894016,3.92,-3.92,-0.7,21.34
602190,0.446032,-0.27328,0.892064,2.66,-4.48,-0.28,21.34
602202,0.447008,-0.277184,0.88572,1.54,-4.48,-0.14,21.36
602213,0.443592,-0.284992,0.874984,1.12,-4.27,0.14,21.36
602225,0.444568,-0.285968,0.865712,0.77,-4.13,0.56,21.42
602236,0.440176,-0.28792,0.86864,-0.14,-3.92,1.12,21.37
602248,0.437736,-0.284016,0.864248,-1.26,-3.78,1.82,21.37
602259,0.432856,-0.301096,0.860832,-1.54,-3.99,2.59,21.41
602270,0.434808,-0.316224,0.884744,-0.84,-4.62,2.31,21.41
602282,0.441152,-0.303536,0.891088,-0.14,-4.9,1.89,21.45
602293,0.441152,-0.318664,0.901824,0.63,-5.53,1.61,21.42
602304,0.43676,-0.310856,0.914512,1.75,-6.86,0.77,21.42
602316,0.43432,-0.313296,0.91744,3.22,-8.19,0.0,21.39
602327,0.432856,-0.315736,0.935496,3.57,-9.8,-0.42,21.39
602338,0.425536,-0.290848,0.941352,2.1,-11.76,-0.91,21.39
602349,0.410896,-0.264008,0.931104,-2.17,-13.51,1.05,21.36
602361,0.401136,-0.279136,0.916464,-3.15,-15.82,2.8,21.36
602372,0.399184,-0.275232,0.89792,-3.85,-17.780001,3.01,21.45
602384,0.399184,-0.278648,0.86864,-2.24,-18.27,3.43,21.45
602395,0.400648,-0.269376,0.853512,-1.19,-19.530001,3.92,21.37
602406,0.405528,-0.250832,0.822768,-5.25,-19.74,5.6,21.39
602418,0.399184,-0.285968,0.763232,-9.24,-17.709999,8.33,21.39
602430,0.402112,-0.299632,0.727608,-15.68,-18.34,9.38,21.37
602442,0.438224,-0.17812,0.715408,-30.309999,-16.66,13.3,21.36
602453,0.46848,-0.062952,0.75884,-52.919998,-15.4,20.16,21.36
602465,0.495808,-0.047336,0.828624,-77.139999,-14.91,27.440001,21.37
602476,0.523624,-0.1098,0.893528,-103.32,-16.1,33.32,21.37
602487,0.530456,-0.179096,0.892552,-131.110001,-14.7,38.639999,21.38
602499,0.510448,-0.181048,0.877424,-154.559998,-14.7,43.68,21.38
602510,0.521672,-0.274256,0.833992,-163.449997,-11.34,44.73,21.38
602522,0.508496,-0.46604,0.818864,-152.460007,-10.99,39.549999,21.34
602533,0.517768,-0.62708,0.79788,-138.600006,-14.84,35.490002,21.34
602544,0.375272,-0.765184,0.874984,-108.290001,-26.459999,31.08,21.36
602556,0.53436,-0.621224,0.947208,-83.860001,-36.259998,30.309999,21.4
602568,0.51972,-0.425536,1.062864,-78.330002,-43.75,30.66,21.4
602579,0.521184,-0.41724,1.077016,-94.220001,-44.939999,36.259998,21.38
602591,0.5124,-0.613416,0.999912,-96.25,-44.169998,33.459999,21.36
602602,0.491904,-0.712968,0.82472,-86.940002,-46.759998,30.66,21.36
602613,0.489464,-0.713456,0.732,-77.0,-49.77,28.98,21.39
602625,0.5002,-0.648552,0.703208,-64.959999,-51.799999,26.18,21.39
602636,0.504104,-0.638304,0.63196,-57.400002,-50.189999,21.98,21.39
602647,0.496784,-0.71004,0.59048,-45.290001,-46.759998,16.030001,21.35
602659,0.45872,-0.762256,0.549976,-32.759998,-46.549999,9.17,21.35
602670,0.454328,-0.853024,0.552416,-22.33,-45.709999,1.75,21.38
602681,0.433832,-0.9394,0.53924,-6.86,-47.25,-7.35,21.38
602692,0.4514,-0.921344,0.484584,14.84,-49.349998,-19.389999,21.37
602704,0.48556,-0.806664,0.418216,37.59,-49.630001,-30.24,21.38
602715,0.533872,-0.751032,0.3172,68.809998,-46.549999,-40.950001,21.38
602727,0.553392,-0.7808,0.31476,115.779999,-48.580002,-52.360001,21.4
602738,0.570472,-0.692472,0.461648,173.25,-54.880001,-63.77,21.4
602750,0.563152,-0.752008,0.70028,218.470001,-62.299999,-77.209999,21.38
602762,0.48068,-1.077992,0.80764,300.649994,-74.339996,-103.879997,21.37
602773,0.533872,-0.793976,0.894992,374.290009,-89.32,-111.019997,21.37
602785,0.530944,-0.767624,0.885232,435.470001,-99.540001,-117.389999,21.41
602796,0.60268,-0.625128,0.755424,482.369995,-103.040001,-113.470001,21.39
602809,0.589992,-0.49288,0.604144,527.380005,-109.830002,-107.589996,21.39
602820,0.619272,-0.270352,0.518744,531.789978,-109.550003,-96.669998,21.39
602832,0.61488,0.121512,0.488,420.0,-101.080002,-80.43,21.39
602844,0.676368,0.311344,0.477264,275.029999,-68.879997,-56.419998,21.34
602855,0.577792,0.241072,0.382104,139.440002,-40.32,-37.029999,21.36
602866,0.552416,0.198616,0.234728,47.32,-16.450001,-15.12,21.36
602878,0.64172,0.342576,0.169336,-56.77,5.67,3.78,21.39
602889,0.670024,0.413824,0.205936,-146.580002,22.4,21.35,21.4
602901,0.695888,0.437248,0.313296,-230.229996,45.849998,37.73,21.4
602912,0.642696,0.284016,0.484096,-292.179993,60.830002,52.709999,21.39
602923,0.60512,0.227896,0.641232,-334.950012,69.370003,64.610001,21.39
602935,0.575352,0.165432,0.731512,-361.339996,71.400002,79.589996,21.37
602946,0.554368,-0.121024,0.745664,-361.269989,67.480003,86.379997,21.41
602957,0.60024,-0.156648,0.754936,-357.769989,58.380001,91.559998,21.41
602969,0.67588,-0.22936,0.718824,-356.230011,53.060001,100.940002,21.39
602980,0.702232,-0.237168,0.763232,-354.899994,46.759998,106.68,21.39
602991,0.69784,-0.340136,0.785192,-344.26001,41.439999,107.379997,21.39
603002,0.681736,-0.271816,0.772016,-341.179993,36.82,106.610001,21.36
603014,0.66856,-0.448472,0.689056,-318.079987,40.529999,106.190002,21.36
603025,0.55876,-0.673928,0.617808,-271.040009,35.98,94.989998,21.36
603036,0.499224,-0.724192,0.526064,-196.979996,26.389999,81.690002,21.36
603048,0.486048,-0.726632,0.423096,-119.0,15.12,68.599998,21.41
603058,0.479216,-0.806664,0.349408,-42.209999,3.57,57.049999,21.42
603070,0.489464,-0.871568,0.316224,13.86,-2.03,43.189999,21.42
603081,0.4636,-1.039928,0.364536,41.650002,-6.09,28.77,21.4
603092,0.449936,-1.106296,0.467016,55.790001,-8.54,12.81,21.4
603104,0.448472,-1.087264,0.559736,46.619999,-9.31,-1.96,21.37
603115,0.44896,-1.099952,0.601216,29.469999,-5.67,-12.95,21.38
603126,0.456768,-1.036512,0.574376,18.48,-3.5,-25.41,21.38
603138,0.48312,-0.9272,0.517768,19.6,-2.1,-36.889999,21.41
603149,0.510448,-0.884256,0.430416,49.91,-2.8,-49.279999,21.39
603161,0.562176,-0.728584,0.42456,105.0,-5.25,-60.060001,21.39
603172,0.53436,-0.720776,0.495808,140.559998,-11.41,-72.730003,21.37
603184,0.581696,-0.831064,0.56608,207.130005,-17.15,-87.43,21.37
603196,0.582184,-0.90768,0.637328,283.079987,-29.33,-103.389999,21.4
603207,0.60024,-0.871568,0.687104,353.079987,-38.849998,-116.690002,21.37
603219,0.600728,-0.786168,0.72712,429.100006,-49.77,-121.730003,21.37
603230,0.582184,-0.640744,0.655384,464.170013,-59.150002,-121.589996,21.41
603242,0.57096,-0.361608,0.647088,494.480011,-70.769997,-115.57,21.41
603253,0.572424,-0.04148,0.706624,474.73999,-75.879997,-104.720001,21.36
603265,0.60756,0.308904,0.743224,383.73999,-71.190002,-91.0,21.37
603276,0.65636,0.30744,0.718824,279.720001,-52.150002,-78.889999,21.37
603287,0.580232,0.294752,0.676368,173.460007,-34.720001,-62.790001,21.4
603299,0.598288,0.458232,0.491904,37.029999,-12.53,-40.740002,21.38
603310,0.613904,0.387472,0.270352,-65.029999,11.13,-16.450001,21.38
603321,0.605608,0.293288,0.214232,-166.809998,33.950001,10.5,21.39
603332,0.576816,0.359168,0.394792,-258.160004,42.84,35.419998,21.39
603344,0.611952,0.25132,0.587064,-338.380005,59.220001,53.27,21.37
603354,0.617808,0.14152,0.741272,-394.029999,68.669998,72.589996,21.37
603365,0.616344,0.00244,0.899384,-427.209991,72.379997,86.309998,21.37
603377,0.638792,-0.122,0.975024,-448.630005,70.209999,94.639999,21.37
603388,0.675392,-0.218624,0.99064,-451.570007,66.5,99.330002,21.37
603400,0.654408,-0.275232,0.938424,-434.980011,58.73,99.330002,21.39
603411,0.661728,-0.249368,0.825696,-402.709991,51.169998,96.739998,21.4
603423,0.691008,-0.358192,0.640744,-339.709991,49.91,91.419998,21.4
603434,0.596336,-0.550952,0.522648,-230.580002,38.57,77.07,21.42
603445,0.552416,-0.632936,0.379176,-109.480003,21.139999,64.400002,21.42
603457,0.552904,-0.642208,0.264984,-27.440001,6.37,50.959999,21.38
603468,0.537288,-0.73688,0.309392,47.32,0.07,38.779999,21.37
603479,0.472384,-0.890112,0.488488,91.629997,-6.3,25.620001,21.37
603490,0.444568,-0.992104,0.642696,101.5,-11.2,7.21,21.43
603501,0.448472,-0.982832,0.764696,90.650002,-14.0,-8.47,21.43
603513,0.47336,-1.013576,0.764208,83.720001,-11.41,-22.4,21.35
603524,0.497272,-0.873032,0.691008,87.919998,-11.97,-31.08,21.36
603535,0.559248,-0.69052,0.62708,111.580002,-12.81,-42.700001,21.36
603547,0.556808,-0.650992,0.65392,156.660004,-15.82,-57.259998,21.42
603558,0.548512,-0.73444,0.70272,232.330002,-25.34,-75.459999,21.42
603569,0.564616,-0.693936,0.752008,310.940002,-40.669998,-91.209999,21.37
603581,0.613416,-0.741272,0.791536,386.540009,-52.709999,-103.669998,21.4
603592,0.637328,-0.64172,0.815936,436.519989,-64.959999,-107.660004,21.4
603603,0.633912,-0.553392,0.849608,487.970001,-70.209999,-106.889999,21.42
603615,0.555832,-0.553392,0.798856,531.650024,-81.970001,-107.660004,21.42
603626,0.557784,-0.343064,0.749568,539.070007,-84.980003,-96.389999,21.39
603638,0.567056,-0.040016,0.73444,501.130005,-80.220001,-80.290001,21.42
603649,0.587064,0.421632,0.687592,374.290009,-67.199997,-61.110001,21.42
603660,0.702232,0.730536,0.547048,177.520004,-35.139999,-42.279999,21.42
603672,0.557784,0.457256,0.316224,9.59,-11.83,-13.3,21.42
603683,0.611952,0.299632,0.137616,-102.480003,15.19,9.52,21.35
603694,0.58804,0.386984,0.317688,-229.179993,30.799999,36.119999,21.4
603705,0.58804,0.482144,0.548512,-346.640015,49.77,53.619999,21.4
603716,0.628544,0.425048,0.744688,-442.75,65.589996,75.18,21.37
603727,0.582184,0.187392,0.925736,-478.799988,69.019997,85.120003,21.37
603738,0.59048,0.060024,1.0248,-512.190002,65.379997,94.709999,21.41
603750,0.593408,-0.061976,0.998936,-519.330017,56.98,99.470001,21.41
603761,0.64172,-0.253272,0.95404,-501.690002,48.23,97.510002,21.41
603773,0.6344,-0.325008,0.872056,-467.320007,38.220001,94.779999,21.39
603784,0.66368,-0.33428,0.77836,-413.700012,31.290001,91.839996,21.37
603796,0.662216,-0.386984,0.660752,-329.559998,25.059999,83.160004,21.37
603807,0.603656,-0.36844,0.542656,-224.419998,14.35,71.330002,21.36
603818,0.549488,-0.478728,0.322568,-136.990005,7.35,61.950001,21.36
603830,0.5002,-0.643184,0.186904,-28.91,-2.59,49.07,21.39
603841,0.484584,-0.708576,0.263032,48.299999,-11.62,37.66,21.39
603853,0.471896,-0.802272,0.422608,86.029999,-13.86,22.190001,21.39
603864,0.481656,-0.851072,0.600728,82.879997,-11.83,9.38,21.39
603876,0.434808,-1.031632,0.670512,83.650002,-11.9,-7.28,21.39
603887,0.494344,-0.97112,0.664656,94.290001,-13.02,-17.15,21.44
603899,0.519232,-0.85888,0.664656,118.160004,-14.49,-27.65,21.35
603910,0.5246,-0.790072,0.672952,166.389999,-19.18,-43.330002,21.35
603921,0.550952,-0.802272,0.721264,239.679993,-25.690001,-63.279999,21.37
603933,0.548512,-0.846192,0.781288,323.049988,-36.610001,-82.25,21.37
603945,0.588528,-0.892552,0.775432,403.059998,-50.189999,-96.389999,21.37
603956,0.615856,-0.783728,0.764208,450.940002,-60.41,-103.529999,21.4
603968,0.606096,-0.798368,0.725168,505.190002,-67.620003,-106.610001,21.4
603979,0.574864,-0.620248,0.700768,535.849976,-74.550003,-103.669998,21.36
603991,0.52704,-0.320128,0.734928,532.97998,-78.75,-95.690002,21.37
604003,0.582672,-0.051728,0.729072,492.940002,-71.260002,-87.5,21.37
604016,0.548024,0.31964,0.660752,411.529999,-65.379997,-68.879997,21.41
604028,0.650504,0.540704,0.584136,285.179993,-47.740002,-54.669998,21.37
604040,0.619272,0.394792,0.447008,169.119995,-27.790001,-41.720001,21.37
604051,0.604144,0.421632,0.289872,47.110001,-6.58,-27.440001,21.43
604063,0.603168,0.450424,0.322568,-69.230003,7.98,-7.14,21.43
604074,0.5612,0.554368,0.469456,-171.850006,24.43,9.24,21.4
604085,0.630496,0.654408,0.611952,-271.459991,45.290001,25.969999,21.37
604096,0.574864,0.508496,0.693448,-344.679993,58.029999,38.5,21.37
604108,0.576816,0.225456,0.764208,-389.200012,63.419998,47.18,21.43
604119,0.577304,0.033184,0.791536,-416.079987,64.260002,53.619999,21.43
604131,0.613416,-0.145424,0.837408,-441.559998,63.0,61.880001,21.38
604142,0.587552,-0.372344,0.829112,-443.869995,58.52,66.150002,21.35
604153,0.589016,-0.398208,0.90768,-429.380005,50.119999,69.510002,21.35
604165,0.592432,-0.293288,1.008208,-409.5,41.02,68.459999,21.36
604176,0.605608,-0.227896,1.001864,-385.420013,33.810001,67.620003,21.4
604188,0.6222,-0.264496,0.92232,-352.940002,33.810001,68.25,21.4
604200,0.589504,-0.342088,0.862296,-303.100006,29.610001,65.589996,21.44
604212,0.564616,-0.24156,0.765672,-246.820007,19.32,62.720001,21.44
604223,0.573888,-0.293776,0.659288,-179.479996,16.66,56.560001,21.4
604234,0.503128,-0.506056,0.560224,-97.510002,8.12,48.16,21.35
604246,0.481168,-0.672952,0.534848,-18.27,-8.19,38.080002,21.35
604257,0.49288,-0.777384,0.571448,33.389999,-17.85,26.389999,21.41
604268,0.48556,-0.804224,0.593896,53.41,-24.01,12.67,21.41
604280,0.500688,-0.827648,0.637328,58.73,-24.85,0.14,21.4
604291,0.489464,-0.898896,0.658312,66.919998,-25.9,-12.04,21.4
604302,0.51484,-0.794464,0.684176,84.279999,-29.959999,-20.790001,21.4
604314,0.536312,-0.726632,0.676856,109.830002,-30.73,-28.91,21.39
604325,0.531432,-0.696376,0.679784,164.5,-38.220001,-41.02,21.42
604336,0.548512,-0.590968,0.739808,224.210007,-45.849998,-54.459999,21.42
604348,0.577304,-0.71248,0.789096,282.799988,-53.27,-71.470001,21.4
604359,0.572912,-0.765184,0.841312,354.130005,-65.730003,-89.669998,21.4
604371,0.63684,-0.724192,0.87596,405.299988,-70.07,-99.190002,21.43
604383,0.669048,-0.833992,0.750056,458.149994,-75.25,-109.339996,21.37
604394,0.6222,-0.797392,0.642208,512.119995,-88.129997,-111.089996,21.37
604406,0.581696,-0.518256,0.611464,549.429993,-98.489998,-106.050003,21.42
604418,0.616832,-0.203008,0.680272,541.52002,-95.760002,-96.669998,21.42
604429,0.563152,-0.049288,0.702232,520.869995,-94.360001,-88.129997,21.42
604441,0.535336,0.408944,0.68808,438.339996,-93.449997,-70.559998,21.45
604453,0.593408,0.604632,0.635376,280.630005,-77.209999,-53.759998,21.45
604464,0.647088,0.484096,0.480192,135.729996,-51.939999,-43.330002,21.38
604475,0.598288,0.32208,0.215696,33.669998,-24.08,-31.99,21.39
604487,0.589016,0.2806,0.000976,-52.43,-6.16,-21.77,21.39
604498,0.659776,0.57828,0.17812,-142.729996,12.88,-4.97,21.38
604510,0.605608,0.453352,0.371856,-217.490005,33.669998,12.39,21.38
604521,0.621224,0.44408,0.550464,-286.230011,44.869999,23.24,21.4
604532,0.626104,0.485072,0.6466,-364.839996,57.540001,32.48,21.43
604544,0.63928,0.294752,0.67832,-420.140015,68.110001,38.849998,21.43
604555,0.619272,0.068808,0.750056,-466.829987,68.18,47.599998,21.36
604567,0.613904,-0.05124,0.769088,-493.709991,72.169998,51.169998,21.36
604578,0.562176,-0.143472,0.84668,-496.089996,65.239998,60.200001,21.38
604589,0.535824,-0.130296,1.007232,-484.540009,54.32,65.239998,21.39
604600,0.594384,-0.024888,1.03456,-461.649994,50.049999,70.769997,21.39
604612,0.596824,-0.231312,0.970144,-395.709991,42.279999,68.459999,21.4
604623,0.632936,-0.150792,0.869128,-337.820007,30.940001,66.57,21.4
604635,0.643672,-0.284504,0.781776,-272.369995,21.07,67.620003,21.38
604646,0.618296,-0.264984,0.815936,-220.149994,5.6,69.510002,21.43
604658,0.653432,-0.166408,0.775432,-173.389999,0.91,71.400002,21.43
604669,0.617808,-0.396256,0.71492,-118.089996,-5.88,68.599998,21.43
604681,0.609512,-0.513376,0.60024,-73.150002,-9.1,64.120003,21.37
604693,0.584136,-0.698328,0.510448,-36.959999,-11.69,56.419998,21.37
604704,0.559736,-0.771528,0.512888,-15.47,-17.360001,45.919998,21.4
604716,0.567056,-0.82228,0.526064,-7.28,-18.129999,35.279999,21.4
604727,0.553392,-0.933056,0.536312,-4.97,-16.309999,22.889999,21.41
604739,0.542656,-0.956968,0.54656,-6.65,-14.42,11.76,21.37
604751,0.532896,-0.986248,0.488488,-4.06,-12.95,-3.15,21.37
604762,0.554368,-0.900848,0.37576,15.33,-13.72,-17.290001,21.39
604774,0.58072,-0.8052,0.311832,49.279999,-11.97,-28.629999,21.43
604786,0.561688,-0.750056,0.347456,110.809998,-17.43,-42.419998,21.43
604797,0.55144,-0.751032,0.481656,199.570007,-24.92,-55.369999,21.41
604808,0.54168,-0.806176,0.682224,309.399994,-35.0,-77.279999,21.41
604820,0.5246,-0.914024,0.873032,425.109985,-56.419998,-104.580002,21.42
604832,0.606584,-0.784216,0.975512,504.48999,-70.629997,-125.650002,21.36
604843,0.71248,-0.83448,0.942816,561.609985,-75.459999,-137.339996,21.36
604855,0.721264,-0.969168,0.63196,608.859985,-81.410004,-143.990005,21.43
604866,0.604144,-0.625128,0.51728,576.380005,-89.459999,-129.080002,21.41
604878,0.58804,-0.087352,0.618296,458.920013,-79.169998,-105.769997,21.41
604889,0.526552,0.25864,0.679784,302.26001,-54.040001,-86.940002,21.41
604901,0.411384,0.426024,0.6466,158.619995,-45.290001,-62.369999,21.41
604912,0.573888,0.689544,0.544608,57.68,-28.98,-38.57,21.41
604924,0.691008,0.80276,0.43188,-53.759998,-4.48,-19.6,21.39
604936,0.6954,0.477752,0.369416,-123.760002,14.98,-13.58,21.39
604947,0.670512,0.336232,0.453352,-140.350006,25.200001,-5.88,21.41
604959,0.590968,0.301584,0.593408,-136.710007,24.43,-0.21,21.41
604971,0.619272,0.237656,0.674416,-117.599998,23.030001,5.53,21.38
604982,0.596824,0.32208,0.76616,-97.510002,18.129999,9.38,21.43
604993,0.630984,0.30744,0.789584,-80.43,14.98,12.32,21.43
605005,0.664168,0.240584,0.79056,-66.360001,11.13,14.07,21.38
605016,0.691984,0.173728,0.78568,-60.34,10.57,17.08,21.4
605027,0.713944,0.064416,0.75396,-56.07,15.61,18.549999,21.4
605039,0.697352,0.003904,0.730048,-58.939999,18.27,20.23,21.42
605051,0.652456,-0.045384,0.738832,-61.810001,14.98,19.32,21.42
605062,0.643672,-0.016104,0.777872,-66.849998,10.85,18.9,21.43
605074,0.61732,0.013176,0.809592,-80.220001,8.68,19.389999,21.39
605085,0.651968,-0.05856,0.817888,-86.940002,13.86,22.68,21.39
605097,0.60756,-0.13664,0.83204,-84.910004,13.86,22.26,21.38
605108,0.587064,-0.17568,0.835456,-81.760002,10.22,22.190001,21.38
605120,0.642208,-0.19764,0.802272,-75.040001,11.69,23.030001,21.4
605132,0.645136,-0.213744,0.740784,-67.129997,11.34,21.209999,21.41
605144,0.672952,-0.1586,0.709064,-62.93,10.43,21.209999,21.41
605156,0.674904,-0.118584,0.719312,-65.239998,12.18,21.559999,21.41
605167,0.63928,-0.11224,0.763232,-70.629997,12.53,20.860001,21.41
605179,0.61488,-0.237656,0.849608,-70.139999,13.16,21.139999,21.41
605191,0.600728,-0.322568,0.912072,-63.560001,11.34,17.639999,21.39
605202,0.592432,-0.353312,0.90768,-49.279999,8.96,14.49,21.39
605214,0.616344,-0.36356,0.818376,-27.719999,6.44,10.71,21.39
605226,0.654896,-0.155672,0.63196,-27.16,1.89,12.32,21.41
605238,0.708088,0.022448,0.67832,-46.060001,5.25,15.75,21.41
605249,0.69052,-0.028304,0.688568,-61.950001,12.53,14.28,21.45
605260,0.640744,-0.201544,0.75884,-65.449997,17.290001,13.16,21.43
605272,0.58316,-0.3538,0.8784,-57.540001,15.47,10.36,21.43
605283,0.556808,-0.454816,0.947208,-21.07,9.59,5.81,21.41
605294,0.569496,-0.47824,0.913536,-13.86,3.85,0.77,21.41
605306,0.61244,-0.422608,0.811544,9.59,1.96,-1.33,21.41
605317,0.665632,-0.269376,0.582184,26.25,6.44,0.63,21.4
605328,0.714432,0.00488,0.45628,17.360001,9.94,8.54,21.4
605340,0.74908,0.132248,0.452376,-11.34,23.799999,15.47,21.38
605352,0.643184,0.013176,0.579744,-42.700001,37.029999,16.24,21.4
605363,0.591456,-0.280112,0.730048,-62.720001,44.099998,19.6,21.4
605375,0.5612,-0.532896,0.833016,-61.599998,42.700001,18.9,21.45
605386,0.538264,-0.521672,0.964776,-52.919998,36.259998,18.83,21.45
605398,0.582672,-0.41236,1.030168,-41.439999,30.17,21.07,21.43
605409,0.643184,-0.387472,0.952576,-27.860001,28.0,20.440001,21.42
605421,0.67832,-0.411384,0.800808,-9.87,29.33,16.17,21.42
605432,0.659776,-0.372344,0.568032,37.099998,32.34,8.82,21.4
605443,0.634888,-0.299632,0.470432,75.879997,38.290001,4.55,21.4
605455,0.588528,-0.345992,0.443104,89.389999,43.889999,1.33,21.38
605466,0.546072,-0.1952,0.394792,77.419998,51.66,-3.99,21.39
605478,0.438712,-0.127368,0.60268,42.700001,58.939999,6.44,21.39
605489,0.384544,-0.16836,0.66856,6.3,62.16,18.129999,21.37
605501,0.412848,-0.228384,0.796904,-16.52,66.080002,23.030001,21.4
605513,0.39772,-0.260592,0.894504,-22.610001,65.169998,23.52,21.4
605524,0.401136,-0.289872,0.924272,-19.67,63.630001,22.82,21.42
605536,0.380152,-0.322568,0.925736,-6.51,61.389999,15.89,21.42
605547,0.363072,-0.279136,0.93696,2.24,56.700001,10.5,21.41
605558,0.33428,-0.252784,0.9516,0.84,51.099998,6.3,21.39
605570,0.324032,-0.279136,0.990152,-4.27,43.259998,3.08,21.39
605582,0.332328,-0.3172,1.048712,-14.7,35.560001,1.68,21.41
605594,0.333304,-0.366488,1.064328,-21.139999,28.35,1.26,21.41
605606,0.315736,-0.395768,1.052616,-24.01,19.459999,-0.77,21.4
605617,0.322568,-0.38308,1.03456,-23.799999,12.95,-1.82,21.43
605628,0.33916,-0.364048,1.022848,-21.35,8.75,-3.29,21.43
605640,0.347944,-0.3782,1.00284,-8.19,4.2,-7.84,21.41
605652,0.353312,-0.322568,0.980392,3.71,-0.84,-10.57,21.39
605663,0.372344,-0.266448,0.975512,12.39,-3.85,-11.13,21.39
605674,0.396744,-0.238144,0.970144,14.42,-5.11,-10.85,21.41
605686,0.400648,-0.23668,0.967216,13.23,-6.58,-10.08,21.41
605698,0.415288,-0.25132,0.958432,11.76,-7.28,-8.61,21.38
605710,0.4148,-0.251808,0.939888,11.97,-8.33,-7.07,21.39
605721,0.418216,-0.260104,0.93208,11.27,-9.52,-5.67,21.39
605733,0.427488,-0.274744,0.931104,11.27,-10.57,-5.18,21.39
605744,0.432368,-0.277184,0.923784,13.44,-10.85,-4.2,21.4
605756,0.442616,-0.269376,0.900848,15.61,-9.73,-3.71,21.4
605768,0.427976,-0.241072,0.892552,14.56,-8.89,-1.96,21.39
605779,0.43188,-0.226432,0.90036,9.8,-8.19,-0.49,21.39
605790,0.432368,-0.251808,0.899872,5.04,-6.51,1.4,21.41
605802,0.41724,-0.254736,0.902312,2.17,-5.67,2.66,21.39
605813,0.412848,-0.291336,0.889136,1.4,-4.83,3.5,21.39
605825,0.403088,-0.31232,0.891088,3.22,-5.18,3.5,21.44
605836,0.404064,-0.310856,0.89548,4.62,-4.83,2.94,21.44
605848,0.409432,-0.303536,0.898896,6.02,-4.62,2.66,21.34
605859,0.406016,-0.298656,0.892064,7.91,-3.78,1.61,21.39
605871,0.399672,-0.301584,0.892552,9.31,-3.78,0.91,21.39
605882,0.392352,-0.277672,0.904752,8.82,-4.97,1.05,21.39
605894,0.400648,-0.273768,0.895968,6.58,-4.83,1.26,21.35
605906,0.410408,-0.264008,0.879864,3.92,-4.34,1.61,21.35
605917,0.40992,-0.271328,0.877424,1.26,-4.2,1.89,21.43
605929,0.418704,-0.280112,0.88328,-0.7,-3.71,1.82,21.43
605941,0.421632,-0.291824,0.890112,-2.87,-3.15,1.96,21.36
605952,0.418704,-0.315248,0.894992,-3.22,-2.73,0.98,21.39
605964,0.411384,-0.3172,0.901336,-1.26,-3.15,0.35,21.39
605976,0.406992,-0.303536,0.901824,0.56,-3.92,0.07,21.43
605987,0.415776,-0.305,0.894992,2.03,-4.06,-1.19,21.39
605999,0.411872,-0.2684,0.90036,3.15,-4.48,-1.33,21.39
606010,0.410408,-0.253272,0.9028,1.82,-4.76,-0.77,21.41
606022,0.4148,-0.2562,0.904264,-0.28,-5.18,-0.21,21.41
606034,0.414312,-0.264496,0.894016,-1.75,-5.11,-0.28,21.4
606046,0.404064,-0.291824,0.877912,-0.77,-4.76,-0.28,21.36
606057,0.402112,-0.293776,0.875472,1.82,-5.18,-0.56,21.36
606069,0.404552,-0.286456,0.887184,3.85,-5.74,-0.91,21.43
606082,0.413336,-0.27084,0.90524,4.55,-5.74,-0.77,21.4
606094,0.415288,-0.250832,0.911584,3.08,-5.88,-0.28,21.4
606105,0.41968,-0.250344,0.910608,1.26,-6.16,0.14,21.46
606117,0.425536,-0.255712,0.910608,-0.28,-6.37,0.77,21.41
606128,0.427488,-0.259616,0.909632,-2.03,-6.58,1.33,21.41
606140,0.427,-0.27084,0.899384,-2.1,-6.44,1.19,21.44
606152,0.424072,-0.27572,0.886208,-1.75,-6.3,1.26,21.44
606163,0.41968,-0.28792,0.868152,17.219999,-5.53,1.26,21.38
606175,0.418216,-0.285968,0.855464,3.15,-5.04,1.26,21.39
606186,0.424072,-0.261568,0.853024,3.22,-3.99,2.03,21.39
606198,0.426512,-0.267424,0.86376,1.82,-2.94,2.94,21.39
606209,0.427488,-0.269864,0.884744,0.63,-2.66,3.5,21.39
606221,0.428464,-0.289384,0.903776,-0.77,-2.66,3.92,21.43
606232,0.423096,-0.310368,0.913048,-0.7,-3.15,3.36,21.42
606245,0.420168,-0.328912,0.917928,1.05,-4.06,2.17,21.42
606257,0.420168,-0.335256,0.903776,4.97,-4.76,0.35,21.43
606269,0.421632,-0.328424,0.887672,9.03,-5.18,-1.33,21.43
606280,0.412848,-0.287432,0.870104,11.76,-5.04,-2.73,21.43
606292,0.416264,-0.250344,0.854488,9.87,-4.62,-1.61,21.42
606304,0.409432,-0.241072,0.86864,4.27,-4.9,-0.14,21.43
606316,0.419192,-0.223992,0.902312,-1.96,-5.32,1.82,21.43
606327,0.434808,-0.274256,0.925248,-6.44,-5.46,2.17,21.46
606339,0.437736,-0.28548,0.947208,-8.19,-6.51,2.1,21.46
606351,0.4392,-0.30012,0.953552,-8.61,-7.42,1.68,21.41
606363,0.428464,-0.338672,0.947696,-6.23,-8.68,0.63,21.4
606375,0.409432,-0.347944,0.958432,1.47,-11.41,-1.33,21.4
606386,0.404064,-0.323544,0.95892,6.02,-13.72,-3.01,21.41
606398,0.401136,-0.276208,0.949648,8.89,-16.66,-3.43,21.45
606410,0.411872,-0.233264,0.931592,6.51,-18.129999,-2.87,21.45
606422,0.399672,-0.242048,0.928664,2.66,-20.23,-1.61,21.43
606434,0.4026,-0.230824,0.926712,-2.45,-22.469999,-0.28,21.44
606445,0.396256,-0.262544,0.931104,-4.83,-24.5,0.63,21.44
606457,0.394304,-0.281576,0.936472,-2.52,-27.93,0.14,21.43
606469,0.4148,-0.269864,0.928176,0.84,-30.030001,-0.7,21.43
606480,0.413336,-0.266448,0.90768,6.37,-32.200001,-1.12,21.4
606492,0.425536,-0.220576,0.870104,5.74,-34.16,0.07,21.41
606504,0.447008,-0.2196,0.820816,0.49,-33.040001,2.1,21.41
606515,0.446032,-0.244488,0.756888,0.42,-31.219999,3.29,21.4
606526,0.449936,-0.198616,0.682224,-6.23,-28.77,6.37,21.4
606538,0.459208,-0.130784,0.630984,-23.52,-25.059999,11.83,21.43
606550,0.487024,-0.101016,0.652456,-42.630001,-22.610001,16.24,21.41
606562,0.528504,-0.084424,0.684664,-74.900002,-18.76,22.68,21.41
606574,0.530944,-0.163968,0.72956,-98.980003,-15.12,28.35,21.4
606586,0.54168,-0.315248,0.793488,-114.589996,-13.79,26.74,21.42
606598,0.5612,-0.39772,0.894504,-123.970001,-15.82,26.32,21.42
606610,0.554856,-0.512888,1.043344,-118.440002,-21.700001,22.889999,21.42
606622,0.523136,-0.705648,1.142896,-96.32,-29.540001,11.06,21.37
606633,0.496296,-0.603168,1.121912,-68.389999,-43.330002,6.86,21.37
606645,0.512888,-0.528992,1.041392,-53.830002,-51.73,3.22,21.39
606657,0.531432,-0.40016,0.865224,-57.330002,-55.16,5.46,21.39
606669,0.567544,-0.350384,0.802272,-69.160004,-51.099998,9.03,21.43
606680,0.567056,-0.416264,0.802272,-73.57,-48.720001,8.96,21.41
606692,0.551928,-0.426512,0.825696,-75.25,-47.529999,9.03,21.41
606704,0.529968,-0.501664,0.842288,-78.540001,-45.709999,7.49,21.43
606715,0.53192,-0.623664,0.782752,-72.449997,-45.009998,3.29,21.38
606727,0.524112,-0.6344,0.684664,-61.110001,-45.709999,-1.26,21.38
606739,0.549488,-0.557784,0.587552,-51.029999,-43.400002,-5.11,21.4
606751,0.564616,-0.566568,0.465552,-34.09,-40.950001,-13.44,21.4
606763,0.582672,-0.589016,0.367952,-7.35,-36.049999,-22.959999,21.42
606775,0.616344,-0.672464,0.345504,39.619999,-36.540001,-32.200001,21.39
606787,0.610488,-0.650992,0.410896,97.860001,-40.32,-47.950001,21.39
606799,0.643672,-0.632936,0.49776,157.919998,-42.209999,-58.380001,21.43
606811,0.623176,-0.657336,0.602192,233.309998,-48.720001,-75.529999,21.41
606822,0.601704,-0.550952,0.72224,291.899994,-57.75,-85.610001,21.41
606833,0.623664,-0.6222,0.757864,353.640015,-63.349998,-93.169998,21.45
606845,0.628056,-0.60024,0.760792,410.829987,-72.169998,-98.910004,21.44
606857,0.61488,-0.498248,0.778848,451.570007,-81.129997,-100.029999,21.44
606869,0.614392,-0.43432,0.728584,482.160004,-86.660004,-99.540001,21.38
606882,0.616344,-0.28792,0.66124,492.869995,-90.720001,-93.660004,21.39
606894,0.628544,-0.045384,0.624152,466.549988,-88.760002,-83.860001,21.39
606905,0.6588,0.114192,0.557296,419.790009,-81.690002,-72.169998,21.46
606917,0.652456,0.447496,0.494344,310.029999,-70.419998,-56.0,21.46
606928,0.66124,0.672464,0.435784,142.169998,-48.580002,-38.57,21.43
606940,0.653432,0.604632,0.296216,-25.200001,-17.01,-18.9,21.4
606952,0.60756,0.517768,0.18056,-161.979996,13.58,1.75,21.4
606964,0.63196,0.487024,0.20496,-263.200012,37.939999,26.74,21.41
606976,0.654408,0.503616,0.38552,-336.769989,54.110001,44.450001,21.39
606988,0.671976,0.472872,0.53436,-388.709991,67.269997,63.279999,21.39
606999,0.68808,0.309392,0.70516,-425.950012,74.900002,74.129997,21.41
607011,0.658312,0.22204,0.787144,-455.0,77.419998,83.510002,21.41
607023,0.636352,-0.020008,0.791048,-457.100006,67.900002,90.650002,21.43
607035,0.697352,-0.05124,0.750056,-447.720001,62.299999,91.209999,21.41
607047,0.693448,-0.211792,0.71736,-427.700012,55.720001,93.660004,21.41
607058,0.656848,-0.434808,0.71492,-379.820007,45.849998,89.529999,21.41
607070,0.663192,-0.534848,0.706136,-319.619995,35.349998,84.699997,21.45
607082,0.637816,-0.589992,0.684176,-258.790009,28.49,78.82,21.45
607093,0.598776,-0.59292,0.671488,-202.860001,18.549999,71.82,21.41
607104,0.596336,-0.54412,0.604632,-152.389999,14.77,63.91,21.41
607116,0.60268,-0.422608,0.535824,-113.959999,9.03,60.130001,21.47
607127,0.626104,-0.45384,0.429928,-84.419998,15.19,52.150002,21.45
607139,0.559736,-0.798856,0.400648,-40.040001,13.3,40.810001,21.45
607151,0.52948,-0.915,0.47092,7.14,3.43,25.41,21.42
607163,0.529968,-0.972096,0.547536,42.279999,-1.19,10.57,21.37
607175,0.515328,-0.915488,0.610488,62.860001,-4.69,-4.83,21.37
607187,0.543632,-0.911584,0.611464,74.410004,-4.55,-19.459999,21.41
607199,0.542656,-0.93208,0.581696,114.099998,-9.94,-35.91,21.44
607210,0.571936,-0.784704,0.608048,156.869995,-17.15,-51.310001,21.44
607222,0.587552,-0.72712,0.669536,204.119995,-21.42,-65.800003,21.41
607234,0.592432,-0.708576,0.743224,258.089996,-30.309999,-83.230003,21.41
607246,0.612928,-0.715896,0.805688,314.859985,-41.09,-98.349998,21.43
607258,0.65392,-0.708088,0.794464,377.579987,-49.98,-112.349998,21.4
607270,0.63196,-0.562664,0.776408,433.720001,-63.209999,-117.599998,21.4
607282,0.653432,-0.46604,0.67344,480.200012,-69.720001,-113.190002,21.45
607293,0.602192,-0.384056,0.61244,510.160004,-76.650002,-108.639999,21.4
607305,0.615368,-0.025376,0.595848,505.609985,-81.760002,-98.139999,21.4
607317,0.615368,0.233752,0.620248,464.380005,-77.559998,-85.260002,21.43
607329,0.622688,0.493856,0.596824,364.769989,-65.029999,-71.400002,21.43
607341,0.671,0.69784,0.550464,239.75,-43.119999,-54.32,21.42
607353,0.63928,0.628056,0.49044,103.739998,-20.370001,-36.259998,21.41
607364,0.593408,0.628544,0.42456,-28.700001,0.49,-16.52,21.41
607376,0.633912,0.576816,0.297192,-137.619995,23.309999,2.59,21.45
607388,0.634888,0.430904,0.228872,-216.580002,45.5,20.370001,21.42
607399,0.619272,0.5246,0.401136,-292.529999,55.369999,42.490002,21.42
607411,0.665632,0.457744,0.584624,-358.470001,68.18,59.009998,21.39
607423,0.604144,0.299144,0.7808,-406.0,72.169998,73.5,21.39
607434,0.625128,0.171776,0.904752,-432.670013,72.239998,83.510002,21.37
607446,0.612928,0.0122,0.982344,-456.329987,65.589996,91.139999,21.39
607457,0.633912,-0.079544,0.952576,-465.220001,54.669998,97.019997,21.39
607469,0.694912,-0.153232,0.852536,-464.170013,50.540001,96.669998,21.46
607480,0.711504,-0.39528,0.72224,-434.769989,47.32,93.800003,21.4
607493,0.670512,-0.369904,0.732,-383.880005,34.93,90.089996,21.4
607505,0.689056,-0.320128,0.70272,-329.209991,31.780001,85.470001,21.42
607516,0.618784,-0.376248,0.601216,-257.390015,31.43,77.489998,21.42
607529,0.519232,-0.645136,0.441152,-153.020004,20.65,60.900002,21.45
607540,0.516304,-0.6832,0.330864,-51.73,4.13,46.759998,21.43
607552,0.550464,-0.786168,0.299632,27.860001,-4.13,32.830002,21.43
607564,0.524112,-0.996008,0.38064,72.870003,-8.47,19.110001,21.39
607575,0.49532,-0.961848,0.538752,88.620003,-11.48,2.31,21.45
607587,0.473848,-1.030168,0.639768,94.639999,-13.72,-15.19,21.45
607599,0.501664,-0.880352,0.676856,96.669998,-14.07,-27.23,21.39
607611,0.5246,-0.853024,0.635864,110.25,-11.69,-40.599998,21.42
607623,0.528504,-0.686128,0.65636,150.429993,-18.27,-56.279999,21.42
607634,0.520696,-0.636352,0.748592,211.470001,-24.01,-72.029999,21.44
607646,0.53436,-0.693936,0.804224,300.929993,-36.959999,-92.540001,21.44
607658,0.57096,-0.597312,0.86376,387.380005,-58.939999,-111.019997,21.41
607669,0.654408,-0.501664,0.879864,451.570007,-67.480003,-118.860001,21.4
607681,0.70272,-0.476288,0.857904,497.559998,-73.5,-123.620003,21.4
607693,0.658312,-0.486536,0.8418,540.609985,-88.620003,-128.240005,21.43
607704,0.569008,-0.526552,0.703696,583.659973,-98.07,-122.709999,21.43
607716,0.543632,-0.199104,0.638792,601.789978,-102.269997,-107.940002,21.43
607727,0.569984,0.330864,0.52948,533.26001,-98.769997,-88.760002,21.41
607739,0.64416,0.581696,0.436272,412.929993,-77.629997,-73.43,21.41
607751,0.593408,0.572424,0.3172,298.690002,-59.990002,-56.349998,21.42
607763,0.639768,0.662216,0.2318,154.559998,-39.48,-36.400002,21.39
607775,0.699792,0.792024,0.190808,28.98,-8.05,-22.959999,21.39
607787,0.662704,0.74664,0.18056,-64.260002,13.16,-8.4,21.48
607798,0.676368,0.732976,0.186904,-139.229996,33.529999,2.1,21.41
607810,0.626104,0.64172,0.335744,-188.300003,45.5,18.129999,21.41
607822,0.608536,0.618784,0.533384,-216.509995,52.849998,27.65,21.45
607833,0.616832,0.664656,0.646112,-246.889999,57.259998,38.57,21.45
607844,0.62708,0.5612,0.732,-268.730011,60.830002,47.459999,21.41
607856,0.604144,0.4514,0.7686,-298.269989,58.869999,56.0,21.44
607867,0.62952,0.302072,0.782264,-327.670013,56.77,64.330002,21.44
607879,0.682712,0.128344,0.677344,-354.480011,59.849998,74.269997,21.43
607891,0.663192,-0.076128,0.681248,-377.51001,58.869999,80.639999,21.44
607903,0.638304,-0.153232,0.745664,-403.899994,54.740002,85.959999,21.44
607915,0.60268,-0.317688,0.813984,-415.660004,47.32,87.849998,21.45
607927,0.586576,-0.389424,0.892552,-417.059998,38.220001,91.489998,21.45
607938,0.65392,-0.423584,0.924272,-410.339996,32.060001,91.629997,21.41
607950,0.670512,-0.43188,0.850584,-399.140015,29.4,87.080002,21.42
607961,0.677344,-0.390888,0.755912,-384.720001,27.02,86.239998,21.42
607973,0.674416,-0.45628,0.682224,-351.540009,27.440001,78.68,21.46
607984,0.67344,-0.408456,0.598288,-296.589996,27.860001,74.059998,21.37
607997,0.555832,-0.538752,0.553392,-198.309998,21.139999,62.93,21.37
608009,0.50508,-0.548024,0.4758,-106.540001,15.12,52.290001,21.43
608020,0.45628,-0.813984,0.38064,-10.99,-0.63,36.540001,21.4
608032,0.511424,-0.895968,0.345504,59.639999,-12.74,18.690001,21.4
